timestamp,time_s,speed_mps,distance_m,wheel_omega_rad_s,motor_current_A,steer_motor_deg,steer_column_deg,vx_mps,vy_mps,yaw_rate_rad_s,heading_rad,x_m,y_m,gyro_x_rad_s,gyro_y_rad_s,gyro_z_rad_s,accel_x_mps2,accel_y_mps2,accel_z_mps2,grade_deg,bank_deg,moving,gps_new_fix,gps_time_s,gps_latitude_deg,gps_longitude_deg,gps_altitude_m,gps_east_m,gps_north_m,gps_sigma_m
2026-09-11T16:31:30.211,0.000011,0.224305,0.001094,2.076897,0.000000,-37.017672,12.735438,0.218787,0.015021,0.031623,0.000000,0.000000,0.000000,-0.018237,0.002507,0.033106,-0.064135,-0.120230,9.566878,-1.436327,2.076870,0,0,,,,,,,
2026-09-11T16:31:30.245,0.033439,0.147157,0.005332,1.362564,0.000000,-35.640261,12.261558,0.143800,0.014080,0.029642,0.001024,0.006060,0.000489,-0.001236,0.003413,0.031125,0.246343,-0.181619,9.657099,-1.416246,2.073068,0,0,,,,,,,
2026-09-11T16:31:30.279,0.066859,0.166606,0.010709,1.542648,0.000000,-34.666598,11.926582,0.163010,0.009757,0.020540,0.001863,0.011186,0.000895,0.006834,0.005296,0.022024,0.151022,0.290277,9.919329,-1.395063,2.099905,0,0,,,,,,,
2026-09-11T16:31:30.312,0.100274,0.166606,0.016269,1.542648,0.000000,-34.006732,11.699564,0.163145,0.012849,0.027051,0.002658,0.016635,0.001285,0.026234,0.000684,0.028534,0.071687,0.448164,9.853918,-1.371749,2.136585,0,0,,,,,,,
2026-09-11T16:31:30.346,0.133698,0.186214,0.022649,1.724200,0.000000,-33.559725,11.545777,0.182446,0.007146,0.015045,0.003361,0.022409,0.001636,0.033965,0.003854,0.016529,-0.169949,0.578298,9.885005,-1.364324,2.181399,0,0,,,,,,,
2026-09-11T16:31:30.379,0.167117,0.080373,0.026113,0.744194,0.000000,-32.727511,11.259465,0.078826,0.008839,0.018609,0.003923,0.026774,0.001919,0.030700,0.001517,0.020092,-0.293513,0.524852,9.659256,-1.364976,2.222333,0,1,0.154311,38.990780,-76.937898,-5.857000,0.000000,0.000000,3.647980
2026-09-11T16:31:30.412,0.200535,0.080373,0.028619,0.744194,0.000000,-31.474383,10.828343,0.078942,0.005876,0.012371,0.004441,0.029409,0.002176,0.009748,0.001028,0.013855,-0.157985,0.232123,9.525788,-1.356852,2.243905,0,0,,38.990780,-76.937898,-5.857000,,,
2026-09-11T16:31:30.446,0.233952,0.080373,0.031308,0.744194,0.000000,-29.917758,10.292806,0.079080,0.003529,0.007430,0.004772,0.032049,0.002345,-0.004882,0.001843,0.008913,-0.044424,0.314892,9.663277,-1.351925,2.270616,0,0,,38.990780,-76.937898,-5.857000,,,
2026-09-11T16:31:30.479,0.267372,0.148404,0.036549,1.374114,0.000000,-28.247149,9.718056,0.146275,0.003276,0.006898,0.005011,0.035814,0.002477,-0.004631,0.000393,0.008381,0.101303,0.252619,9.741142,-1.347339,2.292977,0,0,,38.990780,-76.937898,-5.857000,,,
2026-09-11T16:31:30.512,0.300790,0.148404,0.041470,1.374114,0.000000,-26.735156,9.197875,0.146496,0.002820,0.005937,0.005226,0.040705,0.002604,-0.004500,0.002341,0.007421,-0.007159,0.431002,9.729962,-1.342260,2.326641,0,0,,38.990780,-76.937898,-5.857000,,,
2026-09-11T16:31:30.547,0.334211,0.030569,0.041653,0.283048,0.000000,-26.516802,9.122753,0.030183,0.004105,0.008641,0.005469,0.043657,0.002736,0.005930,0.002928,0.010125,0.097870,0.300378,9.721528,-1.322369,2.351521,0,0,,38.990780,-76.937898,-5.857000,,,
2026-09-11T16:31:30.579,0.367630,0.030569,0.042564,0.283048,0.000000,-26.388400,9.078578,0.030186,0.005086,0.010708,0.005793,0.044665,0.002895,0.001812,0.001334,0.012191,0.251344,0.320383,9.718685,-1.290276,2.377413,0,0,,38.990780,-76.937898,-5.857000,,,
2026-09-11T16:31:30.612,0.401059,0.030569,0.043567,0.283048,0.000000,-26.388400,9.078578,0.030186,0.005787,0.012183,0.006175,0.045673,0.003083,0.006075,0.002253,0.013667,0.215354,0.143373,9.744182,-1.266302,2.391568,0,0,,38.990780,-76.937898,-5.857000,,,
2026-09-11T16:31:30.646,0.434480,0.030569,0.044615,0.283048,0.000000,-26.388400,9.078578,0.030186,0.004660,0.009811,0.006543,0.046680,0.003264,-0.001281,0.002571,0.011295,0.211039,0.228495,9.779682,-1.249554,2.411075,0,0,,38.990780,-76.937898,-5.857000,,,
2026-09-11T16:31:30.680,0.467893,0.030569,0.045617,0.283048,0.000000,-26.330035,9.058498,0.030188,0.003059,0.006440,0.006814,0.047688,0.003399,-0.006174,0.001585,0.007923,0.243205,0.260072,9.695247,-1.231517,2.432410,0,0,,38.990780,-76.937898,-5.857000,,,
2026-09-11T16:31:30.713,0.501308,0.194509,0.052590,1.801006,0.000000,-25.725787,8.850615,0.192193,0.003210,0.006757,0.007035,0.051403,0.003530,-0.007000,0.001240,0.008240,0.144648,0.274194,9.750262,-1.216335,2.454353,0,0,,38.990780,-76.937898,-5.857000,,,
2026-09-11T16:31:30.746,0.534732,0.106988,0.057102,0.990627,0.000000,-25.591891,8.804550,0.105727,0.002937,0.006183,0.007251,0.056381,0.003668,-0.011514,0.000711,0.007666,0.129840,0.249089,9.676222,-1.197924,2.474475,0,0,,38.990780,-76.937898,-5.857000,,,
2026-09-11T16:31:30.780,0.568150,0.019467,0.056965,0.180248,0.000000,-25.170977,8.659740,0.019245,0.002556,0.005381,0.007444,0.058468,0.003775,-0.010314,0.001902,0.006864,0.198585,0.224965,9.709859,-1.182763,2.492846,0,0,,38.990780,-76.937898,-5.857000,,,
2026-09-11T16:31:30.814,0.601565,-0.000000,0.056919,-0.000000,0.000000,-24.936144,8.578949,-0.000000,0.002907,0.006120,0.007637,0.058789,0.003869,-0.010171,0.000511,0.007604,0.177893,0.275273,9.716233,-1.176617,2.514273,0,0,,38.990780,-76.937898,-5.857000,,,
2026-09-11T16:31:30.847,0.635011,-0.000000,0.056919,-0.000000,0.000000,-24.762423,8.519182,-0.000000,0.002432,0.005119,0.007824,0.058788,0.003958,-0.013800,0.000593,0.006603,0.209078,0.261641,9.697502,-1.168514,2.534599,0,0,,38.990780,-76.937898,-5.857000,,,
2026-09-11T16:31:30.880,0.668433,-0.000000,0.056919,-0.000000,0.000000,-24.668353,8.486819,-0.000000,0.001672,0.003520,0.007969,0.058788,0.004027,-0.010104,0.003171,0.005004,0.171028,0.249285,9.748301,-1.162968,2.553886,0,0,,38.990780,-76.937898,-5.857000,,,
2026-09-11T16:31:30.914,0.701861,-0.000000,0.056919,-0.000000,0.000000,-24.408114,8.397287,-0.000000,0.001028,0.002165,0.008064,0.058787,0.004072,-0.012287,-0.000012,0.003648,0.127094,0.220257,9.712408,-1.160327,2.571084,0,0,,38.990780,-76.937898,-5.857000,,,
2026-09-11T16:31:30.947,0.735313,0.009725,0.057375,0.090042,0.000000,-24.132082,8.302322,0.009623,0.000845,0.001780,0.008130,0.058948,0.004104,-0.011066,0.001862,0.003263,0.159652,0.239478,9.704955,-1.145133,2.589347,0,0,,38.990780,-76.937898,-5.857000,,,
2026-09-11T16:31:30.981,0.768730,0.009725,0.057694,0.090042,0.000000,-23.836138,8.200506,0.009625,-0.000401,-0.000844,0.008145,0.059269,0.004114,-0.006490,0.001413,0.000639,0.199369,0.239086,9.745261,-1.122681,2.607366,0,0,,38.990780,-76.937898,-5.857000,,,
2026-09-11T16:31:31.014,0.802147,0.009725,0.058013,0.090042,0.000000,-23.512728,8.089241,0.009628,0.000148,0.000311,0.008137,0.059591,0.004113,-0.006097,0.001657,0.001794,0.245951,0.252227,9.724961,-1.108626,2.626034,0,0,,38.990780,-76.937898,-5.857000,,,
2026-09-11T16:31:31.047,0.835566,0.009725,0.058332,0.090042,0.000000,-23.314974,8.021207,0.009629,0.000613,0.001290,0.008163,0.059913,0.004128,-0.003936,0.002678,0.002774,0.309400,0.249775,9.737121,-1.097444,2.644337,0,0,,38.990780,-76.937898,-5.857000,,,
2026-09-11T16:31:31.080,0.868984,0.009725,0.058651,0.090042,0.000000,-23.268282,8.005143,0.009630,-0.000522,-0.001099,0.008166,0.060235,0.004132,-0.000622,0.001525,0.000384,0.342448,0.259778,9.713585,-1.097386,2.663086,0,0,,38.990780,-76.937898,-5.857000,,,
2026-09-11T16:31:31.114,0.902405,0.009725,0.058970,0.090042,0.000000,-23.268282,8.005143,0.009630,0.001448,0.003048,0.008199,0.060556,0.004150,0.000346,0.002647,0.004532,0.278803,0.244284,9.718096,-1.112109,2.680623,0,0,,38.990780,-76.937898,-5.857000,,,
2026-09-11T16:31:31.148,0.935822,0.009725,0.059289,0.090042,0.000000,-23.268282,8.005143,0.009630,0.001763,0.003712,0.008312,0.060878,0.004207,0.001436,0.002727,0.005195,0.281451,0.300672,9.720352,-1.116045,2.701612,0,0,,38.990780,-76.937898,-5.857000,,,
2026-09-11T16:31:31.180,0.969241,0.009725,0.059654,0.090042,0.000000,-23.268282,8.005143,0.009630,0.002401,0.005055,0.008458,0.061199,0.004279,-0.005618,0.002350,0.006539,0.419528,0.303516,9.659452,-1.101162,2.722552,0,0,,38.990780,-76.937898,-5.857000,,,
2026-09-11T16:31:31.214,1.002665,0.009725,0.059973,0.090042,0.000000,-23.268282,8.005143,0.009630,0.001393,0.002932,0.008592,0.061520,0.004345,-0.003887,0.003069,0.004415,0.486802,0.298122,9.719371,-1.098639,2.742916,0,0,,38.990780,-76.937898,-5.857000,,,
2026-09-11T16:31:31.248,1.036086,0.009725,0.060292,0.090042,0.000000,-23.268282,8.005143,0.009630,0.003275,0.006895,0.008756,0.061841,0.004426,0.006913,0.000942,0.008378,0.478466,0.227220,9.725843,-1.107031,2.758463,0,0,,38.990780,-76.937898,-5.857000,,,
2026-09-11T16:31:31.282,1.069504,0.009725,0.060611,0.090042,0.000000,-23.378832,8.043176,0.009629,0.003786,0.007971,0.009005,0.062162,0.004547,0.012951,0.000213,0.009454,0.538189,0.310871,9.747908,-1.107675,2.779247,0,0,,38.990780,-76.937898,-5.857000,,,
2026-09-11T16:31:31.315,1.102925,0.009725,0.060930,0.090042,0.000000,-23.467410,8.073650,0.009628,0.005233,0.011017,0.009322,0.062482,0.004700,0.005052,0.002993,0.012501,0.785415,0.295867,9.699267,-1.096562,2.798830,0,0,,38.990780,-76.937898,-5.857000,,,
2026-09-11T16:31:31.348,1.136348,0.195996,0.066398,1.814781,0.000000,-24.014666,8.261926,0.193962,0.007671,0.016150,0.009776,0.065882,0.004949,-0.010106,0.003646,0.017633,1.076476,0.400111,9.633367,-1.070401,2.824746,0,0,,38.990780,-76.937898,-5.857000,,,
2026-09-11T16:31:31.381,1.169765,0.176753,0.072687,1.636598,0.000000,-24.789202,8.528395,0.174798,0.009931,0.020908,0.010395,0.072041,0.005305,-0.024054,0.000634,0.022392,1.172385,0.344998,9.696914,-1.042588,2.846773,0,0,,38.990780,-76.937898,-5.857000,,,
2026-09-11T16:31:31.415,1.203182,0.032425,0.072687,0.300227,0.000000,-26.190646,9.010543,0.032024,0.011373,0.023944,0.011144,0.075492,0.005698,-0.011928,0.003253,0.025427,1.071082,0.475623,9.703876,-1.026523,2.877192,0,0,,38.990780,-76.937898,-5.857000,,,
2026-09-11T16:31:31.448,1.236600,0.032425,0.073735,0.300227,0.000000,-28.669436,9.863338,0.031945,0.016372,0.034467,0.012120,0.076556,0.006174,-0.000779,0.001059,0.035951,1.111682,0.283510,9.823812,-1.012309,2.894824,0,0,,38.990780,-76.937898,-5.857000,,,
2026-09-11T16:31:31.481,1.270022,0.304550,0.081802,2.819905,0.000000,-34.366534,11.823349,0.298088,0.019135,0.040284,0.013370,0.082063,0.006840,-0.015020,0.000046,0.041768,1.217496,0.283510,9.585118,-0.994497,2.911558,0,0,,38.990780,-76.937898,-5.857000,,,
2026-09-11T16:31:31.515,1.303443,0.196534,0.088956,1.819762,0.000000,-34.869845,11.996506,0.192242,0.023595,0.049673,0.014873,0.090246,0.007668,-0.051526,0.002321,0.051157,1.158362,0.409722,9.741240,-0.983307,2.936431,0,0,,38.990780,-76.937898,-5.857000,,,
2026-09-11T16:31:31.548,1.336865,0.244752,0.096521,2.266220,0.000000,-34.961855,12.028161,0.239378,0.030518,0.064248,0.016777,0.097443,0.008687,-0.062085,-0.004456,0.065732,1.260547,0.247128,9.624639,-0.967696,2.950132,0,0,,38.990780,-76.937898,-5.857000,,,
2026-09-11T16:31:31.582,1.370280,0.264201,0.105180,2.446304,0.000000,-35.905306,12.352743,0.258084,0.032526,0.068476,0.018994,0.105734,0.009890,-0.051533,-0.007338,0.069959,1.097462,0.579377,9.480579,-0.951793,2.985023,0,0,,38.990780,-76.937898,-5.857000,,,
2026-09-11T16:31:31.616,1.403680,0.303416,0.115342,2.809406,0.000000,-36.567919,12.580706,0.296131,0.038017,0.080035,0.021474,0.114964,0.011255,-0.032973,0.000330,0.081519,1.448148,0.142000,9.831853,-0.903601,2.990840,0,0,,38.990780,-76.937898,-5.857000,,,
2026-09-11T16:31:31.649,1.437096,0.332282,0.126644,3.076681,0.000000,-37.162554,12.785282,0.324043,0.039472,0.083098,0.024200,0.125293,0.012787,-0.005325,0.002258,0.084582,1.450502,0.575552,9.602182,-0.870142,3.024436,1,0,,38.990780,-76.937898,-5.857000,,,
2026-09-11T16:31:31.682,1.470511,0.381279,0.139450,3.530358,0.000000,-37.155001,12.782684,0.371829,0.040807,0.085909,0.027023,0.136881,0.014427,0.005933,0.006874,0.087392,1.288300,0.130330,9.687107,-0.860731,3.028531,1,0,,38.990780,-76.937898,-5.857000,,,
2026-09-11T16:31:31.716,1.503924,0.400566,0.153213,3.708941,0.000000,-36.959307,12.715358,0.390742,0.039044,0.082198,0.029832,0.149578,0.016123,-0.005897,0.007395,0.083681,0.992433,-0.280666,10.233043,-0.860426,3.005981,1,0,,38.990780,-76.937898,-5.857000,,,
2026-09-11T16:31:31.750,1.537342,0.429795,0.167522,3.979584,0.000000,-35.985644,12.380382,0.419800,0.034981,0.073645,0.032436,0.163077,0.017781,-0.016815,0.011592,0.075128,0.805126,-0.059330,9.663473,-0.871958,2.998077,1,0,,38.990780,-76.937898,-5.857000,,,
2026-09-11T16:31:31.783,1.570761,0.439514,0.182470,4.069572,0.000000,-32.866900,11.307420,0.430982,0.026728,0.056270,0.034607,0.177250,0.019288,0.008196,0.019505,0.057754,0.563392,0.347646,8.869625,-0.910338,3.017022,1,1,1.555977,38.990779,-76.937899,-5.900000,-0.039324,-0.107118,3.602122
2026-09-11T16:31:31.816,1.604177,0.458963,0.197372,4.249657,0.000000,-29.549029,10.165950,0.451758,0.034317,0.072246,0.036754,0.191953,0.020834,0.045360,0.010134,0.073729,0.379517,-2.994559,10.943829,-0.962228,2.818985,1,0,,38.990779,-76.937899,-5.900000,,,
2026-09-11T16:31:31.849,1.637594,0.449341,0.212638,4.160565,0.000000,-24.664233,8.485401,0.444422,0.006415,0.013504,0.038187,0.206891,0.022075,0.056235,0.019248,0.014988,1.170129,1.997615,10.078000,-0.965611,2.947840,1,0,,38.990779,-76.937899,-5.900000,,,
2026-09-11T16:31:31.882,1.671020,0.468976,0.227632,4.342373,0.000000,-21.420519,7.369445,0.465102,0.016096,0.033887,0.038979,0.222066,0.023038,0.042160,0.034946,0.035371,0.689309,-0.036285,8.723996,-1.003976,2.943050,1,0,,38.990779,-76.937899,-5.900000,,,
2026-09-11T16:31:31.917,1.704441,0.507888,0.244903,4.702671,0.000000,-16.786349,5.775120,0.505311,0.007206,0.015171,0.039799,0.238255,0.024066,0.020836,0.040597,0.016654,0.752268,-0.268996,9.905893,-1.039226,2.923780,1,0,,38.990779,-76.937899,-5.900000,,,
2026-09-11T16:31:31.949,1.737869,0.527496,0.262631,4.884223,0.000000,-10.528262,3.622108,0.526442,0.016288,0.034291,0.040625,0.255470,0.025151,0.046725,-0.013602,0.035775,1.188664,1.008418,8.500699,-1.044060,2.986718,1,0,,38.990779,-76.937899,-5.900000,,,
2026-09-11T16:31:31.983,1.771290,0.615394,0.283457,5.698090,0.000000,-10.018084,3.446589,0.614281,0.003619,0.007619,0.041326,0.274502,0.026265,0.069854,-0.047142,0.009103,2.378799,1.194352,9.604535,-0.970033,3.061842,1,0,,38.990779,-76.937899,-5.900000,,,
2026-09-11T16:31:32.017,1.804709,0.683577,0.306152,6.329418,0.000000,-9.937747,3.418949,0.682360,0.013485,0.028390,0.041927,0.296137,0.027453,0.110644,-0.073516,0.029873,3.070756,1.973784,8.576896,-0.848880,3.185612,1,0,,38.990779,-76.937899,-5.900000,,,
2026-09-11T16:31:32.050,1.838133,0.732473,0.330579,6.782161,0.000000,-10.067523,3.463597,0.731135,0.029198,0.061470,0.043429,0.319708,0.029174,0.090275,0.016885,0.062953,1.182976,0.169557,11.975979,-0.846078,3.189619,1,0,,38.990779,-76.937899,-5.900000,,,
2026-09-11T16:31:32.084,1.871555,0.781310,0.356737,7.234355,0.000000,-10.371020,3.568011,0.779796,0.028429,0.059851,0.045457,0.344889,0.031258,0.028700,-0.007366,0.061335,1.708318,1.072357,9.559326,-0.808520,3.251889,1,1,1.867651,38.990777,-76.937900,-5.927000,-0.133528,-0.335438,3.602122
2026-09-11T16:31:32.117,1.904969,0.839680,0.385037,7.774814,0.000000,-10.592120,3.644078,0.837982,0.033773,0.071101,0.047644,0.371839,0.033555,-0.043328,0.014291,0.072585,2.165897,0.943498,9.189910,-0.742248,3.304282,1,0,,38.990777,-76.937900,-5.927000,,,
2026-09-11T16:31:32.150,1.938399,0.908087,0.415206,8.408211,0.000000,-10.634692,3.658724,0.906236,0.028334,0.059652,0.049830,0.400908,0.036014,-0.062588,-0.008018,0.061135,1.850319,-1.504830,9.830186,-0.693219,3.198014,1,0,,38.990777,-76.937900,-5.927000,,,
2026-09-11T16:31:32.183,1.971812,0.937156,0.446286,8.677370,0.000000,-10.634692,3.658724,0.935246,0.030119,0.063408,0.051886,0.431584,0.038553,-0.075634,-0.002826,0.064892,0.887698,-1.620843,9.682204,-0.705603,3.085131,1,0,,38.990777,-76.937900,-5.927000,,,
2026-09-11T16:31:32.216,2.005287,0.947152,0.478140,8.769922,0.000000,-10.567400,3.635574,0.945245,0.026479,0.055746,0.053880,0.462965,0.041163,-0.043383,0.028613,0.057230,-0.430512,1.819624,9.935510,-0.800705,3.196696,1,0,,38.990777,-76.937900,-5.927000,,,
2026-09-11T16:31:32.250,2.038715,0.957254,0.509950,8.863462,0.000000,-10.568087,3.635810,0.955327,0.027376,0.057634,0.055775,0.494634,0.043803,-0.017181,0.013907,0.059117,0.157299,-0.700293,9.098120,-0.853497,3.143631,1,0,,38.990777,-76.937900,-5.927000,,,
2026-09-11T16:31:32.285,2.072130,0.938309,0.541075,8.688045,0.000000,-10.568087,3.635810,0.936420,0.029428,0.061954,0.057773,0.526136,0.046544,0.036473,0.043609,0.063438,0.078355,-0.371966,8.304271,-0.909561,3.112223,1,0,,38.990777,-76.937900,-5.927000,,,
2026-09-11T16:31:32.318,2.105548,0.909600,0.571699,8.422220,0.000000,-11.165469,3.841331,0.907556,0.029526,0.062161,0.059847,0.556835,0.049338,0.064463,0.011548,0.063644,-0.164458,0.876813,10.565096,-0.980676,3.162060,1,0,,38.990777,-76.937900,-5.927000,,,
2026-09-11T16:31:32.352,2.138978,0.939608,0.602825,8.700075,0.000000,-11.244433,3.868498,0.937467,0.032327,0.068057,0.062024,0.587555,0.052248,0.067775,-0.014688,0.069541,0.479545,1.162971,9.808710,-1.009270,3.229406,1,0,,38.990777,-76.937900,-5.927000,,,
2026-09-11T16:31:32.386,2.172402,0.930407,0.633951,8.614884,0.000000,-11.293871,3.885506,0.928269,0.039311,0.082759,0.064544,0.618596,0.055415,0.078043,-0.002812,0.084243,1.666248,1.151301,9.571977,-0.957251,3.294395,1,0,,38.990777,-76.937900,-5.927000,,,
2026-09-11T16:31:32.418,2.205817,0.940342,0.665578,8.706870,0.000000,-11.337817,3.900625,0.938164,0.028958,0.060964,0.066945,0.649638,0.058602,0.052305,-0.011824,0.062448,1.103150,4.450650,10.173125,-0.939546,3.573381,1,0,,38.990777,-76.937900,-5.927000,,,
2026-09-11T16:31:32.452,2.239235,0.970153,0.698025,8.982894,0.000000,-11.350176,3.904877,0.967900,0.037588,0.079132,0.069286,0.681337,0.061879,0.014802,0.047002,0.080615,1.444520,-0.123172,8.559538,-0.898414,3.552104,1,0,,38.990777,-76.937900,-5.927000,,,
2026-09-11T16:31:32.485,2.272654,1.009184,0.731794,9.344296,0.000000,-11.229327,3.863300,1.006891,0.032055,0.067485,0.071736,0.714171,0.065366,-0.080534,-0.000733,0.068968,2.131181,1.406960,10.211273,-0.812957,3.630631,1,0,,38.990777,-76.937900,-5.927000,,,
2026-09-11T16:31:32.519,2.306076,1.077692,0.768023,9.978627,0.000000,-10.875704,3.741641,1.075395,0.023638,0.049763,0.073695,0.748808,0.068823,-0.121684,0.037031,0.051247,1.505909,-2.105292,9.665925,-0.770879,3.481944,1,0,,38.990777,-76.937900,-5.927000,,,
2026-09-11T16:31:32.552,2.339494,1.106872,0.805210,10.248812,0.000000,-10.699923,3.681166,1.104588,0.032712,0.068867,0.075678,0.785061,0.072480,-0.163019,-0.013772,0.070351,1.720086,3.854798,8.023213,-0.720067,3.719108,1,0,,38.990777,-76.937900,-5.927000,,,
2026-09-11T16:31:32.585,2.372914,1.174745,0.844402,10.877266,0.000000,-10.699923,3.681166,1.172321,0.047012,0.098972,0.078482,0.822892,0.076740,-0.086147,-0.050629,0.100456,1.975942,-0.277724,10.082609,-0.657409,3.683662,1,0,,38.990777,-76.937900,-5.927000,,,
2026-09-11T16:31:32.619,2.406333,1.213448,0.885006,11.235626,0.000000,-11.793749,4.057483,1.210406,0.047321,0.099623,0.081801,0.862453,0.081500,-0.011701,-0.018036,0.101106,1.951425,2.774988,11.442694,-0.601816,3.845856,1,0,,38.990777,-76.937900,-5.927000,,,
2026-09-11T16:31:32.652,2.439750,1.252398,0.926796,11.596273,0.000000,-18.677371,6.425701,1.244530,0.073174,0.154051,0.086039,0.903157,0.086945,0.048769,0.028941,0.155534,1.187193,-0.008434,11.178797,-0.603485,3.821535,1,0,,38.990777,-76.937900,-5.927000,,,
2026-09-11T16:31:32.686,2.473165,1.281906,0.969724,11.869496,0.000000,-26.553881,9.135510,1.265645,0.110178,0.231954,0.092488,0.944652,0.093736,0.128611,-0.010485,0.233437,0.854748,2.371052,9.261302,-0.624814,3.944854,1,0,,38.990777,-76.937900,-5.927000,,,
2026-09-11T16:31:32.719,2.506588,1.291832,1.013473,11.961406,0.000000,-37.150195,12.781030,1.259824,0.135209,0.284650,0.101122,0.986261,0.101896,0.144978,-0.000889,0.286134,0.872792,1.610644,8.627793,-0.639108,4.013419,1,0,,38.990777,-76.937900,-5.927000,,,
2026-09-11T16:31:32.753,2.540009,1.311813,1.057587,12.146417,0.000000,-36.487582,12.553067,1.280454,0.147432,0.310382,0.111065,1.027970,0.111089,0.157149,0.022796,0.311866,0.754916,1.172777,10.682384,-0.657099,4.050370,1,0,,38.990777,-76.937900,-5.927000,,,
2026-09-11T16:31:32.786,2.573434,1.312096,1.101199,12.149034,0.000000,-35.988390,12.381327,1.281579,0.131385,0.276600,0.120875,1.069962,0.120672,-0.018765,0.051417,0.278083,0.544759,-0.722554,10.934513,-0.684058,3.967018,1,0,,38.990777,-76.937900,-5.927000,,,
2026-09-11T16:31:32.819,2.606851,1.321993,1.145176,12.240673,0.000000,-26.895144,9.252917,1.304791,0.094031,0.197960,0.128804,1.112373,0.129792,-0.073005,0.042177,0.199443,1.298499,-0.699999,8.602786,-0.653662,3.892295,1,0,,38.990777,-76.937900,-5.927000,,,
2026-09-11T16:31:32.853,2.640264,1.351416,1.190520,12.513109,0.000000,-13.539889,4.658219,1.346952,0.059247,0.124730,0.134195,1.155958,0.138141,-0.092536,0.020684,0.126213,1.635259,-1.956819,9.491464,-0.592227,3.742937,1,0,,38.990777,-76.937900,-5.927000,,,
2026-09-11T16:31:32.887,2.673680,1.400344,1.237368,12.966146,0.000000,-5.390093,1.854390,1.399610,0.006956,0.014645,0.136524,1.201278,0.145431,-0.073098,-0.100357,0.016128,2.467059,-0.144158,7.921616,-0.473467,3.722055,1,0,,38.990777,-76.937900,-5.927000,,,
2026-09-11T16:31:32.920,2.707099,1.459139,1.285948,13.510542,0.000000,2.967756,-1.021017,1.458907,-0.024194,-0.050935,0.135917,1.248639,0.151632,0.007879,-0.057426,-0.049451,-0.326267,-2.636616,13.400493,-0.535122,3.546254,1,0,,38.990777,-76.937900,-5.927000,,,
2026-09-11T16:31:32.953,2.740524,1.411409,1.332978,13.068604,0.000000,4.346540,-1.495369,1.410929,-0.027885,-0.058706,0.134085,1.296282,0.157225,0.110570,-0.005655,-0.057222,0.785415,-0.951441,8.032627,-0.527600,3.481988,1,0,,38.990777,-76.937900,-5.927000,,,
2026-09-11T16:31:32.987,2.773939,1.441111,1.380829,13.343625,0.000000,5.185621,-1.784044,1.440413,-0.038186,-0.080392,0.131761,1.343647,0.162444,0.083129,0.015142,-0.078909,0.430022,-2.594153,11.168402,-0.548550,3.314307,1,0,,38.990777,-76.937900,-5.927000,,,
2026-09-11T16:31:33.020,2.807361,1.460917,1.429408,13.527010,0.000000,5.914152,-2.034685,1.459996,-0.047789,-0.100608,0.128736,1.391891,0.167314,0.122177,-0.050227,-0.099125,1.090107,1.824527,8.424893,-0.532175,3.436392,1,0,,38.990777,-76.937900,-5.927000,,,
2026-09-11T16:31:33.053,2.840772,1.470893,1.478535,13.619383,0.000000,7.647932,-2.631169,1.469343,-0.053962,-0.113605,0.125158,1.440649,0.171823,0.077498,-0.047073,-0.112122,-0.357452,1.110505,9.633857,-0.615181,3.512197,1,0,,38.990777,-76.937900,-5.927000,,,
2026-09-11T16:31:33.087,2.874196,1.432171,1.526522,13.260843,0.000000,11.693647,-4.023044,1.428642,-0.064890,-0.136611,0.120976,1.488957,0.175799,0.003455,-0.060585,-0.135127,0.011866,1.598974,8.710953,-0.675011,3.620632,1,0,,38.990777,-76.937900,-5.927000,,,
2026-09-11T16:31:33.120,2.907619,1.431999,1.574053,13.259252,0.000000,14.531553,-4.999387,1.426551,-0.060984,-0.128388,0.116548,1.536585,0.179363,-0.029258,-0.005770,-0.126904,-1.205728,-2.602979,9.482933,-0.810185,3.455160,1,0,,38.990777,-76.937900,-5.927000,,,
2026-09-11T16:31:33.154,2.941035,1.441799,1.621995,13.349990,0.000000,14.568632,-5.012144,1.436286,-0.061406,-0.129276,0.112242,1.584338,0.182791,-0.109337,-0.041933,-0.127792,2.192571,3.140286,10.645609,-0.720012,3.663310,1,0,,38.990777,-76.937900,-5.927000,,,
2026-09-11T16:31:33.187,2.974447,1.461578,1.670484,13.533134,0.000000,14.618070,-5.029153,1.455952,-0.065396,-0.137676,0.107783,1.632596,0.185990,-0.069866,-0.064956,-0.136193,1.747839,-1.897881,10.060054,-0.660870,3.544151,1,0,,38.990777,-76.937900,-5.927000,,,
2026-09-11T16:31:33.220,3.007863,1.510746,1.721114,13.988387,0.000000,14.414137,-4.958992,1.505091,-0.069130,-0.145537,0.103051,1.682030,0.188958,-0.083636,-0.010446,-0.144053,1.207885,2.181489,10.848411,-0.639221,3.691439,1,0,,38.990777,-76.937900,-5.927000,,,
2026-09-11T16:31:33.253,3.041276,1.559731,1.773203,14.441957,0.000000,13.995969,-4.815127,1.554227,-0.053268,-0.112142,0.098746,1.733088,0.192071,-0.003374,-0.115280,-0.110659,6.375401,2.805192,13.892591,-0.280766,3.874550,1,0,,38.990777,-76.937900,-5.927000,,,
2026-09-11T16:31:33.287,3.074690,1.618168,1.827069,14.983041,0.000000,12.033536,-4.139978,1.613946,-0.050422,-0.106152,0.095099,1.785937,0.195467,-0.023359,0.083928,-0.104668,2.594938,-0.954677,10.555192,-0.167428,3.812179,1,0,,38.990777,-76.937900,-5.927000,,,
2026-09-11T16:31:33.320,3.108110,1.667119,1.883031,15.436283,0.000000,9.609678,-3.306082,1.664344,-0.030574,-0.064366,0.092250,1.840604,0.199242,-0.005160,0.027485,-0.062882,1.465506,0.043934,7.481984,-0.132383,3.810957,1,0,,38.990777,-76.937900,-5.927000,,,
2026-09-11T16:31:33.354,3.141522,1.706166,1.940178,15.797832,0.000000,7.350614,-2.528881,1.704504,-0.013232,-0.027856,0.090709,1.896716,0.203654,-0.055301,0.026125,-0.026373,0.321756,-2.002126,10.285999,-0.177045,3.673518,1,0,,38.990777,-76.937900,-5.927000,,,
2026-09-11T16:31:33.387,3.174933,1.716353,1.998373,15.892161,0.000000,4.251783,-1.462769,1.715794,-0.006795,-0.014304,0.090005,1.953652,0.208477,-0.112702,0.061168,-0.012821,0.441692,-0.588007,9.158823,-0.215229,3.627607,1,1,3.166204,38.990768,-76.937903,-5.846000,-0.408651,-1.369180,4.747506
2026-09-11T16:31:33.420,3.208355,1.755897,2.057024,16.258309,0.000000,3.244474,-1.116218,1.755564,-0.005841,-0.012297,0.089560,2.011447,0.213467,-0.149580,-0.003726,-0.010813,1.550333,1.780299,11.065138,-0.180014,3.735260,1,0,,38.990768,-76.937903,-5.846000,,,
2026-09-11T16:31:33.454,3.241767,1.746612,2.115675,16.172336,0.000000,2.141721,-0.736831,1.746468,0.003396,0.007150,0.089474,2.069721,0.218657,-0.139831,0.012733,0.008633,1.117076,1.818349,10.109578,-0.164569,3.841949,1,0,,38.990768,-76.937903,-5.846000,,,
2026-09-11T16:31:33.487,3.275306,1.766596,2.175056,16.357370,0.000000,-0.658419,0.226520,1.766582,0.016062,0.033814,0.090161,2.128366,0.224266,-0.144986,-0.027713,0.035298,-0.230554,0.949578,10.010138,-0.225680,3.888369,1,0,,38.990768,-76.937903,-5.846000,,,
2026-09-11T16:31:33.521,3.308727,1.757073,2.233616,16.269196,0.000000,-9.194796,3.163347,1.754396,0.047939,0.100924,0.092413,2.186861,0.230695,-0.112781,0.068919,0.102407,1.598190,-0.487979,11.049153,-0.159151,3.833488,1,0,,38.990768,-76.937903,-5.846000,,,
2026-09-11T16:31:33.554,3.342140,1.747246,2.292175,16.178202,0.000000,-13.213046,4.545773,1.741750,0.090744,0.191039,0.097290,2.244785,0.238532,-0.006868,-0.009180,0.192523,1.210729,2.253666,10.014061,-0.110597,3.946540,1,0,,38.990768,-76.937903,-5.846000,,,
2026-09-11T16:31:33.588,3.375551,1.796198,2.352285,16.631460,0.000000,-19.263766,6.627442,1.784195,0.121279,0.255325,0.104747,2.303028,0.247999,-0.020639,-0.033568,0.256809,0.007551,0.396287,11.306577,-0.132381,3.930222,1,0,,38.990768,-76.937903,-5.846000,,,
2026-09-11T16:31:33.621,3.408979,1.796368,2.413123,16.633038,0.000000,-21.905291,7.536224,1.780851,0.130830,0.275431,0.113618,2.361798,0.258679,0.011174,-0.007729,0.276915,-0.431591,2.087051,9.921584,-0.178509,4.021257,1,0,,38.990768,-76.937903,-5.846000,,,
2026-09-11T16:31:33.655,3.442390,1.835652,2.474828,16.996782,0.000000,-22.104418,7.604731,1.819507,0.127497,0.268414,0.122703,2.421016,0.270058,0.051323,0.007010,0.269898,1.642908,3.889121,12.100328,-0.086590,4.227984,1,0,,38.990768,-76.937903,-5.846000,,,
2026-09-11T16:31:33.688,3.475803,1.806647,2.534800,16.728213,0.000000,-21.656039,7.450472,1.791394,0.110701,0.233055,0.131081,2.480352,0.281638,0.033441,0.051073,0.234538,-3.672983,-2.770084,5.957834,-0.338355,4.006132,1,0,,38.990768,-76.937903,-5.846000,,,
2026-09-11T16:31:33.721,3.509223,1.768120,2.593907,16.371484,0.000000,-20.540240,7.066596,1.754689,0.107564,0.226450,0.138759,2.538578,0.293220,0.059449,0.035187,0.227934,-2.302503,-4.683950,9.218938,-0.499216,3.664160,1,0,,38.990768,-76.937903,-5.846000,,,
2026-09-11T16:31:33.755,3.542635,1.729833,2.651692,16.016975,0.000000,-18.869631,6.491846,1.718742,0.076823,0.161732,0.145244,2.595588,0.304480,0.033629,-0.121206,0.163215,0.988903,0.998023,5.900956,-0.446671,3.701388,1,0,,38.990768,-76.937903,-5.846000,,,
2026-09-11T16:31:33.788,3.576058,1.740286,2.710070,16.113762,0.000000,-15.337527,5.276672,1.732911,0.062566,0.131718,0.150148,2.652299,0.315273,0.053304,-0.059584,0.133202,0.505042,0.410016,10.700232,-0.430766,3.703380,1,0,,38.990768,-76.937903,-5.846000,,,
2026-09-11T16:31:33.822,3.609485,1.711657,2.767581,15.848673,0.000000,-12.064974,4.150794,1.707167,0.062612,0.131814,0.154553,2.708813,0.326066,0.043834,0.007248,0.133297,-0.468268,2.724680,13.437955,-0.481165,3.855378,1,0,,38.990768,-76.937903,-5.846000,,,
2026-09-11T16:31:33.855,3.642917,1.702484,2.824774,15.763742,0.000000,-11.403048,3.923067,1.698495,0.046125,0.097106,0.158379,2.764762,0.336732,0.009773,-0.003776,0.098589,0.520341,0.389716,10.471737,-0.470774,3.858449,1,0,,38.990768,-76.937903,-5.846000,,,
2026-09-11T16:31:33.888,3.676329,1.702748,2.881283,15.766181,0.000000,-11.177828,3.845583,1.698914,0.050880,0.107116,0.161791,2.820535,0.347379,-0.055457,-0.069200,0.108599,-0.009218,0.777962,8.435877,-0.498788,3.885500,1,0,,38.990768,-76.937903,-5.846000,,,
2026-09-11T16:31:33.922,3.709750,1.702906,2.938111,15.767650,0.000000,-11.173708,3.844166,1.699075,0.053465,0.112558,0.165462,2.876276,0.358349,-0.040710,0.042993,0.114041,0.776589,-1.201217,12.510344,-0.482534,3.783574,1,0,,38.990768,-76.937903,-5.846000,,,
2026-09-11T16:31:33.956,3.743163,1.712463,2.995441,15.856136,0.000000,-11.293871,3.885506,1.708527,0.058554,0.123271,0.169402,2.932095,0.369682,0.016571,-0.058161,0.124755,0.037265,-0.484841,11.262742,-0.524816,3.727902,1,0,,38.990768,-76.937903,-5.846000,,,
2026-09-11T16:31:33.989,3.776575,1.722621,3.052543,15.950193,0.000000,-11.242373,3.867789,1.718697,0.067773,0.142680,0.173845,2.988149,0.381540,-0.013912,0.012108,0.144163,0.453361,-0.833271,9.255320,-0.550686,3.648066,1,0,,38.990768,-76.937903,-5.846000,,,
2026-09-11T16:31:34.023,3.809999,1.742339,3.110738,16.132772,0.000000,-11.609728,3.994173,1.738107,0.071892,0.151351,0.178759,3.044613,0.393971,0.031388,-0.004081,0.152835,0.943988,1.993300,9.026531,-0.555337,3.750861,1,0,,38.990768,-76.937903,-5.846000,,,
2026-09-11T16:31:34.057,3.843413,1.771887,3.170619,16.406365,0.000000,-11.717532,4.031261,1.767504,0.078337,0.164921,0.184043,3.101768,0.407007,0.030724,0.012356,0.166404,2.140301,0.804636,10.682678,-0.491434,3.773745,1,1,3.849256,38.990754,-76.937909,-5.929000,-0.921877,-2.955191,4.548422
2026-09-11T16:31:34.089,3.876824,1.820689,3.230501,16.858229,0.000000,-11.666720,4.013780,1.816223,0.079546,0.167465,0.189595,3.160104,0.420720,0.012894,0.034253,0.168948,2.468824,1.971627,11.085633,-0.411743,3.871053,1,0,,38.990754,-76.937909,-5.929000,,,
2026-09-11T16:31:34.123,3.910245,1.869664,3.293572,17.311706,0.000000,-11.819155,4.066223,1.864958,0.080314,0.169082,0.195219,3.219971,0.435107,-0.026200,0.039304,0.170565,2.149814,-2.160209,11.044936,-0.353489,3.699203,1,0,,38.990754,-76.937909,-5.929000,,,
2026-09-11T16:31:34.156,3.943680,1.918709,3.357145,17.765828,0.000000,-11.914599,4.099059,1.913801,0.083576,0.175950,0.200987,3.281366,0.450228,0.030089,-0.023650,0.177433,3.467631,3.455765,9.645135,-0.206794,3.891381,1,0,,38.990754,-76.937909,-5.929000,,,
2026-09-11T16:31:34.189,3.977092,1.987314,3.423179,18.401059,0.000000,-11.865160,4.082051,1.982273,0.085654,0.180325,0.206939,3.344531,0.466184,-0.045601,0.066259,0.181808,2.090189,0.971741,8.175608,-0.146118,3.919252,1,0,,38.990754,-76.937909,-5.929000,,,
2026-09-11T16:31:34.224,4.010512,2.016767,3.491765,18.673771,0.000000,-11.674273,4.016378,2.011814,0.082743,0.174196,0.212863,3.409221,0.482844,-0.027194,0.071132,0.175680,1.300460,-0.242715,8.363602,-0.134857,3.868681,1,0,,38.990754,-76.937909,-5.929000,,,
2026-09-11T16:31:34.256,4.043930,2.085113,3.561125,19.306604,0.000000,-11.821215,4.066932,2.079863,0.077721,0.163623,0.218508,3.475430,0.500098,-0.016984,-0.050437,0.165106,2.441267,0.936339,8.258180,-0.045573,3.895626,1,0,,38.990754,-76.937909,-5.929000,,,
2026-09-11T16:31:34.289,4.077340,2.162966,3.633675,20.027465,0.000000,-11.798556,4.059136,2.157540,0.081469,0.171513,0.224106,3.543905,0.518234,0.016337,-0.026774,0.172996,2.771163,-0.604482,10.468305,0.068993,3.820661,1,0,,38.990754,-76.937909,-5.929000,,,
2026-09-11T16:31:34.324,4.110755,2.211479,3.708732,20.476655,0.000000,-11.490939,3.953305,2.206217,0.086807,0.182751,0.230025,3.614307,0.537388,0.044997,-0.043756,0.184235,0.949676,-0.732165,15.322891,0.066789,3.736110,1,0,,38.990754,-76.937909,-5.929000,,,
2026-09-11T16:31:34.357,4.144178,2.202194,3.782331,20.390681,0.000000,-11.519091,3.962990,2.196928,0.083817,0.176457,0.236028,3.685242,0.557154,0.027671,0.034924,0.177940,-0.491019,-0.107383,5.678050,-0.027579,3.693917,1,0,,38.990754,-76.937909,-5.929000,,,
2026-09-11T16:31:34.390,4.177592,2.202356,3.855109,20.392185,0.000000,-11.352236,3.905586,2.197241,0.075008,0.157911,0.241614,3.755944,0.577099,0.012733,0.069468,0.159395,-0.563686,0.291846,9.156469,-0.121858,3.680665,1,0,,38.990754,-76.937909,-5.929000,,,
2026-09-11T16:31:34.423,4.211010,2.144406,3.926293,19.855610,0.000000,-10.919650,3.756760,2.139798,0.060752,0.127899,0.246390,3.825718,0.596805,-0.091969,0.146487,0.129383,0.147394,2.488045,9.855978,-0.156479,3.814411,1,0,,38.990754,-76.937909,-5.929000,,,
2026-09-11T16:31:34.457,4.244429,2.135061,3.997567,19.769083,0.000000,-9.465334,3.256422,2.131613,0.050351,0.106003,0.250298,3.894447,0.616148,-0.117055,0.052392,0.107486,-1.223968,-1.948091,7.271337,-0.265061,3.662705,1,0,,38.990754,-76.937909,-5.929000,,,
2026-09-11T16:31:34.490,4.277838,2.125778,4.068249,19.683128,0.000000,-8.665392,2.981213,2.122901,0.042865,0.090243,0.253577,3.962885,0.635372,-0.142811,-0.083778,0.091726,0.089339,-1.270746,9.995722,-0.277935,3.558772,1,0,,38.990754,-76.937909,-5.929000,,,
2026-09-11T16:31:34.524,4.311259,2.097057,4.138749,19.417194,0.000000,-8.302844,2.856483,2.094451,0.036501,0.076845,0.256369,4.030744,0.654429,-0.115526,-0.012668,0.078328,0.208489,-0.180540,9.886182,-0.270072,3.528485,1,0,,38.990754,-76.937909,-5.929000,,,
2026-09-11T16:31:34.557,4.344683,2.097528,4.209841,19.421557,0.000000,-7.806399,2.685688,2.095224,0.023689,0.049871,0.258486,4.098199,0.673228,-0.148666,0.006941,0.051355,1.883759,-0.688525,10.419272,-0.139774,3.469310,1,0,,38.990754,-76.937909,-5.929000,,,
2026-09-11T16:31:34.590,4.378103,2.136967,4.280386,19.786731,0.000000,-5.655825,1.945811,2.135735,0.020553,0.043270,0.260043,4.166347,0.692069,-0.231266,-0.046118,0.044753,1.566612,1.123058,9.818418,-0.026155,3.528801,1,0,,38.990754,-76.937909,-5.929000,,,
2026-09-11T16:31:34.624,4.411529,2.175856,4.353438,20.146813,0.000000,-0.957110,0.329281,2.175820,-0.010017,-0.021087,0.260413,4.235934,0.710780,-0.363733,-0.078231,-0.019604,0.017162,-0.167596,9.998076,-0.012355,3.513065,1,0,,38.990754,-76.937909,-5.929000,,,
2026-09-11T16:31:34.657,4.444948,2.175777,4.426171,20.146079,0.000000,1.781919,-0.613046,2.175652,-0.029719,-0.062565,0.259016,4.306377,0.728810,-0.337619,-0.066313,-0.061082,-0.557410,-0.373339,15.113323,-0.035663,3.490032,1,0,,38.990754,-76.937909,-5.929000,,,
2026-09-11T16:31:34.690,4.478360,2.098340,4.495349,19.429070,0.000000,2.259138,-0.777226,2.098147,-0.014501,-0.030528,0.257460,4.375597,0.746331,-0.211923,0.370494,-0.029044,-4.219311,2.308289,-4.333657,-0.296275,3.636080,1,0,,38.990754,-76.937909,-5.929000,,,
2026-09-11T16:31:34.724,4.511785,2.050270,4.565074,18.983983,0.000000,0.417554,-0.143654,2.050264,-0.012847,-0.027045,0.256498,4.442767,0.763510,-0.245654,0.164209,-0.025562,2.833337,-10.107714,7.371659,-0.095665,2.976497,1,0,,38.990754,-76.937909,-5.929000,,,
2026-09-11T16:31:34.757,4.545209,2.050658,4.634252,18.987574,0.000000,-7.219317,2.483710,2.048732,0.056780,0.119537,0.258044,4.508826,0.781650,-0.085002,0.107723,0.121020,-1.563376,2.381153,7.952801,-0.183480,3.112993,1,0,,38.990754,-76.937909,-5.929000,,,
2026-09-11T16:31:34.791,4.578638,2.002413,4.700878,18.540858,0.000000,-12.932894,4.449390,1.996378,0.068723,0.144680,0.262460,4.573623,0.801073,0.083243,0.022375,0.146164,-1.915141,3.333673,8.682416,-0.292800,3.306812,1,0,,38.990754,-76.937909,-5.929000,,,
2026-09-11T16:31:34.824,4.612058,1.974106,4.767185,18.278757,0.000000,-21.768649,7.489214,1.957266,0.133628,0.281322,0.269578,4.636470,0.821700,0.197778,0.101348,0.282806,1.276237,0.693919,6.104934,-0.191230,3.310685,1,0,,38.990754,-76.937909,-5.929000,,,
2026-09-11T16:31:34.858,4.645477,1.974721,4.833037,18.284457,0.000000,-24.359362,8.380514,1.953635,0.155401,0.327161,0.279746,4.698058,0.844072,0.273845,0.047595,0.328644,-0.408839,1.009202,6.559864,-0.199123,3.329188,1,0,,38.990754,-76.937909,-5.929000,,,
2026-09-11T16:31:34.891,4.678889,1.946199,4.897840,18.020357,0.000000,-26.648638,9.168109,1.921336,0.158451,0.333580,0.290785,4.758702,0.867317,0.260698,0.038254,0.335064,-1.778632,0.969682,7.488750,-0.301165,3.344810,1,0,,38.990754,-76.937909,-5.929000,,,
2026-09-11T16:31:34.924,4.712309,1.917472,4.962096,17.754371,0.000000,-26.740649,9.199764,1.892807,0.163018,0.343196,0.302093,4.818086,0.891069,0.269745,0.048544,0.344679,-0.615367,0.353628,8.312999,-0.337445,3.319840,1,0,,38.990754,-76.937909,-5.929000,,,
2026-09-11T16:31:34.958,4.745730,1.888753,5.025897,17.488454,0.000000,-26.652071,9.169291,1.864618,0.144231,0.303644,0.312902,4.876376,0.914965,0.116753,0.053219,0.305128,0.877793,1.670857,9.797432,-0.288544,3.385777,1,0,,38.990754,-76.937909,-5.929000,,,
2026-09-11T16:31:34.991,4.779142,1.869219,5.088285,17.307580,0.000000,-25.414050,8.743366,1.847497,0.144573,0.304364,0.323060,4.933774,0.938935,0.045625,0.048674,0.305848,-0.918197,0.023536,8.910617,-0.369120,3.344651,1,0,,38.990754,-76.937909,-5.929000,,,
2026-09-11T16:31:35.025,4.812565,1.869563,5.150490,17.310768,0.000000,-23.170779,7.971598,1.851497,0.124857,0.262858,0.332539,4.990849,0.963100,-0.101946,0.043575,0.264341,0.352255,1.815309,8.095096,-0.380892,3.424809,1,0,,38.990754,-76.937909,-5.929000,,,
2026-09-11T16:31:35.058,4.845989,1.831165,5.211785,16.955227,0.000000,-22.109911,7.606621,1.815051,0.134188,0.282502,0.341653,5.047243,0.987449,-0.214120,-0.084744,0.283985,3.164018,-5.556056,7.164346,-0.226707,3.025377,1,1,4.842598,38.990736,-76.937913,-6.067000,-1.236611,-4.924453,3.689895
2026-09-11T16:31:35.091,4.879406,1.860658,5.273808,17.228313,0.000000,-21.428759,7.372280,1.845276,0.111691,0.235139,0.350302,5.103385,1.012056,-0.194618,0.009809,0.236622,1.287123,2.186981,12.552904,-0.206875,3.136516,1,0,,38.990736,-76.937913,-6.067000,,,
2026-09-11T16:31:35.125,4.912831,1.899798,5.336971,17.590722,0.000000,-21.273577,7.318891,1.884319,0.107067,0.225405,0.357999,5.160579,1.037104,-0.003878,0.022405,0.226889,2.862169,7.938091,10.475660,-0.093974,3.619241,1,0,,38.990736,-76.937913,-6.067000,,,
2026-09-11T16:31:35.159,4.946254,1.987461,5.404144,18.402414,0.000000,-20.889742,7.186838,1.971846,0.127374,0.268156,0.366247,5.219451,1.063602,-0.036219,0.168701,0.269640,-1.970156,3.757222,20.656336,-0.304162,3.819316,1,0,,38.990736,-76.937913,-6.067000,,,
2026-09-11T16:31:35.192,4.979668,1.988203,5.470542,18.409284,0.000000,-21.638873,7.444566,1.971443,0.121578,0.255953,0.375003,5.279351,1.091341,-0.041599,0.097217,0.257437,-0.841705,-4.953731,3.256887,-0.442608,3.455100,1,0,,38.990736,-76.937913,-6.067000,,,
2026-09-11T16:31:35.225,5.013092,2.046982,5.539310,18.953537,0.000000,-21.269457,7.317474,2.030311,0.118783,0.250069,0.383460,5.339987,1.119834,-0.027425,0.045024,0.251552,2.243762,-1.722440,9.437528,-0.381139,3.303738,1,0,,38.990736,-76.937913,-6.067000,,,
2026-09-11T16:31:35.259,5.046512,2.134858,5.610630,19.767207,0.000000,-20.429690,7.028563,2.118815,0.120384,0.253440,0.391873,5.402660,1.149749,0.009768,-0.024779,0.254924,3.846757,1.320465,6.744524,-0.214845,3.349068,1,0,,38.990736,-76.937913,-6.067000,,,
2026-09-11T16:31:35.292,5.079925,2.213000,5.684912,20.490740,0.000000,-19.417574,6.680358,2.197975,0.116234,0.244703,0.400196,5.467669,1.181221,0.004668,-0.039295,0.246186,3.064578,-0.594381,9.238453,-0.101059,3.269956,1,0,,38.990736,-76.937913,-6.067000,,,
2026-09-11T16:31:35.326,5.113344,2.290799,5.761883,21.211103,0.000000,-17.545092,6.036156,2.278098,0.108946,0.229360,0.408117,5.534955,1.214098,0.085629,-0.013574,0.230844,1.154341,0.409918,8.920717,-0.114152,3.257681,1,0,,38.990736,-76.937913,-6.067000,,,
2026-09-11T16:31:35.359,5.146769,2.339482,5.840449,21.661871,0.000000,-16.632540,5.722204,2.327824,0.104004,0.218957,0.415610,5.604069,1.248177,0.159311,0.023756,0.220440,1.155420,1.462564,9.527847,-0.122672,3.314491,1,0,,38.990736,-76.937913,-6.067000,,,
2026-09-11T16:31:35.392,5.180182,2.388640,5.919653,22.117034,0.000000,-16.583102,5.705196,2.376808,0.110852,0.233373,0.423166,5.674392,1.283463,0.140907,-0.077501,0.234857,0.418352,0.916628,10.722395,-0.170714,3.332424,1,0,,38.990736,-76.937913,-6.067000,,,
2026-09-11T16:31:35.426,5.213607,2.417992,6.001136,22.388813,0.000000,-16.500704,5.676848,2.406133,0.114835,0.241757,0.431107,5.745580,1.320011,0.135183,-0.062000,0.243241,-1.252211,2.110293,10.103105,-0.320819,3.425662,1,0,,38.990736,-76.937913,-6.067000,,,
2026-09-11T16:31:35.459,5.247031,2.389101,6.081342,22.121305,0.000000,-16.573489,5.701888,2.377280,0.108040,0.227453,0.438948,5.816506,1.357077,0.079882,-0.093361,0.228937,-0.458069,1.634180,6.521815,-0.412128,3.489709,1,0,,38.990736,-76.937913,-6.067000,,,
2026-09-11T16:31:35.492,5.280444,2.389628,6.160911,22.126181,0.000000,-14.011614,4.820510,2.381175,0.095548,0.201154,0.446109,5.886890,1.394194,0.075772,-0.105557,0.202638,0.547505,-0.210745,15.803711,-0.426071,3.437664,1,0,,38.990736,-76.937913,-6.067000,,,
2026-09-11T16:31:35.526,5.313865,2.341572,6.240115,21.681222,0.000000,-10.561221,3.633447,2.336865,0.076651,0.161370,0.452167,5.956662,1.431016,0.030595,-0.021901,0.162854,-0.537895,0.132782,11.534092,-0.495578,3.415006,1,0,,38.990736,-76.937913,-6.067000,,,
2026-09-11T16:31:35.560,5.347288,2.352025,6.318362,21.778009,0.000000,-8.327563,2.864987,2.349085,0.044714,0.094136,0.456437,6.026139,1.467204,-0.057585,-0.031815,0.095619,1.269275,-1.678800,7.026857,-0.428037,3.285462,1,0,,38.990736,-76.937913,-6.067000,,,
2026-09-11T16:31:35.593,5.380699,2.361853,6.396882,21.869006,0.000000,-2.501376,0.860565,2.361586,0.013651,0.028739,0.458490,6.096312,1.502837,-0.194765,-0.119871,0.030223,0.494647,-1.829921,12.205357,-0.394317,3.157538,1,0,,38.990736,-76.937913,-6.067000,,,
2026-09-11T16:31:35.626,5.414126,2.351944,6.475311,21.777261,0.000000,5.292051,-1.820660,2.350757,-0.042623,-0.089733,0.457470,6.167169,1.537225,-0.318569,-0.049929,-0.088249,0.706177,-1.919063,6.121115,-0.336294,3.043248,1,0,,38.990736,-76.937913,-6.067000,,,
2026-09-11T16:31:35.660,5.447546,2.371970,6.554561,21.962682,0.000000,14.583051,-5.017105,2.362882,-0.085622,-0.180257,0.452959,6.238852,1.569928,-0.430513,0.034172,-0.178773,-3.702109,-1.099522,2.573559,-0.557079,2.997186,1,0,,38.990736,-76.937913,-6.067000,,,
2026-09-11T16:31:35.693,5.480958,2.362629,6.633309,21.876193,0.000000,15.939176,-5.483662,2.351816,-0.121286,-0.255340,0.445682,6.311297,1.601025,-0.429112,-0.045322,-0.253856,0.143471,-1.770100,10.980114,-0.523683,2.919561,1,0,,38.990736,-76.937913,-6.067000,,,
2026-09-11T16:31:35.727,5.514369,2.343468,6.711465,21.698781,0.000000,15.948103,-5.486733,2.332731,-0.127392,-0.268195,0.436936,6.383830,1.630695,-0.311999,-0.069158,-0.266711,-0.948205,-0.067077,9.502154,-0.558797,2.954583,1,0,,38.990736,-76.937913,-6.067000,,,
2026-09-11T16:31:35.760,5.547790,2.334282,6.789848,21.613723,0.000000,15.009458,-5.163804,2.324808,-0.110225,-0.232053,0.428576,6.456151,1.659731,-0.260393,-0.053483,-0.230569,0.420999,-1.477764,12.119451,-0.506617,2.892374,1,0,,38.990736,-76.937913,-6.067000,,,
2026-09-11T16:31:35.793,5.581210,2.276568,6.865680,21.079329,0.000000,5.564649,-1.914443,2.275297,-0.049044,-0.103251,0.422973,6.527257,1.689059,-0.123338,-0.059074,-0.101767,-0.877695,2.434697,7.528173,-0.542618,3.064301,1,0,,38.990736,-76.937913,-6.067000,,,
2026-09-11T16:31:35.826,5.614621,2.189701,6.939279,20.275005,0.000000,-10.800860,3.715892,2.185097,0.045389,0.095555,0.422845,6.595230,1.719585,0.111337,-0.008808,0.097039,-0.548878,-0.495236,13.410496,-0.558253,3.016048,1,0,,38.990736,-76.937913,-6.067000,,,
2026-09-11T16:31:35.860,5.648043,2.160889,7.011100,20.008231,0.000000,-22.883074,7.872617,2.140523,0.119704,0.252008,0.428653,6.659920,1.751948,0.321699,-0.003147,0.253492,-0.559175,3.147444,8.276322,-0.579147,3.182627,1,0,,38.990736,-76.937913,-6.067000,,,
2026-09-11T16:31:35.894,5.681454,2.161334,7.083377,20.012355,0.000000,-34.926150,12.015877,2.113979,0.198566,0.418034,0.439846,6.722154,1.786668,0.398569,-0.058272,0.419517,-0.935947,0.990276,8.615044,-0.626779,3.185498,1,0,,38.990736,-76.937913,-6.067000,,,
2026-09-11T16:31:35.927,5.714875,2.161241,7.155973,20.011495,0.000000,-37.051318,12.747013,2.107975,0.228658,0.481385,0.454876,6.782668,1.823620,0.438937,-0.029910,0.482869,-1.022834,2.043216,9.504507,-0.680044,3.247991,1,0,,38.990736,-76.937913,-6.067000,,,
2026-09-11T16:31:35.960,5.748297,2.122390,7.226108,19.651759,0.000000,-36.951067,12.712523,2.070363,0.237268,0.499511,0.471267,6.841660,1.861770,0.314330,-0.045910,0.500995,-0.204861,-4.725825,13.103940,-0.681633,2.870532,1,0,,38.990736,-76.937913,-6.067000,,,
2026-09-11T16:31:35.994,5.781706,2.083830,7.295605,19.294723,0.000000,-32.507098,11.183635,2.044259,0.189519,0.398988,0.486277,6.899385,1.899761,0.113847,-0.097278,0.400471,-1.568279,-7.453544,9.196775,-0.774159,2.335096,1,0,,38.990736,-76.937913,-6.067000,,,
2026-09-11T16:31:36.027,5.815174,2.074365,7.365513,19.207082,0.000000,-22.019274,7.575438,2.056260,0.142487,0.299972,0.497973,6.957239,1.937083,0.058747,0.022499,0.301455,0.282137,-2.557869,9.935706,-0.752212,2.134754,1,0,,38.990736,-76.937913,-6.067000,,,
2026-09-11T16:31:36.061,5.848601,2.074727,7.435329,19.210436,0.000000,-14.166110,4.873662,2.067226,0.090054,0.189587,0.506155,7.015783,1.973657,-0.206085,0.067386,0.191070,1.610938,-3.024763,7.480317,-0.654773,1.921207,1,1,5.835531,38.990717,-76.937913,-6.121000,-1.237331,-7.083487,6.842040
2026-09-11T16:31:36.094,5.882012,2.104079,7.505464,19.482214,0.000000,-8.418887,2.896406,2.101391,0.042928,0.090375,0.510832,7.075530,2.009504,-0.244087,-0.001896,0.091859,2.169623,-3.932859,10.390342,-0.530549,1.664432,1,0,,38.990717,-76.937913,-6.121000,,,
2026-09-11T16:31:36.128,5.915423,2.143843,7.576647,19.850398,0.000000,-5.637972,1.939669,2.142615,0.032278,0.067954,0.513477,7.136717,2.045345,-0.313854,0.009084,0.069438,0.899662,-2.547768,8.880804,-0.494258,1.502961,1,0,,38.990717,-76.937913,-6.121000,,,
2026-09-11T16:31:36.161,5.948845,2.144326,7.648286,19.854868,0.000000,-5.926363,2.038887,2.142968,0.025462,0.053605,0.515508,7.198586,2.081427,-0.223912,-0.017231,0.055088,-0.188484,-2.212773,12.046293,-0.530860,1.366894,1,0,,38.990717,-76.937913,-6.121000,,,
2026-09-11T16:31:36.194,5.982257,2.154553,7.719925,19.949569,0.000000,-8.512270,2.928533,2.151740,0.038850,0.081790,0.517770,7.260438,2.117801,-0.136928,0.024479,0.083273,1.122960,-1.588873,11.800734,-0.483241,1.268784,1,0,,38.990717,-76.937913,-6.121000,,,
2026-09-11T16:31:36.228,6.015667,2.145416,7.791564,19.864965,0.000000,-9.945300,3.421548,2.141592,0.062045,0.130620,0.521319,7.321857,2.154871,-0.114199,0.068592,0.132104,0.143471,0.089731,9.636799,-0.501451,1.273667,1,0,,38.990717,-76.937913,-6.121000,,,
2026-09-11T16:31:36.261,6.049088,2.174222,7.864343,20.131688,0.000000,-13.457491,4.629871,2.167128,0.098491,0.207349,0.526966,7.382848,2.193228,-0.044734,-0.013444,0.208833,0.869261,1.006260,8.258670,-0.472046,1.326844,1,0,,38.990717,-76.937913,-6.121000,,,
2026-09-11T16:31:36.295,6.082496,2.193644,7.937577,20.311520,0.000000,-17.396777,5.985130,2.181687,0.131525,0.276895,0.535055,7.443539,2.233328,0.029309,-0.005938,0.278378,-0.565451,1.374990,10.739361,-0.534342,1.393256,1,0,,38.990717,-76.937913,-6.121000,,,
2026-09-11T16:31:36.328,6.115907,2.203885,8.011358,20.406346,0.000000,-20.952914,7.208571,2.186466,0.141004,0.296850,0.544640,7.503791,2.274740,0.101574,-0.018017,0.298334,-1.271726,-0.128369,8.917873,-0.638629,1.358752,1,0,,38.990717,-76.937913,-6.121000,,,
2026-09-11T16:31:36.361,6.149327,2.194420,8.084501,20.318706,0.000000,-22.372210,7.696861,2.174650,0.157085,0.330706,0.555126,7.563318,2.317068,0.129349,-0.005518,0.332190,1.240835,0.088064,10.977760,-0.573231,1.334091,1,0,,38.990717,-76.937913,-6.121000,,,
2026-09-11T16:31:36.395,6.182735,2.204329,8.158099,20.410453,0.000000,-22.983325,7.907107,2.183371,0.165150,0.347683,0.566458,7.622099,2.360343,0.112397,-0.035376,0.349167,0.547407,-1.432555,9.563838,-0.548908,1.208737,1,0,,38.990717,-76.937913,-6.121000,,,
2026-09-11T16:31:36.428,6.216148,2.195143,8.231743,20.325395,0.000000,-23.027270,7.922226,2.174192,0.152563,0.321186,0.577632,7.680436,2.404215,0.114840,-0.026551,0.322669,0.551918,1.685665,15.281016,-0.523995,1.290476,1,0,,38.990717,-76.937913,-6.121000,,,
2026-09-11T16:31:36.462,6.249568,2.176222,8.304248,20.150203,0.000000,-22.696993,7.808599,2.156043,0.147889,0.311344,0.588202,7.738083,2.448236,0.097740,0.032154,0.312828,-0.525048,-2.306622,9.390946,-0.571077,1.114662,1,0,,38.990717,-76.937913,-6.121000,,,
2026-09-11T16:31:36.495,6.282980,2.157418,8.375933,19.976090,0.000000,-20.983126,7.218965,2.140316,0.121184,0.255125,0.597666,7.795095,2.492071,0.005154,-0.034213,0.256608,0.188288,-0.289394,8.419205,-0.572400,1.079483,1,0,,38.990717,-76.937913,-6.121000,,,
2026-09-11T16:31:36.528,6.316388,2.148257,8.447754,19.891269,0.000000,-18.470690,6.354595,2.135058,0.103151,0.217161,0.605555,7.851852,2.535579,0.009964,-0.050769,0.218644,0.136901,1.122273,10.664242,-0.575750,1.141376,1,0,,38.990717,-76.937913,-6.121000,,,
2026-09-11T16:31:36.562,6.349808,2.148416,8.519575,19.892737,0.000000,-14.187396,4.880985,2.140625,0.086362,0.181816,0.612222,7.908648,2.579042,-0.044688,-0.040409,0.183299,1.142181,0.993806,12.372070,-0.514738,1.199108,1,0,,38.990717,-76.937913,-6.121000,,,
2026-09-11T16:31:36.596,6.383233,2.138717,8.591032,19.802932,0.000000,-11.696246,4.023938,2.133444,0.085041,0.179034,0.618252,7.965327,2.622607,-0.100248,-0.068558,0.180518,1.366753,-2.625142,12.801503,-0.441635,1.022387,1,0,,38.990717,-76.937913,-6.121000,,,
2026-09-11T16:31:36.629,6.416649,2.129178,8.662033,19.714608,0.000000,-11.710665,4.028899,2.123916,0.089309,0.188019,0.624385,8.021470,2.666382,-0.045823,-0.022556,0.189503,-0.144942,0.729026,7.028034,-0.466097,1.063640,1,0,,38.990717,-76.937913,-6.121000,,,
2026-09-11T16:31:36.662,6.450067,2.110227,8.732351,19.539136,0.000000,-12.001116,4.128824,2.104750,0.074195,0.156200,0.630136,8.077073,2.710063,-0.153548,-0.157139,0.157684,-1.661050,-2.991911,14.097942,-0.587673,0.868146,1,0,,38.990717,-76.937913,-6.121000,,,
2026-09-11T16:31:36.696,6.483487,2.130131,8.803443,19.723437,0.000000,-12.308733,4.234656,2.124316,0.087934,0.185123,0.635840,8.132447,2.754052,-0.013599,-0.066213,0.186607,3.313177,-1.816584,20.361842,-0.388184,0.746699,1,0,,38.990717,-76.937913,-6.121000,,,
2026-09-11T16:31:36.729,6.516904,2.140248,8.875401,19.817107,0.000000,-12.042315,4.142998,2.134655,0.089607,0.188647,0.642085,8.187799,2.798871,0.033824,-0.029275,0.190130,1.483550,0.301064,13.480810,-0.312429,0.763090,1,0,,38.990717,-76.937913,-6.121000,,,
2026-09-11T16:31:36.763,6.550320,2.160218,8.947450,20.002014,0.000000,-12.480395,4.293714,2.154155,0.085681,0.180382,0.648251,8.243291,2.844302,-0.027454,-0.038001,0.181865,1.835903,-0.649298,13.558282,-0.217387,0.718690,1,0,,38.990717,-76.937913,-6.121000,,,
2026-09-11T16:31:36.796,6.583738,2.160857,9.019773,20.007933,0.000000,-12.410357,4.269618,2.154860,0.093938,0.197763,0.654569,8.298726,2.890341,0.001585,-0.014378,0.199247,0.390305,-0.355099,10.324441,-0.221576,0.691392,1,0,,38.990717,-76.937913,-6.121000,,,
2026-09-11T16:31:36.829,6.617156,2.190965,9.092597,20.286710,0.000000,-12.369845,4.255681,2.184924,0.097903,0.206111,0.661318,8.354142,2.937220,-0.004362,-0.048687,0.207594,-0.336172,0.640178,9.059187,-0.281444,0.727268,1,0,,38.990717,-76.937913,-6.121000,,,
2026-09-11T16:31:36.863,6.650576,2.181600,9.165876,20.200002,0.000000,-12.589571,4.331275,2.175370,0.099102,0.208636,0.668248,8.409456,2.984758,0.001165,-0.019595,0.210119,-0.381283,0.628704,8.999857,-0.351405,0.761777,1,0,,38.990717,-76.937913,-6.121000,,,
2026-09-11T16:31:36.896,6.683997,2.171976,9.238335,20.110893,0.000000,-13.449252,4.627036,2.164898,0.104848,0.220732,0.675423,8.464100,3.032566,-0.012867,-0.020522,0.222215,0.064920,0.982038,10.536853,-0.398589,0.817225,1,0,,38.990717,-76.937913,-6.121000,,,
2026-09-11T16:31:36.930,6.717414,2.172253,9.310704,20.113458,0.000000,-14.891207,5.123122,2.163576,0.110670,0.232990,0.683004,8.518109,3.080799,-0.019843,0.018026,0.234473,-0.248304,-1.340177,7.717441,-0.469882,0.720020,1,0,,38.990717,-76.937913,-6.121000,,,
2026-09-11T16:31:36.963,6.750833,2.182346,9.383755,20.206910,0.000000,-16.272051,5.598183,2.171938,0.123031,0.259014,0.691225,8.571636,3.129770,0.028704,-0.009710,0.260497,0.600265,0.627331,8.867663,-0.486599,0.747481,1,0,,38.990717,-76.937913,-6.121000,,,
2026-09-11T16:31:36.997,6.784257,2.192170,9.457035,20.297869,0.000000,-19.143603,6.586102,2.177703,0.155735,0.327863,0.701033,8.624424,3.179956,0.135452,0.086587,0.329346,4.520866,-6.576732,6.279786,-0.250571,0.298283,1,0,,38.990717,-76.937913,-6.121000,,,
2026-09-11T16:31:37.030,6.817673,2.211726,9.531272,20.478946,0.000000,-21.999362,7.568588,2.192457,0.142346,0.299675,0.711518,8.676741,3.231134,-0.002374,0.108743,0.301159,3.488814,4.051323,10.985410,-0.086757,0.546013,1,0,,38.990717,-76.937913,-6.121000,,,
2026-09-11T16:31:37.064,6.851093,2.270421,9.607103,21.022414,0.000000,-22.613223,7.779778,2.249523,0.154201,0.324634,0.721950,8.729443,3.283633,0.007640,-0.081438,0.326118,2.354086,-1.780888,13.464923,-0.000610,0.408600,1,1,6.841233,38.990698,-76.937908,-6.176000,-0.822487,-9.160794,6.954049
2026-09-11T16:31:37.097,6.884521,2.348541,9.685487,21.745747,0.000000,-23.260729,8.002544,2.325670,0.162801,0.342739,0.733105,8.783023,3.338449,0.041800,-0.065927,0.344222,1.748526,3.525981,8.111571,0.046638,0.612083,1,0,,38.990698,-76.937908,-6.176000,,,
2026-09-11T16:31:37.130,6.917937,2.378109,9.765420,22.019523,0.000000,-23.642504,8.133889,2.354185,0.174985,0.368389,0.744986,8.837010,3.395288,0.084869,0.015271,0.369873,0.886913,1.523365,15.735457,0.039699,0.679023,1,0,,38.990698,-76.937908,-6.176000,,,
2026-09-11T16:31:37.164,6.951353,2.427081,9.846948,22.472968,0.000000,-23.224337,7.990024,2.403519,0.182870,0.384990,0.757574,8.891017,3.453919,0.112350,0.042383,0.386473,0.478270,-2.604548,7.202298,0.009970,0.474206,1,0,,38.990698,-76.937908,-6.176000,,,
2026-09-11T16:31:37.197,6.984773,2.446499,9.928476,22.652765,0.000000,-23.488009,8.080737,2.422207,0.177421,0.373518,0.770248,8.945082,3.514049,0.171880,-0.019890,0.375002,-0.402563,0.267820,6.193292,-0.073538,0.458957,1,0,,38.990698,-76.937908,-6.176000,,,
2026-09-11T16:31:37.230,7.018188,2.475845,10.011098,22.924488,0.000000,-23.598559,8.118770,2.451030,0.186169,0.391935,0.783037,8.998894,3.575448,0.208528,-0.047618,0.393418,1.414413,2.168348,11.325504,-0.036392,0.563311,1,0,,38.990698,-76.937908,-6.176000,,,
2026-09-11T16:31:37.264,7.051602,2.495544,10.094723,23.106885,0.000000,-23.321154,8.023333,2.471115,0.180258,0.379490,0.795925,9.052456,3.638145,0.209293,-0.048876,0.380974,-0.389912,1.765883,10.657279,-0.111416,0.641925,1,0,,38.990698,-76.937908,-6.176000,,,
2026-09-11T16:31:37.297,7.085028,2.534800,10.179167,23.470374,0.000000,-21.323702,7.336136,2.514051,0.147106,0.309697,0.807444,9.106470,3.701820,0.118066,-0.108456,0.311181,2.930717,-0.000490,8.064695,0.039261,0.615610,1,0,,38.990698,-76.937908,-6.176000,,,
2026-09-11T16:31:37.331,7.118446,2.544705,10.264387,23.562085,0.000000,-10.625765,3.655653,2.539527,0.109674,0.230893,0.816476,9.161459,3.766049,-0.033414,-0.046630,0.232377,-1.099718,-0.739814,11.512125,-0.060028,0.554168,1,0,,38.990698,-76.937908,-6.176000,,,
2026-09-11T16:31:37.364,7.151861,2.516083,10.348512,23.297066,0.000000,-4.267428,1.468152,2.515257,0.019965,0.042032,0.821036,9.217572,3.829205,-0.266728,-0.032350,0.043515,-0.494647,-1.780888,7.325960,-0.109767,0.457125,1,0,,38.990698,-76.937908,-6.176000,,,
2026-09-11T16:31:37.397,7.185281,2.487533,10.432137,23.032710,0.000000,4.945981,-1.701599,2.486436,-0.026464,-0.055715,0.820808,9.274613,3.890291,-0.296022,0.005655,-0.054231,-0.984392,-2.712716,9.344365,-0.181947,0.316607,1,0,,38.990698,-76.937908,-6.176000,,,
2026-09-11T16:31:37.431,7.218698,2.449177,10.513938,22.677562,0.000000,5.218580,-1.795383,2.447974,-0.054389,-0.114503,0.817964,9.331883,3.949615,-0.274653,0.029316,-0.113019,-0.725986,0.091006,9.089784,-0.227299,0.368394,1,0,,38.990698,-76.937908,-6.176000,,,
2026-09-11T16:31:37.465,7.252115,2.449521,10.595877,22.680751,0.000000,5.272138,-1.813809,2.448294,-0.044528,-0.093742,0.814484,9.389125,4.008086,-0.211349,-0.011877,-0.092259,-0.758642,-0.829741,5.968916,-0.268206,0.356693,1,0,,38.990698,-76.937908,-6.176000,,,
2026-09-11T16:31:37.498,7.285539,2.429805,10.676721,22.498193,0.000000,3.098905,-1.066137,2.429384,-0.021397,-0.045045,0.812165,9.445934,4.066557,-0.098153,-0.026661,-0.043562,-1.515814,1.005966,11.426218,-0.355284,0.456237,1,0,,38.990698,-76.937908,-6.176000,,,
2026-09-11T16:31:37.532,7.318957,2.391450,10.756700,22.143059,0.000000,-3.124850,1.075063,2.391029,0.014029,0.029535,0.811906,9.501440,4.124923,-0.035922,0.008714,0.031019,-0.955658,-0.029028,10.374259,-0.402967,0.475979,1,0,,38.990698,-76.937908,-6.176000,,,
2026-09-11T16:31:37.565,7.352375,2.352949,10.834947,21.786569,0.000000,-10.698550,3.680694,2.348096,0.059968,0.126249,0.814509,9.554956,4.183300,0.083952,0.087588,0.127732,-0.042659,0.130723,12.902217,-0.387216,0.491223,1,0,,38.990698,-76.937908,-6.176000,,,
2026-09-11T16:31:37.598,7.385794,2.333692,10.912920,21.608260,0.000000,-11.266406,3.876057,2.328354,0.082472,0.173626,0.819519,9.606701,4.241900,0.060824,0.007169,0.175109,-0.202605,-1.283691,12.169366,-0.384227,0.407725,1,0,,38.990698,-76.937908,-6.176000,,,
2026-09-11T16:31:37.632,7.419211,2.314504,10.990210,21.430594,0.000000,-11.337817,3.900625,2.309143,0.094204,0.198324,0.825734,9.657251,4.300699,0.071082,-0.077082,0.199807,-1.326938,-0.431885,6.990474,-0.458744,0.376835,1,0,,38.990698,-76.937908,-6.176000,,,
2026-09-11T16:31:37.665,7.452628,2.276259,11.066042,21.076468,0.000000,-11.098864,3.818417,2.271205,0.082740,0.174190,0.831958,9.706786,4.359110,0.031997,-0.046674,0.175673,-0.312832,-2.398020,8.378115,-0.469753,0.222997,1,0,,38.990698,-76.937908,-6.176000,,,
2026-09-11T16:31:37.698,7.486044,2.238017,11.140780,20.722377,0.000000,-10.919650,3.756760,2.233208,0.071072,0.149626,0.837369,9.755415,4.416608,0.016268,-0.027253,0.151110,0.135528,-0.482683,8.075874,-0.455506,0.198879,1,0,,38.990698,-76.937908,-6.176000,,,
2026-09-11T16:31:37.732,7.519463,2.228908,11.215746,20.638036,0.000000,-10.021517,3.447770,2.224874,0.057222,0.120468,0.841882,9.803562,4.473491,-0.047107,-0.004142,0.121952,0.545446,-1.492964,8.472161,-0.419012,0.113870,1,0,,38.990698,-76.937908,-6.176000,,,
2026-09-11T16:31:37.766,7.552928,2.248893,11.291304,20.823088,0.000000,-9.821017,3.378790,2.244984,0.048494,0.102094,0.845606,9.851951,4.530546,-0.086459,-0.015273,0.103577,0.000392,0.885639,8.247687,-0.423116,0.186481,1,0,,38.990698,-76.937908,-6.176000,,,
2026-09-11T16:31:37.799,7.586344,2.258498,11.366361,20.912016,0.000000,-9.931567,3.416823,2.254483,0.058325,0.122789,0.849363,9.900370,4.588082,-0.083810,-0.054007,0.124273,-0.106402,-0.014710,8.222778,-0.438110,0.196786,1,0,,38.990698,-76.937908,-6.176000,,,
2026-09-11T16:31:37.832,7.619763,2.258660,11.441190,20.913520,0.000000,-10.353854,3.562106,2.254296,0.076486,0.161023,0.854105,9.948298,4.646251,-0.069490,-0.024739,0.162507,-0.373535,-0.162692,7.036271,-0.472415,0.191813,1,0,,38.990698,-76.937908,-6.176000,,,
2026-09-11T16:31:37.866,7.653181,2.297585,11.518070,21.273936,0.000000,-13.232958,4.552623,2.290336,0.098907,0.208224,0.860275,9.995786,4.705578,-0.052048,-0.391998,0.209708,3.222269,-2.353596,20.943180,-0.274403,0.037608,1,0,,38.990698,-76.937908,-6.176000,,,
2026-09-11T16:31:37.899,7.686611,2.288532,11.593673,21.190109,0.000000,-18.688357,6.429481,2.274138,0.117740,0.247874,0.867899,10.042572,4.765950,0.020596,0.155702,0.249358,5.451026,-0.713140,15.166573,0.063799,-0.014278,1,0,,38.990698,-76.937908,-6.176000,,,
2026-09-11T16:31:37.932,7.720030,2.288690,11.670371,21.191578,0.000000,-22.001421,7.569296,2.268747,0.137887,0.290289,0.876891,10.088110,4.826832,-0.000289,0.113449,0.291773,-1.532779,7.455212,6.358632,-0.058376,0.457342,1,0,,38.990698,-76.937908,-6.176000,,,
2026-09-11T16:31:37.966,7.753447,2.318276,11.747889,21.465522,0.000000,-23.038256,7.926006,2.296130,0.163560,0.344337,0.887495,10.132685,4.888924,0.020655,-0.108845,0.345821,-2.148637,6.480725,9.745849,-0.221466,0.851915,1,0,,38.990698,-76.937908,-6.176000,,,
2026-09-11T16:31:37.999,7.786878,2.338421,11.825771,21.652042,0.000000,-24.125903,8.300196,2.313926,0.174095,0.366516,0.899377,10.176580,4.952507,0.013231,-0.091002,0.367999,0.695193,-1.510714,7.970747,-0.194846,0.720963,1,0,,38.990698,-76.937908,-6.176000,,,
2026-09-11T16:31:38.033,7.820303,2.338919,11.903973,21.656659,0.000000,-23.882830,8.216570,2.314910,0.179790,0.378506,0.911828,10.219673,5.017023,0.033661,0.028553,0.379989,-1.491591,0.274782,9.192460,-0.303299,0.705279,1,0,,38.990698,-76.937908,-6.176000,,,
2026-09-11T16:31:38.066,7.853725,2.319729,11.981445,21.478975,0.000000,-24.217913,8.331851,2.295245,0.176875,0.372369,0.924376,10.261727,5.081844,-0.029910,-0.002638,0.373853,0.391089,-1.088832,8.205813,-0.285658,0.602867,1,1,7.837923,38.990679,-76.937898,-6.289000,0.010659,-11.293513,6.955344
2026-09-11T16:31:38.099,7.887151,2.310019,12.058279,21.389061,0.000000,-23.978274,8.249406,2.286117,0.170908,0.359807,0.936613,10.302811,5.146717,-0.018258,-0.040827,0.361291,1.341648,0.206528,11.993337,-0.203905,0.587544,1,0,,38.990679,-76.937898,-6.289000,,,
2026-09-11T16:31:38.133,7.920569,2.291015,12.135751,21.213098,0.000000,-23.352053,8.033963,2.268529,0.156967,0.330457,0.948147,10.343119,5.211501,-0.016194,-0.027648,0.331941,-0.592322,-3.712994,8.634559,-0.245960,0.323312,1,0,,38.990679,-76.937898,-6.289000,,,
2026-09-11T16:31:38.167,7.953990,2.281642,12.211902,21.126317,0.000000,-22.736819,7.822300,2.260411,0.139323,0.293312,0.958570,10.382898,5.276075,0.030315,-0.019081,0.294795,-0.310577,1.956721,10.386910,-0.270915,0.434768,1,0,,38.990679,-76.937898,-6.289000,,,
2026-09-11T16:31:38.200,7.987408,2.281993,12.288235,21.129562,0.000000,-22.477267,7.733005,2.261240,0.147581,0.310697,0.968663,10.422067,5.340858,0.045835,0.053659,0.312181,-1.236815,0.701077,7.903670,-0.355090,0.461104,1,0,,38.990679,-76.937898,-6.289000,,,
2026-09-11T16:31:38.233,8.020855,2.272401,12.363930,21.040746,0.000000,-22.534945,7.752848,2.251629,0.158127,0.332898,0.979426,10.460249,5.406154,0.199743,-0.118751,0.334382,-1.409902,2.381055,8.016937,-0.447821,0.592994,1,0,,38.990679,-76.937898,-6.289000,,,
2026-09-11T16:31:38.267,8.054275,2.234232,12.438577,20.687333,0.000000,-22.502673,7.741745,2.213868,0.143531,0.302170,0.990038,10.497323,5.471108,0.216391,-0.000833,0.303653,-7.325175,-4.782801,8.520900,-0.922725,0.264619,1,0,,38.990679,-76.937898,-6.289000,,,
2026-09-11T16:31:38.300,8.087705,2.195820,12.511309,20.331667,0.000000,-22.435381,7.718595,2.175925,0.143010,0.301073,1.000121,10.533257,5.535261,0.032040,-0.011828,0.302557,-2.192963,-2.803525,9.907659,-1.061630,0.068860,1,0,,38.990679,-76.937898,-6.289000,,,
2026-09-11T16:31:38.334,8.121123,2.196254,12.584315,20.335682,0.000000,-22.321398,7.679380,2.176556,0.124301,0.261686,1.009524,10.568485,5.599041,0.049316,-0.061952,0.263170,-1.673799,4.984230,6.424631,-1.167889,0.385259,1,0,,38.990679,-76.937898,-6.289000,,,
2026-09-11T16:31:38.367,8.154542,2.187147,12.657595,20.251359,0.000000,-21.456912,7.381965,2.169019,0.135275,0.284789,1.018655,10.603170,5.662979,0.049777,-0.001426,0.286272,-0.304889,-2.012913,10.690916,-1.186824,0.241877,1,0,,38.990679,-76.937898,-6.289000,,,
2026-09-11T16:31:38.400,8.187960,2.177515,12.730191,20.162178,0.000000,-20.640490,7.101086,2.160813,0.117557,0.247488,1.027549,10.637237,5.726944,-0.034436,-0.051154,0.248971,0.476407,-1.504929,9.668769,-1.156728,0.138345,1,0,,38.990679,-76.937898,-6.289000,,,
2026-09-11T16:31:38.434,8.221382,2.187155,12.803744,20.251433,0.000000,-19.469073,6.698076,2.172226,0.105878,0.222900,1.035410,10.671218,5.790993,-0.015687,-0.017176,0.224384,0.777177,-1.105013,7.759316,-1.108002,0.065124,1,0,,38.990679,-76.937898,-6.289000,,,
2026-09-11T16:31:38.467,8.254815,2.187588,12.876978,20.255447,0.000000,-17.372057,5.976625,2.175698,0.104796,0.220622,1.042824,10.705031,5.855427,-0.034285,-0.034528,0.222106,1.012537,-3.216287,13.242998,-1.043209,-0.143875,1,0,,38.990679,-76.937898,-6.289000,,,
2026-09-11T16:31:38.500,8.288226,2.197776,12.949620,20.349777,0.000000,-14.252627,4.903427,2.189732,0.097628,0.205533,1.049943,10.738618,5.920248,-0.008318,0.014612,0.207016,0.896720,-1.093441,12.375502,-0.987798,-0.211004,1,0,,38.990679,-76.937898,-6.289000,,,
2026-09-11T16:31:38.535,8.321651,2.207782,13.023583,20.442422,0.000000,-12.456362,4.285446,2.201609,0.078938,0.166185,1.056155,10.772376,5.985480,-0.007452,-0.029405,0.167669,0.673913,0.089437,12.180742,-0.952297,-0.195309,1,0,,38.990679,-76.937898,-6.289000,,,
2026-09-11T16:31:38.568,8.355170,2.198398,13.096954,20.355532,0.000000,-12.241442,4.211505,2.192461,0.077126,0.162371,1.061662,10.806168,6.050964,-0.000667,-0.040254,0.163854,1.254074,0.246539,10.412603,-0.883126,-0.168894,1,0,,38.990679,-76.937898,-6.289000,,,
2026-09-11T16:31:38.601,8.388586,2.218217,13.171008,20.539046,0.000000,-12.200930,4.197568,2.212267,0.082274,0.173209,1.067269,10.839529,6.116616,-0.005699,-0.112296,0.174692,0.915353,-0.655084,8.584153,-0.839216,-0.203025,1,0,,38.990679,-76.937898,-6.289000,,,
2026-09-11T16:31:38.635,8.422005,2.209250,13.244971,20.456017,0.000000,-12.192690,4.194733,2.203332,0.078755,0.165800,1.072933,10.872587,6.182633,-0.012342,-0.108569,0.167284,0.121897,0.560156,12.194766,-0.851341,-0.156888,1,0,,38.990679,-76.937898,-6.289000,,,
2026-09-11T16:31:38.668,8.455441,2.219503,13.319481,20.550955,0.000000,-12.352679,4.249775,2.213401,0.088392,0.186088,1.078816,10.905198,6.248939,0.049647,-0.081436,0.187572,0.216531,-1.262606,9.841072,-0.859555,-0.232415,1,0,,38.990679,-76.937898,-6.289000,,,
2026-09-11T16:31:38.701,8.488859,2.210161,13.393080,20.464450,0.000000,-12.617724,4.340960,2.203820,0.093461,0.196760,1.085213,10.937172,6.315530,0.049882,-0.052790,0.198244,0.145433,0.773745,10.253539,-0.872021,-0.176540,1,0,,38.990679,-76.937898,-6.289000,,,
2026-09-11T16:31:38.735,8.522277,2.190715,13.466268,20.284401,0.000000,-13.364108,4.597743,2.183666,0.100971,0.212570,1.092053,10.968287,6.381986,0.121275,-0.044011,0.214053,0.002256,1.320956,10.390146,-0.895111,-0.087818,1,0,,38.990679,-76.937898,-6.289000,,,
2026-09-11T16:31:38.768,8.555694,2.181052,13.539457,20.194926,0.000000,-13.403246,4.611209,2.173992,0.108751,0.228949,1.099430,10.998474,6.448337,0.070056,-0.029057,0.230433,1.448050,-4.170670,8.111080,-0.827169,-0.358044,1,0,,38.990679,-76.937898,-6.289000,,,
2026-09-11T16:31:38.802,8.589126,2.191036,13.613056,20.287371,0.000000,-13.424532,4.618532,2.183922,0.108253,0.227900,1.107067,11.028068,6.515001,0.114899,0.043678,0.229384,0.702646,-2.321430,10.601087,-0.812402,-0.505558,1,0,,38.990679,-76.937898,-6.289000,,,
2026-09-11T16:31:38.835,8.622548,2.200868,13.686745,20.378404,0.000000,-13.541949,4.658927,2.193596,0.106697,0.224626,1.114629,11.057320,6.582144,0.136923,0.003597,0.226109,0.934181,-0.490136,12.901237,-0.787692,-0.532384,1,0,,38.990679,-76.937898,-6.289000,,,
2026-09-11T16:31:38.868,8.655965,2.220768,13.760526,20.562670,0.000000,-13.292696,4.573175,2.213698,0.103387,0.217657,1.122019,11.086357,6.649909,0.148448,-0.060812,0.219140,0.621447,-0.964288,5.524674,-0.790060,-0.588934,1,0,,38.990679,-76.937898,-6.289000,,,
2026-09-11T16:31:38.901,8.689385,2.250362,13.835811,20.836685,0.000000,-13.403246,4.611209,2.243078,0.105025,0.221104,1.129350,11.115277,6.718625,0.176816,-0.048194,0.222588,1.843650,-1.760196,13.065008,-0.720429,-0.697374,1,0,,38.990679,-76.937898,-6.289000,,,
2026-09-11T16:31:38.935,8.722804,2.260564,13.911050,20.931145,0.000000,-13.447192,4.626327,2.253199,0.108914,0.229293,1.136876,11.143881,6.788186,0.169734,-0.030263,0.230777,1.097266,-0.481703,13.435405,-0.703478,-0.723081,1,0,,38.990679,-76.937898,-6.289000,,,
2026-09-11T16:31:38.969,8.756223,2.261088,13.986927,20.936002,0.000000,-13.200686,4.541520,2.253989,0.105812,0.222762,1.144430,11.172025,6.858135,0.142880,0.081992,0.224246,-0.655575,1.103542,1.164932,-0.800946,-0.644801,1,0,,38.990679,-76.937898,-6.289000,,,
2026-09-11T16:31:39.002,8.789640,2.300557,14.063625,21.301451,0.000000,-12.673342,4.360095,2.293899,0.114223,0.240470,1.152170,11.199827,6.928950,0.168608,0.145573,0.241954,-1.950150,1.203668,-3.957081,-0.981776,-0.564120,1,0,,38.990679,-76.937898,-6.289000,,,
2026-09-11T16:31:39.035,8.823057,2.329737,14.141371,21.571637,0.000000,-12.656176,4.354189,2.323013,0.107045,0.225358,1.159953,11.227526,7.001041,0.139176,0.074973,0.226842,0.922512,0.082474,8.325061,-0.973653,-0.555179,1,0,,38.990679,-76.937898,-6.289000,,,
2026-09-11T16:31:39.069,8.856475,2.368499,14.220802,21.930549,0.000000,-12.674716,4.360567,2.361643,0.114265,0.240558,1.167738,11.255110,7.074390,0.189538,0.063224,0.242041,1.247308,0.742363,7.607999,-0.939796,-0.506459,1,1,8.840265,38.990663,-76.937884,-6.308000,1.236611,-13.063921,5.725016
2026-09-11T16:31:39.102,8.889895,2.417647,14.301510,22.385621,0.000000,-14.006808,4.818856,2.409101,0.124548,0.262206,1.176139,11.282389,7.149401,0.219072,0.058324,0.263689,1.753135,1.460014,7.314388,-0.866022,-0.415890,1,0,,38.990663,-76.937884,-6.308000,,,
2026-09-11T16:31:39.136,8.923312,2.485627,14.384952,23.015064,0.000000,-15.967181,5.493296,2.474211,0.137765,0.290031,1.185366,11.309355,7.226532,0.248370,-0.049441,0.291514,0.623213,1.347728,12.598800,-0.858668,-0.339183,1,0,,38.990663,-76.937884,-6.308000,,,
2026-09-11T16:31:39.169,8.956731,2.534339,14.469397,23.466105,0.000000,-17.358325,5.971901,2.520586,0.146890,0.309241,1.195380,11.335924,7.305792,0.274078,-0.020866,0.310725,2.011442,-0.027753,9.847152,-0.757039,-0.356463,1,0,,38.990663,-76.937884,-6.308000,,,
2026-09-11T16:31:39.202,8.990147,2.544498,14.554070,23.560163,0.000000,-17.446215,6.002138,2.530549,0.160482,0.337857,1.206191,11.361653,7.386328,0.258384,0.017214,0.339341,0.799340,-0.167596,8.641032,-0.732385,-0.387504,1,0,,38.990663,-76.937884,-6.308000,,,
2026-09-11T16:31:39.236,9.023562,2.516050,14.638697,23.296758,0.000000,-16.837847,5.792837,2.503201,0.143410,0.301917,1.216881,11.386471,7.466846,0.211745,0.015119,0.303400,-1.453738,0.773254,6.047761,-0.848822,-0.350811,1,0,,38.990663,-76.937884,-6.308000,,,
2026-09-11T16:31:39.269,9.056975,2.516307,14.722959,23.299143,0.000000,-10.547488,3.628723,2.511263,0.104753,0.220533,1.225609,11.411266,7.546975,0.110275,0.007515,0.222016,-0.080218,-2.978966,12.355791,-0.864563,-0.544561,1,0,,38.990663,-76.937884,-6.308000,,,
2026-09-11T16:31:39.303,9.090399,2.487507,14.805946,23.032476,0.000000,-3.528597,1.213967,2.486949,0.035317,0.074352,1.230537,11.437135,7.626438,-0.111219,0.016405,0.075836,-0.840430,-1.045879,10.512337,-0.919472,-0.587030,1,0,,38.990663,-76.937884,-6.308000,,,
2026-09-11T16:31:39.336,9.123822,2.458324,14.888522,22.762257,0.000000,6.559598,-2.256743,2.456417,-0.056295,-0.118516,1.229799,11.465063,7.704183,-0.208492,-0.158256,-0.117033,0.192799,-0.580848,9.281210,-0.900833,-0.568025,1,0,,38.990663,-76.937884,-6.308000,,,
2026-09-11T16:31:39.370,9.157234,2.409845,14.968956,22.313375,0.000000,15.317076,-5.269636,2.399659,-0.117568,-0.247511,1.223684,11.495158,7.779573,-0.363915,-0.072792,-0.246028,2.851970,-2.684080,20.058228,-0.701257,-0.665910,1,0,,38.990663,-76.937884,-6.308000,,,
2026-09-11T16:31:39.403,9.190656,2.400767,15.048980,22.229322,0.000000,16.206282,-5.575556,2.389409,-0.124842,-0.262824,1.215156,11.526506,7.853318,-0.210788,-0.043330,-0.261341,0.452773,-3.161762,14.231411,-0.648171,-0.791512,1,0,,38.990663,-76.937884,-6.308000,,,
2026-09-11T16:31:39.436,9.224071,2.381365,15.128595,22.049675,0.000000,16.897734,-5.813440,2.369118,-0.141539,-0.297976,1.205786,11.558699,7.926145,-0.168705,0.040920,-0.296493,-0.655378,-0.190641,9.496074,-0.661347,-0.718062,1,0,,38.990663,-76.937884,-6.308000,,,
2026-09-11T16:31:39.470,9.257485,2.372024,15.207844,21.963186,0.000000,16.655348,-5.730051,2.360172,-0.129913,-0.273501,1.196239,11.591483,7.998178,-0.074835,-0.012869,-0.272018,0.159946,-1.683606,9.487346,-0.619151,-0.746113,1,0,,38.990663,-76.937884,-6.308000,,,
2026-09-11T16:31:39.503,9.290902,2.343456,15.285772,21.698666,0.000000,15.858839,-5.456023,2.332839,-0.115030,-0.242169,1.187623,11.624286,8.069517,0.032806,0.077182,-0.240686,-0.675972,-2.202377,11.592637,-0.630411,-0.812709,1,0,,38.990663,-76.937884,-6.308000,,,
2026-09-11T16:31:39.537,9.324320,2.275945,15.362151,21.073568,0.000000,15.569761,-5.356569,2.266006,-0.107952,-0.227267,1.179779,11.656740,8.139268,0.075571,0.083061,-0.225783,-0.275665,-2.062240,9.236197,-0.614948,-0.872728,1,0,,38.990663,-76.937884,-6.308000,,,
2026-09-11T16:31:39.570,9.357738,2.256934,15.437754,20.897533,0.000000,14.996412,-5.159316,2.247790,-0.102923,-0.216680,1.172361,11.688995,8.207536,0.113428,0.034620,-0.215196,0.423549,-1.003122,10.007196,-0.557441,-0.865229,1,0,,38.990663,-76.937884,-6.308000,,,
2026-09-11T16:31:39.603,9.391158,2.267189,15.513267,20.992489,0.000000,14.897535,-5.125299,2.258124,-0.105265,-0.221611,1.165037,11.721663,8.275462,0.043600,-0.036216,-0.220127,-0.110717,-1.532191,11.413568,-0.544686,-0.891249,1,0,,38.990663,-76.937884,-6.308000,,,
2026-09-11T16:31:39.637,9.424577,2.228128,15.587823,20.630813,0.000000,14.809645,-5.095061,2.219324,-0.085382,-0.179751,1.158330,11.754345,8.342837,0.108401,0.088185,-0.178267,-1.379305,-4.469479,11.399544,-0.622489,-1.114028,1,0,,38.990663,-76.937884,-6.308000,,,
2026-09-11T16:31:39.670,9.457996,2.208928,15.661831,20.453035,0.000000,14.775312,-5.083250,2.200240,-0.090057,-0.189593,1.152159,11.786838,8.409217,-0.014872,0.040835,-0.188109,-0.875440,-1.543959,8.543652,-0.671607,-1.143463,1,0,,38.990663,-76.937884,-6.308000,,,
2026-09-11T16:31:39.704,9.491420,2.189874,15.734746,20.276612,0.000000,14.018629,-4.822923,2.182120,-0.081372,-0.171309,1.146127,11.819426,8.474870,-0.049535,0.059430,-0.169825,-0.359316,0.851610,8.412929,-0.692605,-1.020003,1,0,,38.990663,-76.937884,-6.308000,,,
2026-09-11T16:31:39.738,9.524847,2.151452,15.807980,19.920854,0.000000,13.316877,-4.581494,2.144578,-0.059721,-0.125727,1.141163,11.851529,8.539710,-0.066826,0.140489,-0.124244,-1.103738,-1.506301,14.488345,-0.767467,-1.057609,1,0,,38.990663,-76.937884,-6.308000,,,
2026-09-11T16:31:39.771,9.558264,2.151642,15.879300,19.922613,0.000000,12.356946,-4.251243,2.145722,-0.060748,-0.127891,1.136925,11.883354,8.603973,-0.103385,-0.114894,-0.126408,-1.900529,-2.944153,3.460473,-0.903199,-1.187725,1,0,,38.990663,-76.937884,-6.308000,,,
2026-09-11T16:31:39.805,9.591682,2.123115,15.950393,19.658474,0.000000,12.034223,-4.140214,2.117575,-0.052875,-0.111315,1.132928,11.915150,8.667748,-0.133326,0.109871,-0.109831,-0.950264,-0.793848,6.441694,-0.988040,-1.179461,1,0,,38.990663,-76.937884,-6.308000,,,
2026-09-11T16:31:39.838,9.625176,2.143275,16.022123,19.845141,0.000000,11.810377,-4.063203,2.137888,-0.054664,-0.115081,1.129137,11.947120,8.731465,-0.243438,-0.001523,-0.113598,-0.022065,1.197686,4.096434,-1.019805,-1.041157,1,0,,38.990663,-76.937884,-6.308000,,,
2026-09-11T16:31:39.871,9.658592,2.182529,16.095266,20.208597,0.000000,10.660245,-3.667516,2.178059,-0.047693,-0.100405,1.125537,11.979607,8.795868,-0.254454,-0.035914,-0.098922,-0.415704,-2.748608,8.357325,-1.085977,-1.162384,1,0,,38.990663,-76.937884,-6.308000,,,
2026-09-11T16:31:39.905,9.692013,2.202493,16.168728,20.393450,0.000000,8.300245,-2.855589,2.199758,-0.030827,-0.064900,1.122774,12.012389,8.861280,-0.255895,0.009215,-0.063416,1.335764,-3.345343,9.222958,-1.048770,-1.325938,1,0,,38.990663,-76.937884,-6.308000,,,
2026-09-11T16:31:39.938,9.725444,2.221944,16.243010,20.573555,0.000000,2.897718,-0.996921,2.221608,-0.012096,-0.025466,1.121264,12.045101,8.927557,-0.217791,-0.037119,-0.023982,2.564439,2.222481,10.606775,-0.940577,-1.132044,1,0,,38.990663,-76.937884,-6.308000,,,
2026-09-11T16:31:39.971,9.758878,2.260898,16.318477,20.934242,0.000000,-2.110674,0.726149,2.260717,0.023843,0.050195,1.121677,12.077471,8.995135,-0.166626,0.002982,0.051679,1.312326,-1.161794,10.526458,-0.917668,-1.170925,1,0,,38.990663,-76.937884,-6.308000,,,
2026-09-11T16:31:40.005,9.792295,2.280698,16.394764,21.117573,0.000000,-9.644549,3.318079,2.276875,0.061371,0.129203,1.124675,12.109002,9.064098,-0.066195,-0.002130,0.130686,1.277708,-0.149551,8.944155,-0.895279,-1.155429,1,0,,38.990663,-76.937884,-6.308000,,,
2026-09-11T16:31:40.038,9.825714,2.329669,16.472692,21.571014,0.000000,-11.540377,3.970313,2.324078,0.093560,0.196968,1.130125,12.139642,9.134652,-0.048905,0.008099,0.198452,2.325353,-0.566334,10.622563,-0.806995,-1.177744,1,0,,38.990663,-76.937884,-6.308000,,,
2026-09-11T16:31:40.072,9.859132,2.388011,16.553719,22.111218,0.000000,-13.912737,4.786492,2.379683,0.120848,0.254416,1.137667,12.169648,9.207381,0.025547,0.031242,0.255899,1.612704,-0.510632,9.989838,-0.768071,-1.205777,1,0,,38.990663,-76.937884,-6.308000,,,
2026-09-11T16:31:40.106,9.892559,2.446609,16.635384,22.653787,0.000000,-14.157870,4.870827,2.437773,0.133352,0.280741,1.146611,12.199246,9.282378,0.060241,0.056435,0.282224,1.498260,-0.198487,3.479890,-0.733112,-1.218379,1,0,,38.990663,-76.937884,-6.308000,,,
2026-09-11T16:31:40.138,9.925977,2.505294,16.719510,23.197165,0.000000,-14.304812,4.921380,2.496058,0.129450,0.272526,1.155856,12.228814,9.359457,0.072545,-0.199042,0.274009,0.880539,1.533760,17.634024,-0.733702,-1.118222,1,0,,38.990663,-76.937884,-6.308000,,,
2026-09-11T16:31:40.172,9.959397,2.554283,16.805185,23.650772,0.000000,-13.747256,4.729560,2.545586,0.118785,0.250074,1.164589,12.258633,9.438359,0.032902,-0.101144,0.251558,1.639084,-0.528873,7.657817,-0.679861,-1.150118,1,0,,38.990663,-76.937884,-6.308000,,,
2026-09-11T16:31:40.205,9.992816,2.593447,16.891452,24.013403,0.000000,-13.246691,4.557348,2.585248,0.127595,0.268621,1.173256,12.288375,9.518871,0.065142,-0.023411,0.270104,-0.986745,1.238188,12.018050,-0.791911,-1.070812,1,0,,38.990663,-76.937884,-6.308000,,,
2026-09-11T16:31:40.239,10.026233,2.544640,16.976535,23.561485,0.000000,-13.116915,4.512700,2.536752,0.093095,0.195990,1.181019,12.317800,9.599321,0.001411,0.087735,0.197474,-1.174248,2.694769,9.130187,-0.909789,-0.885166,1,0,,38.990663,-76.937884,-6.308000,,,
2026-09-11T16:31:40.272,10.059672,2.525559,17.061162,23.384804,0.000000,-12.967227,4.461202,2.517907,0.105723,0.222575,1.188017,12.346560,9.678857,-0.085200,0.032595,0.224059,0.119837,-0.519458,11.371693,-0.932801,-0.914103,1,0,,38.990663,-76.937884,-6.308000,,,
2026-09-11T16:31:40.306,10.093086,2.545368,17.145652,23.568226,0.000000,-14.771731,5.082018,2.535362,0.137431,0.289327,1.196569,12.373981,9.758804,-0.167681,-0.045232,0.290811,-0.257523,-0.095811,10.647178,-0.971619,-0.926456,1,0,,38.990663,-76.937884,-6.308000,,,
2026-09-11T16:31:40.339,10.126502,2.555374,17.231236,23.660871,0.000000,-14.809496,5.095010,2.545277,0.145103,0.305480,1.206507,12.400215,9.839673,-0.150670,-0.131925,0.306964,-1.605937,0.216433,9.770267,-1.090210,-0.921281,1,0,,38.990663,-76.937884,-6.308000,,,
2026-09-11T16:31:40.372,10.159919,2.546393,17.316137,23.577715,0.000000,-15.034716,5.172494,2.536024,0.124802,0.262741,1.216001,12.425867,9.920733,-0.187102,-0.043512,0.264225,1.725872,-0.552212,16.116053,-0.982542,-0.958789,1,0,,38.990663,-76.937884,-6.308000,,,
2026-09-11T16:31:40.406,10.193339,2.546835,17.400764,23.581803,0.000000,-17.774432,6.115057,2.532343,0.145781,0.306907,1.225520,12.450663,10.001837,-0.126927,-0.049303,0.308390,0.736283,-2.417830,9.943453,-0.929602,-1.124065,1,0,,38.990663,-76.937884,-6.308000,,,
2026-09-11T16:31:40.439,10.226757,2.518312,17.485573,23.317701,0.000000,-21.691744,7.462756,2.496980,0.165837,0.349130,1.236482,12.473764,10.082800,-0.084842,-0.044789,0.350613,0.545348,0.717062,10.752207,-0.881025,-1.090344,1,0,,38.990663,-76.937884,-6.308000,,,
2026-09-11T16:31:40.473,10.260176,2.547838,17.570610,23.591093,0.000000,-23.992693,8.254367,2.521444,0.183561,0.386444,1.248773,12.495261,10.164059,0.039529,-0.112714,0.387927,2.030173,0.017358,6.411098,-0.735606,-1.109029,1,0,,38.990663,-76.937884,-6.308000,,,
2026-09-11T16:31:40.506,10.293594,2.509122,17.654235,23.232608,0.000000,-27.875674,9.590255,2.474055,0.202203,0.425690,1.262343,12.515017,10.245409,0.037332,-0.114860,0.427173,-1.386366,3.796645,10.233043,-0.815046,-0.887553,1,0,,38.990663,-76.937884,-6.308000,,,
2026-09-11T16:31:40.539,10.327012,2.489878,17.736948,23.054426,0.000000,-35.845568,12.332191,2.432426,0.232254,0.488956,1.277626,12.532377,10.325851,0.147605,-0.141337,0.490440,2.230425,-0.032264,15.249831,-0.659819,-0.925633,1,0,,38.990663,-76.937884,-6.308000,,,
2026-09-11T16:31:40.573,10.360428,2.509826,17.820572,23.239134,0.000000,-37.177660,12.790480,2.447548,0.276386,0.581866,1.295517,12.547079,10.406489,0.273900,0.074183,0.583350,1.195431,-6.159949,12.360498,-0.574302,-1.375917,1,0,,38.990663,-76.937884,-6.308000,,,
2026-09-11T16:31:40.607,10.393845,2.500524,17.904242,23.152996,0.000000,-37.638400,12.948991,2.436935,0.279123,0.587627,1.315057,12.559539,10.487673,0.267576,-0.150609,0.589111,1.066473,0.083062,14.447549,-0.500527,-1.416868,1,0,,38.990663,-76.937884,-6.308000,,,
2026-09-11T16:31:40.640,10.427266,2.481454,17.987274,22.976428,0.000000,-37.496264,12.900091,2.418824,0.278556,0.586435,1.334677,12.570257,10.568638,0.218822,-0.077018,0.587918,-0.678326,-0.239380,10.965306,-0.541728,-1.477417,1,0,,38.990663,-76.937884,-6.308000,,,
2026-09-11T16:31:40.673,10.460685,2.443205,18.068757,22.622265,0.000000,-37.284091,12.827095,2.382233,0.267732,0.563646,1.353894,12.579384,10.648859,0.141635,-0.008221,0.565130,-0.424040,1.134335,7.444817,-0.568274,-1.443250,1,0,,38.990663,-76.937884,-6.308000,,,
2026-09-11T16:31:40.706,10.494100,2.434248,18.149647,22.539329,0.000000,-36.795886,12.659135,2.375074,0.255691,0.538298,1.372305,12.587218,10.728435,0.121765,-0.034760,0.539781,0.116209,0.267231,11.660107,-0.559857,-1.461549,1,0,,38.990663,-76.937884,-6.308000,,,
2026-09-11T16:31:40.740,10.527528,2.405639,18.230491,22.274439,0.000000,-34.779894,11.965560,2.353371,0.242065,0.509610,1.389819,12.593956,10.807614,0.045581,0.097236,0.511094,-0.303124,-2.011736,10.170771,-0.581716,-1.622432,1,0,,38.990663,-76.937884,-6.308000,,,
2026-09-11T16:31:40.774,10.560950,2.386659,18.310425,22.098696,0.000000,-32.567523,11.204423,2.341170,0.214416,0.451403,1.405879,12.599944,10.886207,-0.000378,0.023131,0.452887,1.721361,-1.892389,11.343843,-0.480105,-1.764542,1,1,10.545603,38.990647,-76.937867,-6.367000,2.737398,-14.837295,5.166247
2026-09-11T16:31:40.807,10.594371,2.396103,18.390312,22.186139,0.000000,-30.503466,10.494312,2.356023,0.211117,0.444456,1.420849,12.605225,10.964843,-0.034962,-0.017835,0.445940,2.173742,-3.032314,9.050656,-0.351515,-1.978490,1,0,,38.990647,-76.937867,-6.367000,,,
2026-09-11T16:31:40.840,10.627789,2.415792,18.470883,22.368443,0.000000,-26.930163,9.264964,2.384276,0.186328,0.392269,1.434830,12.609934,11.044190,-0.082149,-0.057846,0.393753,-0.367847,1.128157,8.731057,-0.387933,-1.912694,1,0,,38.990647,-76.937867,-6.367000,,,
2026-09-11T16:31:40.874,10.661206,2.416368,18.552001,22.373774,0.000000,-22.324145,7.680325,2.394691,0.159764,0.336344,1.447004,12.614541,11.124116,-0.012032,-0.063029,0.337828,-3.921483,-0.784042,5.601264,-0.655109,-1.963342,1,0,,38.990647,-76.937867,-6.367000,,,
2026-09-11T16:31:40.907,10.694626,2.407005,18.631980,22.287085,0.000000,-19.514391,6.713667,2.390500,0.118929,0.250376,1.456808,12.619401,11.204068,-0.065828,-0.150726,0.251859,-0.129546,-0.466208,9.159117,-0.678077,-1.979366,1,0,,38.990647,-76.937867,-6.367000,,,
2026-09-11T16:31:40.940,10.728044,2.397852,18.711731,22.202335,0.000000,-12.857363,4.423405,2.390710,0.101407,0.213488,1.464559,12.624521,11.283876,-0.068266,-0.015239,0.214972,1.922005,-2.160797,12.897510,-0.570253,-2.099520,1,0,,38.990647,-76.937867,-6.367000,,,
2026-09-11T16:31:40.974,10.761459,2.388714,18.792211,22.117718,0.000000,-10.329821,3.553838,2.384120,0.066850,0.140737,1.470477,12.629950,11.363520,-0.057150,0.107744,0.142220,-0.453165,-1.955544,10.693466,-0.616738,-2.193673,1,0,,38.990647,-76.937867,-6.367000,,,
2026-09-11T16:31:41.007,10.794876,2.418436,18.873329,22.392925,0.000000,-9.065707,3.118936,2.414854,0.058216,0.122559,1.474876,12.635724,11.443521,-0.057244,0.049916,0.124043,0.240361,-2.447446,7.143949,-0.618846,-2.316180,1,0,,38.990647,-76.937867,-6.367000,,,
2026-09-11T16:31:41.041,10.828294,2.418909,18.953535,22.397305,0.000000,-8.019259,2.758919,2.416105,0.040062,0.084341,1.478333,12.641681,11.524038,-0.042135,0.073195,0.085825,1.405979,-2.490987,10.790453,-0.544813,-2.434198,1,0,,38.990647,-76.937867,-6.367000,,,
2026-09-11T16:31:41.074,10.861711,2.409525,19.034106,22.310415,0.000000,-8.144228,2.801913,2.406644,0.042788,0.090081,1.481248,12.647626,11.604413,0.011357,0.037832,0.091564,0.881422,-1.472076,10.813401,-0.502280,-2.485566,1,1,10.839442,38.990633,-76.937846,-6.412000,4.551767,-16.339538,5.185284
2026-09-11T16:31:41.108,10.895130,2.409724,19.115042,22.312263,0.000000,-8.896792,3.060823,2.406287,0.062173,0.130891,1.484940,12.652923,11.684677,-0.057146,0.057869,0.132375,-1.296341,-2.093622,8.112257,-0.598792,-2.583143,1,0,,38.990633,-76.937846,-6.412000,,,
2026-09-11T16:31:41.141,10.928546,2.400101,19.194930,22.223155,0.000000,-9.241488,3.179411,2.396406,0.052518,0.110564,1.488974,12.657734,11.764800,-0.119897,-0.034286,0.112048,0.539562,-2.816176,10.831347,-0.576938,-2.723361,1,0,,38.990633,-76.937846,-6.412000,,,
2026-09-11T16:31:41.175,10.961965,2.419813,19.276139,22.405680,0.000000,-9.580004,3.295873,2.415811,0.063466,0.133612,1.493054,12.662210,11.845108,0.003675,0.029362,0.135096,-0.004413,-0.899270,10.489585,-0.592636,-2.741205,1,0,,38.990633,-76.937846,-6.412000,,,
2026-09-11T16:31:41.208,10.995411,2.390901,19.356209,22.137971,0.000000,-9.336932,3.212247,2.387144,0.063950,0.134631,1.497540,12.666144,11.925359,0.003274,0.011830,0.136115,-0.994590,-2.499323,6.632041,-0.675733,-2.862884,1,0,,38.990633,-76.937846,-6.412000,,,
2026-09-11T16:31:41.241,11.028855,2.381608,19.435823,22.051925,0.000000,-9.380190,3.227130,2.377831,0.057500,0.121052,1.501816,12.669781,12.004983,-0.017950,0.077131,0.122535,-0.135626,-1.168855,8.527667,-0.704386,-2.894467,1,0,,38.990633,-76.937846,-6.412000,,,
2026-09-11T16:31:41.275,11.062274,2.372523,19.515437,21.967802,0.000000,-9.106219,3.132873,2.368977,0.056946,0.119886,1.505842,12.673181,12.084248,0.014567,-0.016072,0.121369,-0.042463,-2.424596,10.199799,-0.726506,-3.007092,1,0,,38.990633,-76.937846,-6.412000,,,
2026-09-11T16:31:41.308,11.095693,2.373011,19.594094,21.972326,0.000000,-8.508837,2.927352,2.369915,0.038176,0.080371,1.509188,12.676602,12.163375,-0.089357,-0.080675,0.081855,-0.015396,0.602030,6.683624,-0.745943,-2.915563,1,0,,38.990633,-76.937846,-6.412000,,,
2026-09-11T16:31:41.341,11.129110,2.363552,19.673024,21.884739,0.000000,-6.991351,2.405281,2.361469,0.032068,0.067511,1.511659,12.680200,12.242357,-0.083492,0.003239,0.068995,0.024320,-1.393133,11.975489,-0.762650,-2.952774,1,0,,38.990633,-76.937846,-6.412000,,,
2026-09-11T16:31:41.375,11.162538,2.373389,19.752183,21.975827,0.000000,-5.859072,2.015736,2.371921,0.023373,0.049206,1.513610,12.683874,12.321392,-0.131089,-0.059766,0.050689,-0.734714,-2.742037,7.159345,-0.830891,-3.074566,1,0,,38.990633,-76.937846,-6.412000,,,
2026-09-11T16:31:41.408,11.195954,2.392672,19.832116,22.154373,0.000000,-5.807574,1.998019,2.391218,0.014205,0.029906,1.514931,12.687743,12.400882,-0.170014,-0.101869,0.031390,0.921531,0.151022,11.597344,-0.791171,-3.003881,1,0,,38.990633,-76.937846,-6.412000,,,
2026-09-11T16:31:41.442,11.229372,2.402581,19.912824,22.246120,0.000000,-6.794970,2.337719,2.400581,0.021849,0.045998,1.516200,12.691561,12.480860,-0.146216,-0.070044,0.047481,0.826406,0.043247,10.262169,-0.757997,-2.943521,1,0,,38.990633,-76.937846,-6.412000,,,
2026-09-11T16:31:41.475,11.262791,2.441672,19.994170,22.608070,0.000000,-9.210589,3.168781,2.437938,0.038936,0.081970,1.518338,12.694872,12.561646,-0.114650,-0.171079,0.083453,1.039505,1.199059,11.533994,-0.713760,-2.814500,1,0,,38.990633,-76.937846,-6.412000,,,
2026-09-11T16:31:41.509,11.296206,2.461390,20.076518,22.790649,0.000000,-9.439929,3.247682,2.457437,0.063243,0.133143,1.521932,12.697308,12.643418,-0.085551,-0.064760,0.134626,0.371574,-0.081297,10.776136,-0.711092,-2.778448,1,0,,38.990633,-76.937846,-6.412000,,,
2026-09-11T16:31:41.542,11.329627,2.471653,20.159322,22.885676,0.000000,-9.842303,3.386113,2.467338,0.077404,0.162956,1.526880,12.698776,12.725733,-0.079914,-0.057919,0.164439,-0.897603,-0.371966,7.723227,-0.787227,-2.766557,1,0,,38.990633,-76.937846,-6.412000,,,
2026-09-11T16:31:41.576,11.363044,2.443116,20.240941,22.621446,0.000000,-10.151293,3.492417,2.438579,0.088395,0.186095,1.532712,12.699370,12.807747,-0.023469,0.008685,0.187578,0.348430,-2.439012,10.582650,-0.779776,-2.892545,1,0,,38.990633,-76.937846,-6.412000,,,
2026-09-11T16:31:41.609,11.396473,2.463094,20.323335,22.806426,0.000000,-10.260470,3.529978,2.458421,0.087714,0.184662,1.538909,12.699290,12.889651,-0.054025,-0.027785,0.186145,0.031185,-0.673030,6.399526,-0.789681,-2.902343,1,0,,38.990633,-76.937846,-6.412000,,,
2026-09-11T16:31:41.642,11.429892,2.473094,20.405957,22.899017,0.000000,-10.395052,3.576280,2.468278,0.088034,0.185335,1.545091,12.698724,12.972023,-0.019820,-0.109826,0.186818,0.324110,-0.694409,9.360938,-0.777463,-2.913645,1,0,,38.990633,-76.937846,-6.412000,,,
2026-09-11T16:31:41.676,11.463313,2.473104,20.488989,22.899108,0.000000,-10.907290,3.752508,2.467801,0.093386,0.196603,1.551474,12.697550,13.054553,-0.013267,-0.048317,0.198087,-0.848766,0.374222,7.241427,-0.838277,-2.857137,1,0,,38.990633,-76.937846,-6.412000,,,
2026-09-11T16:31:41.709,11.496733,2.463818,20.571748,22.813133,0.000000,-11.139376,3.832354,2.458309,0.100091,0.210718,1.558280,12.695629,13.136909,-0.022241,-0.086427,0.212202,-1.308207,-0.455617,5.650592,-0.923882,-2.857350,1,0,,38.990633,-76.937846,-6.412000,,,
2026-09-11T16:31:41.743,11.530158,2.473979,20.654415,22.907209,0.000000,-13.059237,4.492857,2.466376,0.110395,0.232410,1.565686,12.692836,13.219240,0.092177,-0.174582,0.233894,2.501676,1.648596,22.846945,-0.756357,-2.724325,1,0,,38.990633,-76.937846,-6.412000,,,
2026-09-11T16:31:41.776,11.563577,2.415811,20.734531,22.368619,0.000000,-14.298632,4.919254,2.406912,0.111492,0.234719,1.573491,12.689231,13.300672,0.034189,-0.212566,0.236203,0.707256,0.103558,18.357265,-0.701662,-2.692714,1,0,,38.990633,-76.937846,-6.412000,,,
2026-09-11T16:31:41.809,11.597005,2.416173,20.814919,22.371974,0.000000,-15.029910,5.170840,2.406340,0.100549,0.211681,1.580953,12.685170,13.381098,-0.011137,-0.045724,0.213165,3.581977,1.606820,18.746981,-0.459831,-2.560103,1,0,,38.990633,-76.937846,-6.412000,,,
2026-09-11T16:31:41.843,11.630427,2.378189,20.894625,22.020265,0.000000,-16.278918,5.600545,2.366836,0.113925,0.239842,1.588498,12.680478,13.460803,-0.032309,0.083503,0.241326,1.545920,1.004397,16.888130,-0.347124,-2.471950,1,0,,38.990633,-76.937846,-6.412000,,,
2026-09-11T16:31:41.877,11.663846,2.369103,20.973738,21.936141,0.000000,-16.233599,5.584954,2.357857,0.112955,0.237801,1.596479,12.674976,13.539649,-0.022392,-0.062405,0.239284,1.051077,-1.214652,12.643126,-0.260654,-2.528526,1,0,,38.990633,-76.937846,-6.412000,,,
2026-09-11T16:31:41.910,11.697267,2.360055,21.052714,21.852364,0.000000,-15.929415,5.480303,2.349268,0.126152,0.265583,1.604891,12.668632,13.618151,0.003760,-0.034743,0.267066,-0.355393,-0.371672,10.392696,-0.265033,-2.533806,1,0,,38.990633,-76.937846,-6.412000,,,
2026-09-11T16:31:41.943,11.730685,2.350517,21.131234,21.764043,0.000000,-15.813372,5.440380,2.339929,0.123190,0.259347,1.613662,12.661455,13.696284,-0.009708,0.024111,0.260830,-1.584657,-0.924081,9.464888,-0.348430,-2.573817,1,0,,38.990633,-76.937846,-6.412000,,,
2026-09-11T16:31:41.976,11.764100,2.340750,21.209435,21.673613,0.000000,-16.050265,5.521880,2.329888,0.124673,0.262469,1.622380,12.653636,13.774022,0.004612,0.009595,0.263953,-0.064626,-0.499453,11.663147,-0.334470,-2.586093,1,0,,38.990633,-76.937846,-6.412000,,,
2026-09-11T16:31:42.010,11.797513,2.321756,21.286953,21.497742,0.000000,-16.771243,5.769923,2.309993,0.121692,0.256193,1.631045,12.645196,13.851186,0.005715,0.029456,0.257677,-0.607718,2.193650,9.245710,-0.362834,-2.421981,1,0,,38.990633,-76.937846,-6.412000,,,
2026-09-11T16:31:42.044,11.830942,2.293132,21.363833,21.232707,0.000000,-18.469317,6.354123,2.279045,0.137462,0.289394,1.640164,12.635909,13.927446,-0.032034,0.043989,0.290877,-0.194858,-0.162888,8.458824,-0.368579,-2.417188,1,1,11.835803,38.990624,-76.937821,-6.506000,6.641114,-17.378099,5.185284
2026-09-11T16:31:42.077,11.864366,2.283685,21.440348,21.145231,0.000000,-20.748293,7.138174,2.265985,0.144929,0.305114,1.650100,12.625563,14.002840,-0.050971,0.038448,0.306598,-1.596130,2.120394,9.359173,-0.467912,-2.266166,1,0,,38.990624,-76.937821,-6.506000,,,
2026-09-11T16:31:42.110,11.897782,2.206643,21.515177,20.431883,0.000000,-22.291873,7.669222,2.186905,0.201770,0.424778,1.662295,12.613453,14.076470,0.011691,0.137387,0.426262,1.792852,-6.159753,9.541478,-0.354407,-2.670240,1,0,,38.990624,-76.937821,-6.506000,,,
2026-09-11T16:31:42.143,11.931203,2.207164,21.588275,20.436704,0.000000,-22.763598,7.831513,2.186578,0.170353,0.358638,1.675386,12.600111,14.148595,0.055158,-0.036907,0.360122,1.724303,4.936472,7.820705,-0.252258,-2.339415,1,0,,38.990624,-76.937821,-6.506000,,,
2026-09-11T16:31:42.177,11.964624,2.197943,21.663149,20.351321,0.000000,-22.138751,7.616543,2.178551,0.174263,0.366870,1.687510,12.586334,14.220455,-0.058482,0.296656,0.368353,-0.222905,-10.000233,16.514497,-0.278985,-2.984063,1,0,,38.990624,-76.937821,-6.506000,,,
2026-09-11T16:31:42.210,11.998039,2.188493,21.736064,20.263825,0.000000,-22.266467,7.660482,2.168962,0.174333,0.367018,1.699771,12.571654,14.291827,-0.007495,0.116008,0.368501,0.424726,-4.360233,6.481607,-0.266053,-3.254916,1,0,,38.990624,-76.937821,-6.506000,,,
2026-09-11T16:31:42.244,12.031455,2.227841,21.810757,20.628158,0.000000,-22.596056,7.773873,2.207366,0.156397,0.329257,1.711405,12.556349,14.363541,-0.056004,-0.148272,0.330741,1.706749,3.809001,8.737039,-0.174088,-2.986914,1,0,,38.990624,-76.937821,-6.506000,,,
2026-09-11T16:31:42.277,12.064881,2.247020,21.886406,20.805736,0.000000,-22.641375,7.789464,2.226286,0.154344,0.324935,1.722338,12.540424,14.436094,-0.089259,-0.005625,0.326419,1.277022,1.272315,16.174598,-0.114922,-2.886660,1,0,,38.990624,-76.937821,-6.506000,,,
2026-09-11T16:31:42.311,12.098294,2.237463,21.961053,20.717250,0.000000,-23.317034,8.021915,2.215569,0.178319,0.375408,1.734038,12.523305,14.508511,0.089186,-0.115225,0.376892,-0.820130,4.621972,9.737317,-0.195260,-2.576923,1,0,,38.990624,-76.937821,-6.506000,,,
2026-09-11T16:31:42.346,12.131712,2.257187,22.036793,20.899883,0.000000,-24.956057,8.585799,2.231892,0.178193,0.375143,1.746579,12.504895,14.580751,-0.008798,-0.086496,0.376627,0.845235,1.478941,8.995738,-0.172115,-2.475276,1,0,,38.990624,-76.937821,-6.506000,,,
2026-09-11T16:31:42.378,12.165168,2.315678,22.114995,21.441465,0.000000,-27.116930,9.329219,2.285049,0.193011,0.406338,1.759652,12.485084,14.653930,0.077401,-0.116752,0.407822,1.229754,0.446301,10.641686,-0.129572,-2.447756,1,0,,38.990624,-76.937821,-6.506000,,,
2026-09-11T16:31:42.411,12.198586,2.345009,22.192512,21.713044,0.000000,-31.830065,10.950711,2.302308,0.212887,0.448184,1.773930,12.463504,14.727785,0.208532,-0.109299,0.449668,0.200448,3.133127,7.618983,-0.155115,-2.252751,1,0,,38.990624,-76.937821,-6.506000,,,
2026-09-11T16:31:42.445,12.232006,2.345561,22.271397,21.718157,0.000000,-35.165102,12.098086,2.293467,0.232208,0.488860,1.789588,12.440153,14.801316,0.228066,-0.102317,0.490343,0.101891,0.268800,8.701245,-0.185890,-2.251781,1,0,,38.990624,-76.937821,-6.506000,,,
2026-09-11T16:31:42.478,12.265423,2.375349,22.351057,21.993968,0.000000,-35.188448,12.106118,2.322523,0.240549,0.506419,1.806218,12.415087,14.874680,0.227158,-0.115449,0.507903,0.281255,0.178285,9.102042,-0.200564,-2.260272,1,0,,38.990624,-76.937821,-6.506000,,,
2026-09-11T16:31:42.511,12.298839,2.375628,22.430261,21.996553,0.000000,-35.314105,12.149348,2.322419,0.240872,0.507099,1.823152,12.388543,14.948045,0.249252,-0.106621,0.508583,0.632039,0.876813,9.522159,-0.187350,-2.223401,1,0,,38.990624,-76.937821,-6.506000,,,
2026-09-11T16:31:42.545,12.332257,2.385701,22.510149,22.089824,0.000000,-34.933703,12.018476,2.333408,0.231930,0.488273,1.839784,12.360858,15.021175,0.252493,-0.056662,0.489756,-0.044424,0.081101,9.770856,-0.215062,-2.236126,1,0,,38.990624,-76.937821,-6.506000,,,
2026-09-11T16:31:42.578,12.365677,2.375901,22.589535,21.999084,0.000000,-34.047930,11.713737,2.326421,0.218409,0.459809,1.855626,12.332334,15.094016,0.280100,-0.008101,0.461292,0.007257,-0.971741,8.964357,-0.236227,-2.312580,1,0,,38.990624,-76.937821,-6.506000,,,
2026-09-11T16:31:42.611,12.399093,2.366434,22.668739,21.911424,0.000000,-32.358782,11.132609,2.321904,0.209496,0.441044,1.870677,12.303105,15.166324,0.269443,-0.039274,0.442528,0.042169,0.212020,11.390130,-0.251249,-2.308327,1,0,,38.990624,-76.937821,-6.506000,,,
2026-09-11T16:31:42.645,12.432509,2.366951,22.747624,21.916208,0.000000,-29.938357,10.299893,2.328808,0.191890,0.403979,1.884796,12.273234,15.238369,0.244693,0.023516,0.405463,-0.451400,-0.384421,7.919655,-0.298522,-2.337454,1,0,,38.990624,-76.937821,-6.506000,,,
2026-09-11T16:31:42.679,12.465924,2.357513,22.826372,21.828823,0.000000,-26.392519,9.079995,2.327971,0.173588,0.365449,1.897651,12.242933,15.310289,0.202819,0.007095,0.366932,0.291846,-0.617917,10.374455,-0.304162,-2.375578,1,0,,38.990624,-76.937821,-6.506000,,,
2026-09-11T16:31:42.712,12.499343,2.318899,22.903616,21.471289,0.000000,-22.499926,7.740800,2.297768,0.157824,0.332260,1.909310,12.212459,15.381538,0.124531,0.025650,0.333744,-0.185444,-1.035386,9.903344,-0.348112,-2.434739,1,0,,38.990624,-76.937821,-6.506000,,,
2026-09-11T16:31:42.745,12.532763,2.309776,22.981043,21.386819,0.000000,-20.370638,7.008247,2.292519,0.129555,0.272747,1.919419,12.182100,15.452144,0.078884,0.039694,0.274230,-0.376477,-0.500041,9.292880,-0.410292,-2.449486,1,0,,38.990624,-76.937821,-6.506000,,,
2026-09-11T16:31:42.779,12.566181,2.291075,23.057194,21.213658,0.000000,-18.245471,6.277111,2.277339,0.113666,0.239296,1.927975,12.151896,15.522391,0.046175,-0.020195,0.240780,0.644395,-1.464035,13.095997,-0.409480,-2.521488,1,0,,38.990624,-76.937821,-6.506000,,,
2026-09-11T16:31:42.812,12.599620,2.262376,23.133208,20.947926,0.000000,-14.200442,4.885473,2.254157,0.106445,0.224095,1.935723,12.121690,15.591972,0.063481,0.013676,0.225579,0.848373,-0.131115,9.864706,-0.399719,-2.503485,1,0,,38.990624,-76.937821,-6.506000,,,
2026-09-11T16:31:42.846,12.633036,2.243400,23.208219,20.772220,0.000000,-11.421587,3.929445,2.238126,0.083959,0.176755,1.942420,12.091702,15.660852,0.059889,0.125292,0.178239,0.560548,0.053348,5.611757,-0.414065,-2.466592,1,0,,38.990624,-76.937821,-6.506000,,,
2026-09-11T16:31:42.879,12.666456,2.272586,23.284142,21.042460,0.000000,-11.533511,3.967951,2.267138,0.080431,0.169329,1.948203,12.061604,15.729911,0.043418,0.036605,0.170813,1.843650,0.235850,13.155915,-0.347188,-2.417487,1,0,,38.990624,-76.937821,-6.506000,,,
2026-09-11T16:31:42.912,12.699874,2.321354,23.361568,21.494016,0.000000,-11.446993,3.938186,2.315872,0.084943,0.178827,1.954021,12.030610,15.799989,0.135568,0.061549,0.180310,3.181866,-0.397660,10.786531,-0.194848,-2.412054,1,0,,38.990624,-76.937821,-6.506000,,,
2026-09-11T16:31:42.946,12.733290,2.389511,23.441547,22.125106,0.000000,-11.403048,3.923067,2.383912,0.085467,0.179931,1.960015,11.998390,15.871654,0.107292,0.039049,0.181415,1.260155,-0.218786,7.740193,-0.172527,-2.396024,1,0,,38.990624,-76.937821,-6.506000,,,
2026-09-11T16:31:42.979,12.766709,2.457646,23.524032,22.755979,0.000000,-11.354296,3.906295,2.451936,0.077484,0.163123,1.965747,11.964994,15.945286,0.087365,0.014413,0.164607,1.684979,0.315774,11.535072,-0.128413,-2.343559,1,0,,38.990624,-76.937821,-6.506000,,,
2026-09-11T16:31:43.012,12.800125,2.516431,23.608021,23.300288,0.000000,-10.697176,3.680221,2.511242,0.076835,0.161759,1.971175,11.930501,16.020739,0.046412,-0.025945,0.163242,1.081575,-1.190625,9.716331,-0.122667,-2.389943,1,0,,38.990624,-76.937821,-6.506000,,,
2026-09-11T16:31:43.046,12.833538,2.526415,23.692739,23.392733,0.000000,-10.524142,3.620691,2.521372,0.067494,0.142092,1.976251,11.895315,16.097140,0.014297,-0.032282,0.143575,0.920158,-0.272036,10.755836,-0.125117,-2.373027,1,1,12.842247,38.990620,-76.937796,-6.599000,8.803779,-17.786555,3.512062
2026-09-11T16:31:43.079,12.866958,2.585208,23.779463,23.937115,0.000000,-9.438555,3.247209,2.581058,0.064067,0.134878,1.980880,11.859483,16.174538,-0.063873,-0.077084,0.136362,1.022736,-1.285358,8.999367,-0.121639,-2.421473,1,0,,38.990620,-76.937796,-6.599000,,,
2026-09-11T16:31:43.113,12.900376,2.595297,23.865958,24.030530,0.000000,-7.193224,2.474733,2.592877,0.048671,0.102465,1.984845,11.823133,16.252998,-0.182920,-0.006892,0.103948,0.948009,-0.820915,8.824612,-0.121168,-2.433850,1,0,,38.990620,-76.937796,-6.599000,,,
2026-09-11T16:31:43.146,12.933794,2.614818,23.953137,24.211278,0.000000,-3.632281,1.249638,2.614196,0.016496,0.034729,1.987138,11.787041,16.332171,-0.311720,-0.019030,0.036213,0.461403,-1.026364,10.332090,-0.144827,-2.448076,1,0,,38.990620,-76.937796,-6.599000,,,
2026-09-11T16:31:43.179,12.967211,2.605250,24.040407,24.122684,0.000000,-0.054858,0.018873,2.605250,-0.003354,-0.007061,1.987600,11.751553,16.411834,-0.414101,-0.011306,-0.005577,0.292042,-2.250822,8.976713,-0.168899,-2.534611,1,0,,38.990620,-76.937796,-6.599000,,,
2026-09-11T16:31:43.213,13.000627,2.644406,24.128908,24.485240,0.000000,0.872800,-0.300275,2.644370,-0.020817,-0.043825,1.986750,11.716448,16.492214,-0.410953,-0.154230,-0.042342,0.449047,-1.127078,7.602998,-0.170636,-2.540836,1,0,,38.990620,-76.937796,-6.599000,,,
2026-09-11T16:31:43.246,13.034041,2.654396,24.217636,24.577739,0.000000,0.835035,-0.287283,2.654362,-0.010287,-0.021657,1.985656,11.681197,16.573422,-0.287349,-0.020049,-0.020173,-1.213671,0.790514,13.410790,-0.270541,-2.426201,1,0,,38.990620,-76.937796,-6.599000,,,
2026-09-11T16:31:43.280,13.067459,2.606164,24.304724,24.131150,0.000000,-3.394701,1.167902,2.605623,0.025345,0.053358,1.986185,11.645521,16.653745,-0.129522,-0.052566,0.054841,-2.150795,0.763154,8.531688,-0.425021,-2.327386,1,0,,38.990620,-76.937796,-6.599000,,,
2026-09-11T16:31:43.313,13.100875,2.587238,24.390992,23.955904,0.000000,-12.310107,4.235128,2.580173,0.080214,0.168872,1.989898,11.608798,16.732240,0.044716,-0.057558,0.170355,-0.437965,0.343135,7.087168,-0.459933,-2.276237,1,0,,38.990620,-76.937796,-6.599000,,,
2026-09-11T16:31:43.347,13.134293,2.587780,24.477077,23.960924,0.000000,-14.571230,5.013038,2.577881,0.123420,0.259832,1.997062,11.570342,16.809442,0.062434,-0.026128,0.261315,0.208980,1.133747,11.827212,-0.447585,-2.189510,1,0,,38.990620,-76.937796,-6.599000,,,
2026-09-11T16:31:43.380,13.167710,2.578613,24.563026,23.876049,0.000000,-17.613757,6.059779,2.564205,0.147943,0.311459,2.006607,11.530329,16.885602,0.113736,0.024275,0.312943,0.447281,0.934378,9.879023,-0.419434,-2.125072,1,0,,38.990620,-76.937796,-6.599000,,,
2026-09-11T16:31:43.413,13.201124,2.559372,24.648428,23.697887,0.000000,-19.735491,6.789733,2.541422,0.159047,0.334836,2.017405,11.489268,16.960542,0.176568,-0.055952,0.336319,-0.026576,0.801105,13.655466,-0.423470,-2.073407,1,0,,38.990620,-76.937796,-6.599000,,,
2026-09-11T16:31:43.447,13.234540,2.539942,24.733009,23.517983,0.000000,-19.995043,6.879029,2.521658,0.158442,0.333563,2.028572,11.447537,17.034315,0.210640,0.038158,0.335046,0.143864,0.340095,8.400377,-0.415882,-2.051611,1,0,,38.990620,-76.937796,-6.599000,,,
2026-09-11T16:31:43.480,13.267963,2.511121,24.817089,23.251117,0.000000,-19.972384,6.871233,2.493085,0.158194,0.333040,2.039712,11.405350,17.106919,0.227873,-0.056382,0.334524,-1.454032,0.184365,10.384948,-0.511844,-2.039461,1,0,,38.990620,-76.937796,-6.599000,,,
2026-09-11T16:31:43.514,13.301376,2.521110,24.901352,23.343615,0.000000,-19.972384,6.871233,2.503003,0.151466,0.318875,2.050603,11.362622,17.178806,0.175745,-0.063619,0.320359,0.252227,-1.241326,10.885676,-0.502610,-2.117927,1,0,,38.990620,-76.937796,-6.599000,,,
2026-09-11T16:31:43.547,13.334793,2.502130,24.984839,23.167871,0.000000,-19.232180,6.616576,2.485465,0.137261,0.288970,2.060760,11.319506,17.250300,0.195171,0.016337,0.290453,-0.694997,-0.639590,11.523893,-0.558984,-2.151272,1,0,,38.990620,-76.937796,-6.599000,,,
2026-09-11T16:31:43.581,13.368212,2.473603,25.066823,22.903735,0.000000,-14.312365,4.923979,2.464474,0.109453,0.230428,2.069438,11.276638,17.321156,0.140255,-0.004895,0.231911,-0.451890,-0.060115,9.162549,-0.598993,-2.136853,1,0,,38.990620,-76.937796,-6.599000,,,
2026-09-11T16:31:43.614,13.401632,2.483793,25.149810,22.998085,0.000000,-9.867709,3.394854,2.479434,0.074188,0.156186,2.075899,11.234203,17.392107,0.057730,-0.073239,0.157669,0.954481,-0.556724,10.644530,-0.546208,-2.143116,1,0,,38.990620,-76.937796,-6.599000,,,
2026-09-11T16:31:43.647,13.435148,2.493951,25.233252,23.092142,0.000000,-9.821017,3.378790,2.489616,0.057649,0.121367,2.080550,11.191809,17.463811,0.040363,0.043498,0.122850,2.080873,-0.651064,10.702880,-0.420727,-2.149928,1,0,,38.990620,-76.937796,-6.599000,,,
2026-09-11T16:31:43.681,13.468563,2.513658,25.317013,23.274613,0.000000,-8.322070,2.863097,2.510521,0.049115,0.103401,2.084305,11.149351,17.535781,-0.029898,0.026094,0.104884,-0.910351,-0.432277,6.191232,-0.493435,-2.139673,1,0,,38.990620,-76.937796,-6.599000,,,
2026-09-11T16:31:43.714,13.501981,2.513583,25.401230,23.273917,0.000000,-7.178118,2.469536,2.511249,0.034742,0.073141,2.087255,11.106804,17.608117,-0.072761,-0.049454,0.074625,1.940932,-0.805224,9.832246,-0.383345,-2.148821,1,0,,38.990620,-76.937796,-6.599000,,,
2026-09-11T16:31:43.748,13.535397,2.562272,25.486814,23.724739,0.000000,-6.700900,2.305355,2.560198,0.034929,0.073536,2.089706,11.063860,17.681171,-0.039197,-0.143022,0.075019,1.505615,-0.506906,8.745669,-0.301972,-2.138793,1,0,,38.990620,-76.937796,-6.599000,,,
2026-09-11T16:31:43.781,13.568818,2.572256,25.573082,23.817184,0.000000,-6.569064,2.259999,2.570255,0.032242,0.067878,2.092069,11.020281,17.755008,-0.076189,-0.055684,0.069362,-0.371476,-0.149159,9.612773,-0.343530,-2.104745,1,0,,38.990620,-76.937796,-6.599000,,,
2026-09-11T16:31:43.815,13.602236,2.553153,25.658301,23.640306,0.000000,-6.553957,2.254802,2.551176,0.031505,0.066327,2.094311,10.976661,17.828637,-0.068017,-0.156932,0.067810,0.733930,-0.822974,6.670091,-0.314988,-2.114493,1,0,,38.990620,-76.937796,-6.599000,,,
2026-09-11T16:31:43.848,13.635678,2.544064,25.743612,23.556144,0.000000,-6.095965,2.097236,2.542359,0.040656,0.085592,2.096852,10.932944,17.901742,-0.039721,-0.013214,0.087076,-0.232614,-0.895249,7.356753,-0.348514,-2.131982,1,0,,38.990620,-76.937796,-6.599000,,,
2026-09-11T16:31:43.881,13.669093,2.515412,25.827965,23.290854,0.000000,-4.693835,1.614851,2.514413,0.026809,0.056439,2.099225,10.889462,17.974187,-0.029915,-0.363926,0.057923,-6.165833,2.460096,-0.490333,-0.758974,-1.926500,1,0,,38.990620,-76.937796,-6.599000,,,
2026-09-11T16:31:43.915,13.702510,2.506267,25.911817,23.206178,0.000000,-3.876727,1.333736,2.505588,0.020896,0.043991,2.100903,10.846424,18.046186,-0.041190,0.010756,0.045475,-2.248273,-0.636844,2.342220,-0.903075,-1.922307,1,0,,38.990620,-76.937796,-6.599000,,,
2026-09-11T16:31:43.948,13.735932,2.516249,25.996125,23.298606,0.000000,-0.848620,0.291956,2.516217,0.001281,0.002696,2.101683,10.803644,18.118384,0.023808,0.029088,0.004180,-0.298318,-0.017358,9.803708,-0.917358,-1.871222,1,0,,38.990620,-76.937796,-6.599000,,,
2026-09-11T16:31:43.981,13.769347,2.496539,26.078793,23.116102,0.000000,0.032346,-0.011128,2.496539,-0.026493,-0.055775,2.100796,10.761637,18.190837,-0.072595,0.042558,-0.054292,0.413154,1.830705,11.036012,-0.879756,-1.691303,1,0,,38.990620,-76.937796,-6.599000,,,
2026-09-11T16:31:44.015,13.802762,2.487072,26.162189,23.028443,0.000000,0.407941,-0.140347,2.487064,-0.019773,-0.041628,2.099169,10.720269,18.263104,-0.008249,0.047730,-0.040145,-1.438636,1.093540,6.600072,-0.958577,-1.563561,1,0,,38.990620,-76.937796,-6.599000,,,
2026-09-11T16:31:44.048,13.836175,2.497290,26.245449,23.123053,0.000000,0.222547,-0.076564,2.497287,-0.006881,-0.014486,2.098231,10.678710,18.335262,0.039134,0.085910,-0.013003,0.967916,1.068631,10.639529,-0.890158,-1.443254,1,1,13.837880,38.990621,-76.937768,-6.619000,11.252946,-17.704456,3.512627
2026-09-11T16:31:44.082,13.869597,2.478122,26.328709,22.945570,0.000000,0.144269,-0.049634,2.478121,0.003489,0.007346,2.098112,10.636915,18.407138,0.044604,0.095255,0.008829,-1.147770,1.614763,6.753840,-0.971839,-1.292360,1,0,,38.990621,-76.937768,-6.619000,,,
2026-09-11T16:31:44.116,13.903016,2.478575,26.411604,22.949767,0.000000,-1.956866,0.673234,2.478404,0.024877,0.052373,2.099110,10.594793,18.478449,0.088183,0.131380,0.053856,-1.155518,-5.178205,10.558526,-1.064851,-1.591106,1,0,,38.990621,-76.937768,-6.619000,,,
2026-09-11T16:31:44.148,13.936434,2.401504,26.492176,22.236146,0.000000,-3.779910,1.300428,2.400885,0.064744,0.136302,2.102262,10.552296,18.548039,0.009438,0.189693,0.137786,-1.813446,1.531210,6.247719,-1.211057,-1.464035,1,0,,38.990621,-76.937768,-6.619000,,,
2026-09-11T16:31:44.182,13.969847,2.382743,26.571015,22.062433,0.000000,-6.565630,2.258818,2.380891,0.025150,0.052948,2.105424,10.510406,18.616082,-0.109397,0.121568,0.054431,0.599382,-10.775841,5.029144,-1.208864,-2.124028,1,0,,38.990621,-76.937768,-6.619000,,,
2026-09-11T16:31:44.216,14.003263,2.393018,26.650857,22.157572,0.000000,-7.095721,2.441188,2.390846,0.042365,0.089190,2.107799,10.468733,18.684058,0.004921,0.009934,0.090674,-2.855010,0.772764,8.278676,-1.439184,-2.032806,1,0,,38.990621,-76.937768,-6.619000,,,
2026-09-11T16:31:44.249,14.036676,2.344877,26.728785,21.711826,0.000000,-7.579119,2.607495,2.342449,0.046893,0.098722,2.110938,10.426895,18.751176,-0.061498,0.000236,0.100205,1.400194,-2.457252,1.461975,-1.402328,-2.153486,1,0,,38.990621,-76.937768,-6.619000,,,
2026-09-11T16:31:44.282,14.070091,2.393667,26.808855,22.163582,0.000000,-8.135302,2.798842,2.390812,0.047125,0.099211,2.114245,10.384768,18.818121,-0.036785,0.018439,0.100694,4.076428,-3.682593,10.731319,-1.200315,-2.352836,1,0,,38.990621,-76.937768,-6.619000,,,
2026-09-11T16:31:44.316,14.103510,2.481260,26.892297,22.974633,0.000000,-8.352969,2.873728,2.478140,0.036974,0.077839,2.117204,10.341392,18.886966,-0.084551,-0.046276,0.079323,2.626809,3.476850,11.772099,-1.097915,-2.082097,1,0,,38.990621,-76.937768,-6.619000,,,
2026-09-11T16:31:44.349,14.136925,2.559284,26.977926,23.697070,0.000000,-8.909152,3.065075,2.555622,0.060132,0.126593,2.120619,10.296182,18.957901,-0.123172,-0.010065,0.128077,1.706946,-2.892471,10.715040,-1.055924,-2.236508,1,0,,38.990621,-76.937768,-6.619000,,,
2026-09-11T16:31:44.382,14.170340,2.627616,27.065743,24.329774,0.000000,-9.498293,3.267761,2.623343,0.064938,0.136711,2.125018,10.249025,19.030478,-0.154551,0.007754,0.138195,1.580734,0.941046,12.447189,-1.022024,-2.142541,1,0,,38.990621,-76.937768,-6.619000,,,
2026-09-11T16:31:44.417,14.203755,2.705575,27.156887,25.051624,0.000000,-11.192248,3.850544,2.699468,0.114767,0.241614,2.131339,10.199433,19.104356,-0.019792,-0.084582,0.243098,1.250152,1.483354,14.752732,-1.009322,-2.033479,1,0,,38.990621,-76.937768,-6.619000,,,
2026-09-11T16:31:44.449,14.237174,2.783711,27.249900,25.775104,0.000000,-16.615374,5.716298,2.769869,0.137944,0.290409,2.140229,10.146935,19.179276,0.024527,-0.042503,0.291892,2.283380,-0.856709,6.007162,-0.926198,-2.087452,1,0,,38.990621,-76.937768,-6.619000,,,
2026-09-11T16:31:44.483,14.270591,2.861772,27.345282,26.497887,0.000000,-24.923098,8.574460,2.829786,0.185011,0.389496,2.151589,10.091513,19.254845,0.141296,-0.061623,0.390980,1.122763,4.381121,11.355316,-0.918980,-1.820095,1,0,,38.990621,-76.937768,-6.619000,,,
2026-09-11T16:31:44.516,14.304010,2.949272,27.444264,27.308076,0.000000,-28.522494,9.812785,2.906124,0.271062,0.570656,2.167633,10.031946,19.330298,0.133091,-0.112165,0.572140,0.508867,2.012227,5.326188,-0.946882,-1.745621,1,0,,38.990621,-76.937768,-6.619000,,,
2026-09-11T16:31:44.550,14.337428,2.997684,27.545388,27.756333,0.000000,-30.336611,10.436908,2.948087,0.280522,0.590572,2.187036,9.968613,19.405407,0.046219,-0.238315,0.592056,1.293693,-0.689898,15.992881,-0.908505,-1.852733,1,0,,38.990621,-76.937768,-6.619000,,,
2026-09-11T16:31:44.583,14.370849,2.978762,27.644188,27.581133,0.000000,-21.907351,7.536933,2.953027,0.218193,0.459354,2.204580,9.904154,19.480502,-0.136296,-0.054080,0.460838,-0.506219,-1.006947,10.147922,-0.969552,-1.954297,1,0,,38.990621,-76.937768,-6.619000,,,
2026-09-11T16:31:44.616,14.404261,2.940054,27.742304,27.222719,0.000000,-16.703951,5.746772,2.925277,0.150570,0.316990,2.217550,9.840545,19.555581,-0.201409,-0.067158,0.318474,-2.463234,-1.930047,9.432723,-1.141757,-2.086793,1,0,,38.990621,-76.937768,-6.619000,,,
2026-09-11T16:31:44.650,14.437685,2.872337,27.837731,26.595716,0.000000,-9.734499,3.349025,2.867432,0.096029,0.202167,2.226226,9.778597,19.630092,-0.215157,-0.014125,0.203650,-1.073436,-1.988200,10.023083,-1.210051,-2.199090,1,0,,38.990621,-76.937768,-6.619000,,,
2026-09-11T16:31:44.684,14.471103,2.824533,27.932065,26.153086,0.000000,-10.414965,3.583130,2.819012,0.074367,0.156563,2.232220,9.718210,19.703504,-0.111421,0.006931,0.158046,-0.425314,0.393835,8.032137,-1.223230,-2.146442,1,0,,38.990621,-76.937768,-6.619000,,,
2026-09-11T16:31:44.717,14.504520,2.805712,28.025260,25.978811,0.000000,-10.559161,3.632739,2.800074,0.088495,0.186306,2.237949,9.658187,19.775749,-0.000343,-0.021706,0.187789,0.119935,-0.732263,9.136856,-1.186490,-2.172727,1,0,,38.990621,-76.937768,-6.619000,,,
2026-09-11T16:31:44.750,14.537938,2.786646,28.118227,25.802279,0.000000,-12.529833,4.310722,2.778763,0.109575,0.230685,2.244917,9.597664,19.846719,0.074019,-0.010644,0.232168,-1.270648,0.356276,10.889795,-1.228995,-2.135779,1,0,,38.990621,-76.937768,-6.619000,,,
2026-09-11T16:31:44.784,14.571356,2.738042,28.209689,25.352245,0.000000,-14.629595,5.033118,2.727485,0.125959,0.265176,2.253202,9.536877,19.915890,0.140494,-0.027552,0.266660,-0.211922,0.479545,13.178863,-1.198743,-2.096578,1,0,,38.990621,-76.937768,-6.619000,,,
2026-09-11T16:31:44.817,14.604776,2.689872,28.299238,24.906225,0.000000,-14.853442,5.110129,2.679181,0.134979,0.284167,2.262381,9.476212,19.982977,0.152968,-0.022767,0.285650,-1.117566,0.092869,10.655514,-1.226366,-2.085394,1,0,,38.990621,-76.937768,-6.619000,,,
2026-09-11T16:31:44.851,14.638198,2.631976,28.386918,24.370145,0.000000,-14.809496,5.095010,2.621576,0.127207,0.267805,2.271605,9.416046,20.048137,0.156954,-0.023850,0.269288,-1.084616,-0.124054,10.303651,-1.251851,-2.084573,1,0,,38.990621,-76.937768,-6.619000,,,
2026-09-11T16:31:44.884,14.671617,2.603273,28.474052,24.104377,0.000000,-12.779086,4.396474,2.595612,0.106535,0.224285,2.279828,9.356584,20.112007,0.073624,-0.100438,0.225768,-0.514065,-1.323996,9.708486,-1.244473,-2.153899,1,0,,38.990621,-76.937768,-6.619000,,,
2026-09-11T16:31:44.918,14.705124,2.584524,28.560775,23.930779,0.000000,-12.045062,4.143943,2.577767,0.088915,0.187190,2.286722,9.297447,20.175457,-0.036175,-0.145456,0.188673,-0.741873,-0.165536,12.303619,-1.260084,-2.140720,1,0,,38.990621,-76.937768,-6.619000,,,
2026-09-11T16:31:44.951,14.738541,2.555819,28.645266,23.664992,0.000000,-11.369402,3.911492,2.549866,0.078397,0.165045,2.292607,9.238925,20.238091,-0.033802,0.306800,0.166529,1.634867,-1.808542,12.195452,-1.128533,-2.230418,1,0,,38.990621,-76.937768,-6.619000,,,
2026-09-11T16:31:44.984,14.771957,2.488336,28.728252,23.040149,0.000000,-10.380633,3.571319,2.483504,0.035629,0.075008,2.296618,9.181805,20.299844,-0.272261,0.125119,0.076491,7.088737,5.539384,11.000316,-0.647573,-1.826792,1,0,,38.990621,-76.937768,-6.619000,,,
2026-09-11T16:31:45.018,14.805373,2.517826,28.812742,23.313208,0.000000,-9.685061,3.332016,2.513570,0.050311,0.105917,2.299641,9.125220,20.361253,-0.219083,0.005300,0.107401,3.054477,-1.706259,6.328624,-0.437054,-1.903248,1,0,,38.990621,-76.937768,-6.619000,,,
2026-09-11T16:31:45.051,14.838796,2.546917,28.898509,23.582568,0.000000,-9.057467,3.116101,2.543152,0.046314,0.097504,2.303040,9.067629,20.423116,-0.222244,-0.008901,0.098987,0.136607,0.672834,11.174384,-0.424749,-1.823223,1,1,14.838379,38.990625,-76.937739,-6.675000,13.783930,-17.245962,3.513192
2026-09-11T16:31:45.084,14.872215,2.547212,28.982771,23.585296,0.000000,-8.370821,2.879870,2.543995,0.056655,0.119273,2.306662,9.009409,20.485075,-0.189270,0.003597,0.120757,0.062272,-2.924637,8.908263,-0.424219,-1.981242,1,0,,38.990625,-76.937739,-6.675000,,,
2026-09-11T16:31:45.118,14.905631,2.528125,29.067033,23.408565,0.000000,-8.282931,2.849632,2.524999,0.051813,0.109079,2.310478,8.951101,20.546525,-0.215784,0.021181,0.110563,0.594675,-1.501398,10.313262,-0.396994,-2.043299,1,0,,38.990625,-76.937739,-6.675000,,,
2026-09-11T16:31:45.151,14.939050,2.528151,29.151660,23.408802,0.000000,-8.546603,2.940345,2.524822,0.045238,0.095239,2.313892,8.892922,20.607663,-0.186479,0.009790,0.096722,0.593302,-0.908096,14.093333,-0.376153,-2.063881,1,0,,38.990625,-76.937739,-6.675000,,,
2026-09-11T16:31:45.185,14.972470,2.547948,29.237290,23.592115,0.000000,-8.662646,2.980268,2.544502,0.059114,0.124450,2.317563,8.834215,20.668752,-0.098436,-0.035964,0.125934,1.400292,-1.697923,10.865768,-0.307686,-2.140479,1,0,,38.990625,-76.937739,-6.675000,,,
2026-09-11T16:31:45.218,15.005890,2.568029,29.322829,23.778047,0.000000,-8.964770,3.084210,2.564309,0.066274,0.139524,2.321974,8.774554,20.729848,-0.096500,0.056596,0.141008,-0.265368,-0.909567,9.015450,-0.354118,-2.167703,1,0,,38.990625,-76.937739,-6.675000,,,
2026-09-11T16:31:45.251,15.039306,2.539617,29.408230,23.514972,0.000000,-9.150164,3.147992,2.535785,0.058285,0.122705,2.326355,8.714741,20.790579,-0.085041,-0.039682,0.124189,-1.219555,1.426671,8.327415,-0.465731,-2.039887,1,0,,38.990625,-76.937739,-6.675000,,,
2026-09-11T16:31:45.285,15.072724,2.559426,29.493450,23.698392,0.000000,-9.439929,3.247682,2.555316,0.089747,0.188942,2.331562,8.654455,20.850644,-0.107760,0.086488,0.190425,-1.971235,-2.543747,12.168582,-0.623458,-2.182462,1,0,,38.990625,-76.937739,-6.675000,,,
2026-09-11T16:31:45.318,15.106139,2.549439,29.578715,23.605913,0.000000,-9.253848,3.183663,2.545504,0.069977,0.147319,2.337181,8.593595,20.910361,-0.085472,0.067410,0.148803,-0.207999,-1.206512,9.155489,-0.665758,-2.229623,1,0,,38.990625,-76.937739,-6.675000,,,
2026-09-11T16:31:45.352,15.139558,2.559505,29.664709,23.699125,0.000000,-9.678881,3.329890,2.555184,0.073403,0.154533,2.342224,8.532609,20.969947,-0.192161,-0.035616,0.156016,0.535051,-0.715591,9.595121,-0.663400,-2.245671,1,0,,38.990625,-76.937739,-6.675000,,,
2026-09-11T16:31:45.385,15.172972,2.589232,29.751569,23.974366,0.000000,-12.394564,4.264185,2.582064,0.116967,0.246246,2.348920,8.470297,21.029048,-0.097504,-0.113827,0.247730,-0.684602,0.462972,10.528518,-0.743293,-2.200650,1,0,,38.990625,-76.937739,-6.675000,,,
