timestamp,time_s,speed_mps,distance_m,wheel_omega_rad_s,motor_current_A,steer_motor_deg,steer_column_deg,vx_mps,vy_mps,yaw_rate_rad_s,heading_rad,x_m,y_m,gyro_x_rad_s,gyro_y_rad_s,gyro_z_rad_s,accel_x_mps2,accel_y_mps2,accel_z_mps2,grade_deg,bank_deg,moving,gps_new_fix,gps_time_s,gps_latitude_deg,gps_longitude_deg,gps_altitude_m,gps_east_m,gps_north_m,gps_sigma_m
2026-09-11T16:35:57.031,0.000010,1.035545,0.004694,9.588381,0.000000,-18.922525,6.510043,1.028868,0.068119,0.143409,0.000000,0.000000,0.000000,-0.007673,-0.027202,0.144893,1.825116,-0.971545,10.358470,5.790420,-9.505672,1,0,,,,,,,
2026-09-11T16:35:57.065,0.033425,1.035976,0.039784,9.592372,0.000000,-18.855921,6.487129,1.029343,0.069779,0.146903,0.004850,0.034382,0.002387,-0.010573,-0.039476,0.148386,1.069807,-0.145335,8.900712,5.741051,-9.452111,1,1,0.016490,38.990756,-76.937886,-5.329000,0.000000,0.000000,3.349597
2026-09-11T16:35:57.098,0.066840,1.094963,0.076971,10.138545,0.000000,-18.821588,6.475317,1.087978,0.067707,0.142541,0.009686,0.069740,0.004944,-0.008801,-0.020805,0.144024,1.339196,0.150434,9.784585,5.709175,-9.380146,1,0,,38.990756,-76.937886,-5.329000,,,
2026-09-11T16:35:57.132,0.100250,1.144033,0.114340,10.592899,0.000000,-18.768030,6.456891,1.136776,0.067890,0.142926,0.014455,0.106874,0.007659,-0.007416,-0.005614,0.144409,1.605741,0.957717,10.411720,5.695647,-9.256942,1,0,,38.990756,-76.937886,-5.329000,,,
2026-09-11T16:35:57.166,0.133660,1.163676,0.153760,10.774781,0.000000,-18.396555,6.329090,1.156584,0.070295,0.147989,0.019315,0.145140,0.010615,0.019040,-0.027954,0.149473,1.299479,1.031365,8.687123,5.668508,-9.130907,1,0,,38.990756,-76.937886,-5.329000,,,
2026-09-11T16:35:57.200,0.167068,1.193285,0.194136,11.048937,0.000000,-16.960779,5.835130,1.187102,0.067134,0.141334,0.024148,0.184230,0.013762,0.056183,0.009192,0.142818,0.071098,-0.476407,7.256725,5.569485,-9.104160,1,0,,38.990756,-76.937886,-5.329000,,,
2026-09-11T16:35:57.233,0.200477,1.203166,0.233966,11.140430,0.000000,-16.966272,5.837020,1.196928,0.066285,0.139547,0.028840,0.223981,0.017045,0.139964,-0.031383,0.141030,1.150908,1.552000,10.398776,5.551273,-8.945726,1,0,,38.990756,-76.937886,-5.329000,,,
2026-09-11T16:35:57.266,0.233892,1.222351,0.274935,11.318063,0.000000,-16.966272,5.837020,1.216013,0.068649,0.144524,0.033586,0.264205,0.020557,0.117209,-0.028859,0.146008,1.558473,-0.701960,10.624917,5.570315,-8.936223,1,0,,38.990756,-76.937886,-5.329000,,,
2026-09-11T16:35:57.299,0.267302,1.251614,0.316588,11.589016,0.000000,-16.966272,5.837020,1.245124,0.069542,0.146404,0.038446,0.305208,0.024346,0.118620,-0.031207,0.147888,0.447379,2.559928,9.084292,5.526607,-8.715157,1,0,,38.990756,-76.937886,-5.329000,,,
2026-09-11T16:35:57.333,0.300709,1.251774,0.358605,11.590499,0.000000,-17.033564,5.860171,1.245232,0.074453,0.156743,0.043509,0.346671,0.028453,0.093203,-0.025899,0.158226,1.032738,-0.467287,10.101732,5.532437,-8.694222,1,0,,38.990756,-76.937886,-5.329000,,,
2026-09-11T16:35:57.367,0.334122,1.261853,0.400623,11.683822,0.000000,-17.032877,5.859935,1.255259,0.077231,0.162591,0.048844,0.388284,0.032913,0.009282,-0.006307,0.164075,-0.282922,-0.042463,8.510309,5.459895,-8.646476,1,0,,38.990756,-76.937886,-5.329000,,,
2026-09-11T16:35:57.400,0.367532,1.242847,0.441728,11.507839,0.000000,-17.007471,5.851194,1.236371,0.073894,0.155566,0.054159,0.429722,0.037576,-0.000560,0.013115,0.157050,-0.622918,0.988216,9.298077,5.364041,-8.531515,1,0,,38.990756,-76.937886,-5.329000,,,
2026-09-11T16:35:57.433,0.400946,1.165530,0.480556,10.791945,0.000000,-17.032877,5.859935,1.159440,0.074829,0.157534,0.059390,0.469543,0.042325,-0.003692,0.018080,0.159018,-1.769806,-0.055211,8.981911,5.187495,-8.485019,1,0,,38.990756,-76.937886,-5.329000,,,
2026-09-11T16:35:57.468,0.434356,1.117488,0.518654,10.347111,0.000000,-15.029245,5.170612,1.112941,0.060993,0.128407,0.064167,0.507292,0.046931,0.023268,0.022796,0.129890,-1.561415,-0.644003,9.574233,5.021574,-8.474725,1,0,,38.990756,-76.937886,-5.329000,,,
2026-09-11T16:35:57.500,0.467762,1.020742,0.551921,9.451312,0.000000,-11.002756,3.785352,1.018515,0.042256,0.088959,0.067797,0.542702,0.050997,0.014774,-0.004569,0.090443,-2.025171,-0.794927,10.195680,4.825992,-8.470955,1,0,,38.990756,-76.937886,-5.329000,,,
2026-09-11T16:35:57.534,0.501179,0.952994,0.583594,8.824019,0.000000,-2.714258,0.933804,0.952867,0.004832,0.010172,0.069454,0.575511,0.054039,-0.040915,0.000248,0.011656,-1.721754,-0.774725,10.585004,4.653530,-8.460653,1,0,,38.990756,-76.937886,-5.329000,,,
2026-09-11T16:35:57.567,0.534590,0.866218,0.612805,8.020533,0.000000,8.375067,-2.881330,0.865122,-0.020774,-0.043736,0.068893,0.605826,0.055873,-0.063202,0.021286,-0.042252,-0.988216,0.719318,9.968950,4.530798,-8.350301,1,0,,38.990756,-76.937886,-5.329000,,,
2026-09-11T16:35:57.601,0.568004,0.847132,0.640786,7.843817,0.000000,9.490866,-3.265206,0.845757,-0.023946,-0.050412,0.067320,0.634395,0.057073,-0.018771,0.017773,-0.048929,-0.082670,0.954677,9.889124,4.469040,-8.225575,1,0,,38.990756,-76.937886,-5.329000,,,
2026-09-11T16:35:57.634,0.601414,0.857153,0.669314,7.936606,0.000000,9.554037,-3.286939,0.855743,-0.019790,-0.041663,0.065782,0.662804,0.058235,0.062589,0.001974,-0.040180,2.468432,0.838959,9.864902,4.574243,-8.110238,1,0,,38.990756,-76.937886,-5.329000,,,
2026-09-11T16:35:57.668,0.634826,0.945366,0.701215,8.753385,0.000000,8.499350,-2.924088,0.944135,-0.019756,-0.041591,0.064391,0.692852,0.059530,0.036043,-0.000436,-0.040107,2.626515,-0.282235,10.397207,4.683801,-8.068772,1,0,,38.990756,-76.937886,-5.329000,,,
2026-09-11T16:35:57.701,0.668237,1.013489,0.734984,9.384162,0.000000,8.279623,-2.848494,1.012237,-0.014634,-0.030809,0.063182,0.725505,0.061039,0.008190,-0.028842,-0.029325,1.698904,1.300852,10.029948,4.723535,-7.925496,1,0,,38.990756,-76.937886,-5.329000,,,
2026-09-11T16:35:57.735,0.701651,1.062560,0.770439,9.838516,0.000000,7.356085,-2.530763,1.061523,-0.005066,-0.010665,0.062489,0.760103,0.062886,-0.040170,-0.016443,-0.009182,1.260841,2.186785,8.403024,4.724274,-7.727601,1,0,,38.990756,-76.937886,-5.329000,,,
2026-09-11T16:35:57.768,0.735160,1.062776,0.806486,9.840514,0.000000,6.828741,-2.349338,1.061882,-0.008055,-0.016958,0.062026,0.795624,0.064880,-0.028098,-0.000664,-0.015474,0.838174,2.475395,8.836478,4.683877,-7.512186,1,0,,38.990756,-76.937886,-5.329000,,,
2026-09-11T16:35:57.802,0.768569,1.092485,0.842716,10.115604,0.000000,5.791220,-1.992392,1.091825,-0.002778,-0.005849,0.061645,0.831544,0.066923,-0.044248,-0.000968,-0.004366,0.737754,1.019401,9.682988,4.621941,-7.395063,1,0,,38.990756,-76.937886,-5.329000,,,
2026-09-11T16:35:57.834,0.801981,1.092568,0.879310,10.116375,0.000000,3.903631,-1.342992,1.092268,0.004644,0.009777,0.061711,0.867960,0.069203,-0.086741,0.003948,0.011261,-0.184855,-0.238694,9.796942,4.486628,-7.361971,1,0,,38.990756,-76.937886,-5.329000,,,
2026-09-11T16:35:57.870,0.835395,1.092743,0.915858,10.117989,0.000000,0.940069,-0.323418,1.092725,0.014797,0.031152,0.062394,0.904374,0.071791,-0.068351,-0.005422,0.032635,0.327444,2.018993,8.425874,4.376640,-7.184299,1,0,,38.990756,-76.937886,-5.329000,,,
2026-09-11T16:35:57.901,0.868805,1.083044,0.951997,10.028184,0.000000,-4.771448,1.641553,1.082599,0.030840,0.064927,0.063999,0.940592,0.074846,-0.009558,-0.006996,0.066410,-0.110227,-0.875047,10.507041,4.237470,-7.198692,1,0,,38.990756,-76.937886,-5.329000,,,
2026-09-11T16:35:57.934,0.902217,1.073240,0.987543,9.937409,0.000000,-11.069361,3.808266,1.070870,0.053446,0.112518,0.066964,0.976398,0.078605,-0.009472,-0.001684,0.114002,0.660674,0.685485,9.345738,4.152491,-7.114964,1,0,,38.990756,-76.937886,-5.329000,,,
2026-09-11T16:35:57.968,0.935629,1.092683,1.024456,10.117439,0.000000,-20.155741,6.934314,1.084691,0.081581,0.171750,0.071713,1.012165,0.083351,0.015277,0.057663,0.173233,1.160813,0.330190,12.663229,4.100847,-7.059481,1,0,,38.990756,-76.937886,-5.329000,,,
2026-09-11T16:35:58.001,0.969043,1.092865,1.060732,10.119123,0.000000,-21.159616,7.279685,1.084056,0.098220,0.206780,0.078037,1.048071,0.089057,0.015944,0.108894,0.208263,-0.052956,-1.230440,2.589740,3.965594,-7.108286,1,0,,38.990756,-76.937886,-5.329000,,,
2026-09-11T16:35:58.035,1.002457,1.141856,1.098830,10.572743,0.000000,-22.657877,7.795141,1.131305,0.104299,0.219578,0.085160,1.084683,0.095448,-0.081882,0.054461,0.221061,1.989671,-0.304300,8.256905,3.959652,-7.098056,1,0,,38.990756,-76.937886,-5.329000,,,
2026-09-11T16:35:58.068,1.035867,1.180964,1.138705,10.934855,0.000000,-22.670237,7.799393,1.170040,0.099320,0.209096,0.092321,1.122674,0.102246,-0.082544,0.014642,0.210579,1.880817,-1.193469,12.354418,3.944621,-7.145362,1,1,1.016982,38.990747,-76.937887,-5.368000,-0.072022,-1.043379,3.398065
2026-09-11T16:35:58.101,1.069279,1.249201,1.179948,11.566676,0.000000,-21.531092,7.407486,1.238776,0.103294,0.217462,0.099447,1.162406,0.109472,-0.069577,0.002654,0.218945,2.005362,-1.301441,7.602704,3.933797,-7.200759,1,0,,38.990747,-76.937887,-5.368000,,,
2026-09-11T16:35:58.135,1.102690,1.317533,1.224244,12.199376,0.000000,-20.036264,6.893210,1.308009,0.098059,0.206439,0.106529,1.204380,0.117196,-0.084103,0.016197,0.207923,2.150991,0.750307,11.780239,3.929244,-7.122503,1,0,,38.990747,-76.937887,-5.368000,,,
2026-09-11T16:35:58.170,1.136104,1.376223,1.271046,12.742802,0.000000,-19.328333,6.649656,1.366964,0.095320,0.200673,0.113330,1.248446,0.125313,-0.072369,0.004307,0.202156,2.002910,1.254565,8.171980,3.915059,-7.012691,1,0,,38.990747,-76.937887,-5.368000,,,
2026-09-11T16:35:58.204,1.169514,1.434837,1.319352,13.285531,0.000000,-17.284189,5.946395,1.427117,0.082136,0.172918,0.119571,1.294461,0.133684,0.007780,-0.038682,0.174401,2.663977,-0.653221,10.145176,3.945636,-7.026042,1,0,,38.990747,-76.937887,-5.368000,,,
2026-09-11T16:35:58.237,1.202926,1.493632,1.369481,13.829926,0.000000,-15.549723,5.349675,1.487126,0.072587,0.152814,0.125013,1.342467,0.142191,0.077703,0.023977,0.154297,2.188648,-1.159048,8.543946,3.948321,-7.070783,1,0,,38.990747,-76.937887,-5.368000,,,
2026-09-11T16:35:58.271,1.236336,1.562389,1.421479,14.466569,0.000000,-14.451776,4.971941,1.556511,0.066319,0.139618,0.129898,1.392604,0.150958,0.113648,-0.011965,0.141102,1.345767,0.273507,10.212744,3.901582,-7.021483,1,0,,38.990747,-76.937887,-5.368000,,,
2026-09-11T16:35:58.302,1.269748,1.601639,1.474752,14.829987,0.000000,-13.001581,4.473021,1.596760,0.062853,0.132323,0.134441,1.444537,0.160041,0.156351,-0.009014,0.133806,0.948107,-0.090613,9.541282,3.836210,-6.995951,1,0,,38.990747,-76.937887,-5.368000,,,
2026-09-11T16:35:58.335,1.303161,1.621462,1.528801,15.013538,0.000000,-9.571787,3.293046,1.618785,0.049888,0.105026,0.138406,1.497503,0.169214,0.093211,0.005927,0.106510,1.253192,0.569668,8.386255,3.799508,-6.925208,1,0,,38.990747,-76.937887,-5.368000,,,
2026-09-11T16:35:58.368,1.336573,1.660830,1.583624,15.378054,0.000000,-4.268824,1.468632,1.660284,0.028634,0.060282,0.141168,1.551567,0.178146,0.031548,-0.023566,0.061765,0.484841,-1.569947,8.483243,3.725162,-6.989461,1,0,,38.990747,-76.937887,-5.368000,,,
2026-09-11T16:35:58.402,1.369984,1.660812,1.639449,15.377890,0.000000,3.805441,-1.309211,1.660379,-0.003393,-0.007144,0.142055,1.606425,0.186393,-0.003630,-0.030139,-0.005660,-0.336466,-3.522941,6.469349,3.612146,-7.172404,1,0,,38.990747,-76.937887,-5.368000,,,
2026-09-11T16:35:58.436,1.403396,1.641454,1.694910,15.198649,0.000000,8.932623,-3.073150,1.639093,-0.054284,-0.114281,0.140027,1.661133,0.193188,-0.051350,-0.204819,-0.112798,-0.684112,0.068548,17.447796,3.490866,-7.109018,1,0,,38.990747,-76.937887,-5.368000,,,
2026-09-11T16:35:58.469,1.436805,1.641713,1.748275,15.201049,0.000000,11.114782,-3.823893,1.638058,-0.048447,-0.101994,0.136414,1.715591,0.199031,0.188913,-0.098907,-0.100511,1.290457,2.658289,7.883664,3.513379,-6.879739,1,0,,38.990747,-76.937887,-5.368000,,,
2026-09-11T16:35:58.503,1.470218,1.603678,1.801548,14.848867,0.000000,10.939688,-3.763654,1.600219,-0.059919,-0.126145,0.132603,1.769444,0.204493,0.120859,-0.004721,-0.124662,-2.649365,-6.477194,3.065461,3.292889,-7.243179,1,0,,38.990747,-76.937887,-5.368000,,,
2026-09-11T16:35:58.537,1.503642,1.603781,1.855323,14.849821,0.000000,10.494055,-3.610340,1.600598,-0.054611,-0.114970,0.128573,1.822730,0.209561,0.094904,-0.052321,-0.113487,-0.761683,-0.528578,12.555258,3.206517,-7.217942,1,0,,38.990747,-76.937887,-5.368000,,,
2026-09-11T16:35:58.570,1.537053,1.584422,1.908187,14.670578,0.000000,7.792105,-2.680770,1.582688,-0.010386,-0.021866,0.126287,1.875617,0.215243,0.099451,0.028266,-0.020382,1.582401,1.130609,7.912790,3.276605,-7.095072,1,0,,38.990747,-76.937887,-5.368000,,,
2026-09-11T16:35:58.603,1.570466,1.584760,1.961642,14.673707,0.000000,6.797842,-2.338707,1.583440,0.013854,0.029167,0.126409,1.928082,0.221965,-0.036855,0.097480,0.030650,-0.696664,0.635275,14.191890,3.199999,-7.010939,1,0,,38.990747,-76.937887,-5.368000,,,
2026-09-11T16:35:58.637,1.603873,1.536842,2.013184,14.230015,0.000000,1.551870,-0.533900,1.536775,0.026360,0.055495,0.127823,1.979696,0.229239,-0.044301,-0.002824,0.056979,-0.245068,3.517842,10.859786,3.158260,-6.743423,1,0,,38.990747,-76.937887,-5.368000,,,
2026-09-11T16:35:58.670,1.637286,1.498497,2.063359,13.874972,0.000000,-6.851297,2.357098,1.497229,0.054644,0.115040,0.130672,2.029785,0.237112,0.000040,0.051455,0.116523,-1.641731,0.867594,8.104314,3.025747,-6.656330,1,0,,38.990747,-76.937887,-5.368000,,,
2026-09-11T16:35:58.703,1.670698,1.460348,2.111756,13.521740,0.000000,-15.088297,5.190928,1.454359,0.086191,0.181455,0.135626,2.078344,0.245988,0.072837,0.050680,0.182938,-1.135316,2.254941,9.564524,2.924261,-6.486234,1,0,,38.990747,-76.937887,-5.368000,,,
2026-09-11T16:35:58.737,1.704108,1.412354,2.158969,13.077352,0.000000,-21.095758,7.257715,1.401038,0.115716,0.243613,0.142726,2.125113,0.255943,0.113332,0.032618,0.245096,-0.849550,2.024975,7.858265,2.838938,-6.337977,1,0,,38.990747,-76.937887,-5.368000,,,
2026-09-11T16:35:58.770,1.737521,1.393544,2.206227,12.903183,0.000000,-25.725122,8.850386,1.376951,0.134224,0.282577,0.151517,2.170408,0.266874,0.115944,0.042044,0.284060,0.650965,1.060099,9.357996,2.846113,-6.256989,1,0,,38.990747,-76.937887,-5.368000,,,
2026-09-11T16:35:58.803,1.770929,1.394181,2.253394,12.909081,0.000000,-29.238001,10.058945,1.372750,0.141608,0.298122,0.161217,2.215061,0.278578,0.138370,0.044655,0.299605,0.571924,-0.434435,8.825495,2.842982,-6.275044,1,0,,38.990747,-76.937887,-5.368000,,,
2026-09-11T16:35:58.837,1.804342,1.413867,2.300378,13.091365,0.000000,-29.763971,10.239898,1.391347,0.132835,0.279653,0.170870,2.259847,0.290734,0.096236,0.053498,0.281136,0.086004,-0.013239,12.132886,2.803955,-6.264304,1,0,,38.990747,-76.937887,-5.368000,,,
2026-09-11T16:35:58.871,1.837755,1.423515,2.348001,13.180694,0.000000,-28.937250,9.955476,1.402080,0.130523,0.274785,0.180133,2.305029,0.303215,0.071787,0.067670,0.276269,0.638511,-0.379910,8.794996,2.793812,-6.277195,1,0,,38.990747,-76.937887,-5.368000,,,
2026-09-11T16:35:58.904,1.871165,1.375629,2.393801,12.737306,0.000000,-24.172617,8.316267,1.361164,0.109940,0.231452,0.188589,2.349671,0.315623,0.048717,-0.008051,0.232935,0.685485,0.941144,7.216812,2.777426,-6.199802,1,0,,38.990747,-76.937887,-5.368000,,,
2026-09-11T16:35:58.938,1.904578,1.395409,2.440330,12.920450,0.000000,-16.958033,5.834186,1.388181,0.058500,0.123157,0.194513,2.394230,0.327132,-0.045317,-0.025069,0.124641,2.987302,2.755571,8.477947,2.902816,-5.996380,1,0,,38.990747,-76.937887,-5.368000,,,
2026-09-11T16:35:58.972,1.937989,1.396043,2.487724,12.926328,0.000000,-14.358393,4.939814,1.390858,0.062083,0.130700,0.198754,2.439367,0.338178,0.017684,0.046645,0.132184,0.819149,2.784598,10.126053,2.875255,-5.794086,1,0,,38.990747,-76.937887,-5.368000,,,
2026-09-11T16:35:59.006,1.971403,1.406312,2.534891,13.021405,0.000000,-9.599253,3.302495,1.403976,0.047567,0.100140,0.202611,2.484758,0.349281,-0.090981,0.014988,0.101624,2.821569,0.113659,9.149605,2.967345,-5.764362,1,0,,38.990747,-76.937887,-5.368000,,,
2026-09-11T16:35:59.037,2.004812,1.445606,2.583836,13.385242,0.000000,-5.850855,2.012909,1.444714,0.035175,0.074053,0.205521,2.531077,0.360279,-0.031052,0.175051,0.075537,-0.163183,0.052368,15.344367,2.857631,-5.736765,1,0,,38.990747,-76.937887,-5.368000,,,
2026-09-11T16:35:59.071,2.038231,1.465431,2.632825,13.568807,0.000000,-3.925501,1.350516,1.465024,0.006532,0.013751,0.206988,2.578524,0.370919,-0.076463,0.065898,0.015234,1.321446,-1.325075,6.384031,2.840823,-5.793069,1,1,2.014773,38.990734,-76.937886,-5.353000,-0.026216,-2.521345,3.328117
2026-09-11T16:35:59.105,2.071653,1.495131,2.683182,13.843808,0.000000,-2.857767,0.983177,1.494911,0.008626,0.018161,0.207521,2.626877,0.381345,-0.047019,0.033267,0.019644,1.289869,0.744423,8.487460,2.817738,-5.715137,1,0,,38.990734,-76.937886,-5.353000,,,
2026-09-11T16:35:59.138,2.105066,1.534180,2.734177,14.205375,0.000000,-3.161951,1.087827,1.533904,0.019885,0.041863,0.208524,2.676289,0.392262,-0.021124,0.023868,0.043346,0.687838,-0.614485,11.138884,2.748231,-5.728501,1,0,,38.990734,-76.937886,-5.353000,,,
2026-09-11T16:35:59.171,2.138491,1.554166,2.785719,14.390428,0.000000,-3.118692,1.072945,1.553894,0.013267,0.027931,0.209690,2.726653,0.403516,-0.006721,0.038535,0.029414,1.889447,0.235556,10.648159,2.751021,-5.685303,1,0,,38.990734,-76.937886,-5.353000,,,
2026-09-11T16:35:59.205,2.171912,1.574081,2.839266,14.574821,0.000000,-3.184610,1.095623,1.573793,0.012806,0.026960,0.210608,2.777679,0.414846,0.034466,-0.030306,0.028444,1.215240,4.147232,10.552250,2.706853,-5.389163,1,0,,38.990734,-76.937886,-5.353000,,,
2026-09-11T16:35:59.237,2.205325,1.623434,2.893086,15.031799,0.000000,-3.211390,1.104836,1.623132,0.020044,0.042199,0.211763,2.829786,0.426578,-0.011894,0.004234,0.043682,0.397856,-0.870340,10.885284,2.607963,-5.422977,1,0,,38.990734,-76.937886,-5.353000,,,
2026-09-11T16:35:59.271,2.238750,1.662525,2.948547,15.393749,0.000000,-3.453775,1.188225,1.662167,0.017541,0.036929,0.213085,2.883325,0.438769,-0.025415,0.002353,0.038413,1.512284,0.157299,10.883224,2.582201,-5.389406,1,0,,38.990734,-76.937886,-5.353000,,,
2026-09-11T16:35:59.305,2.272169,1.701493,3.006241,15.754564,0.000000,-3.497721,1.203344,1.701118,0.021999,0.046313,0.214476,2.938103,0.451337,0.052088,-0.058834,0.047797,1.712633,1.267608,8.355070,2.569763,-5.285444,1,0,,38.990734,-76.937886,-5.353000,,,
2026-09-11T16:35:59.338,2.305586,1.750010,3.064118,16.203792,0.000000,-1.775614,0.610876,1.749910,0.005589,0.011767,0.215447,2.994340,0.464088,-0.052965,-0.048071,0.013250,0.981646,-1.041859,9.432232,2.510562,-5.328413,1,0,,38.990734,-76.937886,-5.353000,,,
2026-09-11T16:35:59.371,2.339012,1.798714,3.123817,16.654761,0.000000,2.903189,-0.998803,1.798441,-0.005916,-0.012456,0.215435,3.052274,0.476761,-0.030239,-0.022773,-0.010972,2.221402,-0.061586,10.298650,2.535082,-5.304641,1,0,,38.990734,-76.937886,-5.353000,,,
2026-09-11T16:35:59.405,2.372438,1.837967,3.185931,17.018213,0.000000,5.925802,-2.038693,1.836804,-0.027679,-0.058271,0.214253,3.111752,0.489164,-0.024421,-0.050291,-0.056787,1.702042,-0.832290,9.997390,2.530737,-5.325569,1,0,,38.990734,-76.937886,-5.353000,,,
2026-09-11T16:35:59.438,2.405858,1.887000,3.248274,17.472225,0.000000,7.081427,-2.436271,1.885295,-0.035150,-0.073999,0.212043,3.172764,0.501294,0.006948,-0.051182,-0.072516,1.203080,-0.889365,8.514134,2.501132,-5.347856,1,0,,38.990734,-76.937886,-5.353000,,,
2026-09-11T16:35:59.472,2.439284,1.916443,3.312667,17.744847,0.000000,7.298407,-2.510920,1.914603,-0.039862,-0.083920,0.209404,3.235128,0.513351,0.009312,-0.008027,-0.082437,1.633396,0.386088,10.664144,2.510717,-5.285918,1,0,,38.990734,-76.937886,-5.353000,,,
2026-09-11T16:35:59.506,2.472704,1.936087,3.377789,17.926729,0.000000,7.185110,-2.471942,1.934285,-0.030043,-0.063248,0.206945,3.298297,0.525500,0.049723,-0.010838,-0.061765,0.436004,0.505827,6.625863,2.454325,-5.219408,1,0,,38.990734,-76.937886,-5.353000,,,
2026-09-11T16:35:59.539,2.506119,1.975221,3.444096,18.289084,0.000000,6.623434,-2.278704,1.973659,-0.017241,-0.036296,0.205281,3.362368,0.538089,0.016825,-0.063202,-0.034812,-0.582613,0.498374,10.174105,2.341119,-5.157414,1,0,,38.990734,-76.937886,-5.353000,,,
2026-09-11T16:35:59.572,2.539544,1.995282,3.510586,18.474835,0.000000,3.307623,-1.137944,1.994889,0.003095,0.006516,0.204784,3.427351,0.551361,0.006391,-0.067694,0.007999,1.218967,0.147198,10.845076,2.354554,-5.124313,1,0,,38.990734,-76.937886,-5.353000,,,
2026-09-11T16:35:59.606,2.572960,2.015308,3.577895,18.660257,0.000000,-1.490656,0.512840,2.015227,0.037389,0.078713,0.206208,3.492805,0.565695,0.094844,-0.048132,0.080197,-0.242224,0.807382,9.764383,2.280775,-5.058274,1,0,,38.990734,-76.937886,-5.353000,,,
2026-09-11T16:35:59.639,2.606376,2.025513,3.644932,18.754754,0.000000,-5.378443,1.850382,2.024457,0.059709,0.125704,0.209623,3.558511,0.581215,0.065098,-0.053664,0.127188,0.745109,2.668095,14.083919,2.279384,-4.878724,1,0,,38.990734,-76.937886,-5.353000,,,
2026-09-11T16:35:59.672,2.639804,1.996683,3.711922,18.487808,0.000000,-7.234446,2.488915,1.994800,0.070320,0.148041,0.214198,3.623727,0.597468,-0.001366,-0.114350,0.149525,2.927481,-0.282824,20.713705,2.425754,-4.894840,1,0,,38.990734,-76.937886,-5.353000,,,
2026-09-11T16:35:59.706,2.673223,1.957723,3.777181,18.127065,0.000000,-9.137827,3.143748,1.954777,0.087780,0.184799,0.219760,3.687608,0.614253,-0.020925,-0.090906,0.186282,-0.792966,-2.840987,18.346673,2.332447,-5.080666,1,0,,38.990734,-76.937886,-5.353000,,,
2026-09-11T16:35:59.740,2.706644,1.899799,3.840481,17.590730,0.000000,-11.164804,3.841102,1.895531,0.093652,0.197163,0.226143,3.749684,0.631433,-0.029878,-0.045989,0.198647,-1.251917,2.821766,10.506060,2.214624,-4.898614,1,0,,38.990734,-76.937886,-5.353000,,,
2026-09-11T16:35:59.772,2.740070,1.870910,3.902595,17.323239,0.000000,-18.369089,6.319641,1.859541,0.102546,0.215887,0.233046,3.810049,0.648906,0.024455,0.051276,0.217371,-0.608405,-2.478729,12.386289,2.142883,-5.063577,1,0,,38.990734,-76.937886,-5.353000,,,
2026-09-11T16:35:59.806,2.773495,1.851839,3.963889,17.146653,0.000000,-19.169031,6.594850,1.839585,0.133962,0.282026,0.241368,3.869209,0.667274,0.069460,0.040548,0.283510,-0.583986,1.272707,9.055068,2.076562,-4.991388,1,0,,38.990734,-76.937886,-5.353000,,,
2026-09-11T16:35:59.839,2.806913,1.832672,4.025913,16.969187,0.000000,-21.692453,7.463000,1.817147,0.162828,0.342795,0.251808,3.927248,0.686994,0.067137,-0.010242,0.344278,-0.057369,2.453624,9.547755,2.049401,-4.850311,1,0,,38.990734,-76.937886,-5.353000,,,
2026-09-11T16:35:59.872,2.840345,1.833110,4.086478,16.973236,0.000000,-22.394205,7.704428,1.816562,0.152995,0.322095,0.262922,3.984645,0.707560,0.089428,0.011657,0.323578,-0.515045,1.459033,8.028018,1.994977,-4.772707,1,0,,38.990734,-76.937886,-5.353000,,,
2026-09-11T16:35:59.906,2.873762,1.804385,4.147180,16.707267,0.000000,-22.105814,7.605211,1.788513,0.151505,0.318959,0.273633,4.041377,0.728430,0.041318,-0.001769,0.320442,0.534757,3.246982,9.413894,2.008874,-4.579329,1,0,,38.990734,-76.937886,-5.353000,,,
2026-09-11T16:35:59.940,2.907178,1.824691,4.208109,16.895286,0.000000,-20.873972,7.181412,1.810377,0.140867,0.296562,0.283917,4.097841,0.749675,0.007347,0.024031,0.298045,0.389422,-1.851594,8.245824,2.005978,-4.715926,1,0,,38.990734,-76.937886,-5.353000,,,
2026-09-11T16:35:59.973,2.940595,1.825293,4.268219,16.900858,0.000000,-20.205179,6.951323,1.811876,0.121499,0.255787,0.293146,4.154614,0.771099,0.033880,-0.032413,0.257271,0.284883,1.492964,9.782232,1.988569,-4.629783,1,0,,38.990734,-76.937886,-5.353000,,,
2026-09-11T16:36:00.007,2.974016,1.806340,4.329832,16.725368,0.000000,-19.491068,6.705643,1.793983,0.112855,0.237589,0.301391,4.211081,0.792492,0.062159,0.010574,0.239072,0.756583,0.728732,9.430369,1.998872,-4.591645,1,0,,38.990734,-76.937886,-5.353000,,,
2026-09-11T16:36:00.041,3.007438,1.835712,4.390898,16.997330,0.000000,-18.402048,6.330980,1.824516,0.112809,0.237492,0.309330,4.267617,0.814269,0.009507,0.142361,0.238976,3.921287,-0.081886,6.092087,2.208897,-4.606861,1,1,3.015901,38.990718,-76.937884,-5.372000,0.170547,-4.278410,3.616299
2026-09-11T16:36:00.073,3.040869,1.816344,4.451645,16.817996,0.000000,-16.161524,5.560157,1.807798,0.112810,0.237495,0.317269,4.324216,0.836568,0.089707,0.050780,0.238979,-1.159146,1.464525,5.903996,2.080303,-4.521524,1,0,,38.990718,-76.937884,-5.372000,,,
2026-09-11T16:36:00.107,3.074315,1.806824,4.512119,16.729855,0.000000,-13.801523,4.748230,1.800623,0.071456,0.150434,0.323757,4.380518,0.858505,0.038442,-0.040162,0.151918,1.284769,0.095223,11.493982,2.106680,-4.515534,1,0,,38.990718,-76.937884,-5.372000,,,
2026-09-11T16:36:00.140,3.107735,1.807359,4.572548,16.734803,0.000000,-10.041452,3.454628,1.804074,0.062515,0.131611,0.328470,4.436860,0.879922,-0.003428,-0.010922,0.133094,1.338706,-0.250070,8.601119,2.130334,-4.529799,1,0,,38.990718,-76.937884,-5.372000,,,
2026-09-11T16:36:00.174,3.141194,1.788119,4.632201,16.556658,0.000000,-6.237436,2.145907,1.786865,0.046276,0.097423,0.332301,4.493097,0.901132,-0.109826,-0.170323,0.098906,2.957195,0.837978,5.488880,2.257586,-4.469310,1,0,,38.990718,-76.937884,-5.372000,,,
2026-09-11T16:36:00.208,3.174615,1.846711,4.694680,17.099172,0.000000,-5.303598,1.824632,1.845774,0.045345,0.095463,0.335525,4.549943,0.922475,-0.091268,-0.056076,0.096947,0.543288,1.280062,14.152565,2.227495,-4.381086,1,0,,38.990718,-76.937884,-5.372000,,,
2026-09-11T16:36:00.241,3.208039,1.808214,4.755245,16.742718,0.000000,-4.617640,1.588637,1.807519,0.045062,0.094867,0.338705,4.607062,0.944094,-0.085037,0.147486,0.096351,-1.201217,-4.177829,12.621649,2.080789,-4.646836,1,0,,38.990718,-76.937884,-5.372000,,,
2026-09-11T16:36:00.274,3.241458,1.798921,4.815719,16.656673,0.000000,-4.570261,1.572337,1.798243,0.043788,0.092186,0.341831,4.663362,0.965602,-0.048135,0.049236,0.093670,-0.062272,-1.530132,11.080632,2.007154,-4.737868,1,0,,38.990718,-76.937884,-5.372000,,,
2026-09-11T16:36:00.308,3.274872,1.838413,4.877333,17.022344,0.000000,-5.011774,1.724234,1.837581,0.051110,0.107600,0.345169,4.720023,0.987553,-0.031826,0.012144,0.109083,1.325369,1.589756,6.455326,2.020742,-4.628023,1,0,,38.990718,-76.937884,-5.372000,,,
2026-09-11T16:36:00.341,3.308300,1.858494,4.939219,17.208276,0.000000,-7.952677,2.736013,1.856375,0.067219,0.141513,0.349332,4.777404,1.010424,-0.052023,0.021754,0.142997,0.721377,3.080171,10.580199,1.988940,-4.427078,1,0,,38.990718,-76.937884,-5.372000,,,
2026-09-11T16:36:00.375,3.341730,1.897943,5.003612,17.573543,0.000000,-10.837961,3.728656,1.893925,0.081102,0.170741,0.354552,4.835392,1.034362,0.013002,0.006060,0.172225,-0.268212,-0.294101,8.734587,1.890453,-4.450743,1,0,,38.990718,-76.937884,-5.372000,,,
2026-09-11T16:36:00.408,3.375150,1.927451,5.067003,17.846772,0.000000,-15.400034,5.298177,1.919217,0.083821,0.176466,0.360354,4.894117,1.059239,-0.099829,-0.038418,0.177950,0.651946,2.255726,10.976682,1.850006,-4.310097,1,0,,38.990718,-76.937884,-5.372000,,,
2026-09-11T16:36:00.441,3.408574,1.917715,5.130621,17.756621,0.000000,-16.285807,5.602915,1.908553,0.087524,0.184262,0.366382,4.952892,1.084651,0.083417,-0.033648,0.185745,0.268604,3.043886,9.023589,1.786010,-4.120827,1,0,,38.990718,-76.937884,-5.372000,,,
2026-09-11T16:36:00.475,3.441989,1.936996,5.195333,17.935150,0.000000,-15.642420,5.381566,1.928458,0.081930,0.172485,0.372343,5.011654,1.110437,-0.028351,-0.062630,0.173968,1.253486,1.343903,10.504001,1.786207,-4.042479,1,0,,38.990718,-76.937884,-5.372000,,,
2026-09-11T16:36:00.508,3.475406,1.956600,5.260364,18.116666,0.000000,-14.298655,4.919262,1.949393,0.083114,0.174976,0.378148,5.070926,1.136749,-0.007654,0.017381,0.176459,0.783649,0.530638,9.673378,1.752941,-4.018170,1,0,,38.990718,-76.937884,-5.372000,,,
2026-09-11T16:36:00.541,3.508826,1.985966,5.327036,18.388575,0.000000,-13.094278,4.504912,1.979831,0.075130,0.158169,0.383715,5.130893,1.163616,-0.068436,-0.001275,0.159653,2.219245,0.427472,7.774516,1.818336,-3.998996,1,0,,38.990718,-76.937884,-5.372000,,,
2026-09-11T16:36:00.575,3.542242,2.024940,5.394665,18.749444,0.000000,-12.192713,4.194741,2.019516,0.073174,0.154050,0.388931,5.191855,1.191090,-0.037602,-0.052804,0.155534,2.172958,3.537651,8.530020,1.886366,-3.778664,1,0,,38.990718,-76.937884,-5.372000,,,
2026-09-11T16:36:00.608,3.575656,2.054506,5.463342,19.023201,0.000000,-11.824671,4.068121,2.049329,0.071996,0.151570,0.394037,5.253765,1.219271,-0.005788,0.066391,0.153053,0.441593,2.103232,10.152335,1.847504,-3.653566,1,0,,38.990718,-76.937884,-5.372000,,,
2026-09-11T16:36:00.641,3.609079,2.064826,5.532246,19.118762,0.000000,-12.402140,4.266791,2.059103,0.074525,0.156896,0.399192,5.316147,1.248052,0.001855,0.036361,0.158379,-0.796594,0.893092,6.216926,1.736518,-3.608942,1,0,,38.990718,-76.937884,-5.372000,,,
2026-09-11T16:36:00.675,3.642496,2.084794,5.602017,19.303652,0.000000,-12.770182,4.393411,2.078668,0.085554,0.180114,0.404823,5.378724,1.277565,0.037851,0.029434,0.181598,0.218884,-0.197310,9.648567,1.696765,-3.638691,1,0,,38.990718,-76.937884,-5.372000,,,
2026-09-11T16:36:00.708,3.675913,2.094877,5.671742,19.397013,0.000000,-14.274622,4.910994,2.087187,0.083668,0.176143,0.410776,5.441499,1.307765,0.050116,-0.020412,0.177626,0.971741,1.645458,9.246690,1.709507,-3.548446,1,0,,38.990718,-76.937884,-5.372000,,,
2026-09-11T16:36:00.742,3.709337,2.114952,5.742515,19.582892,0.000000,-15.548349,5.349203,2.105742,0.097998,0.206311,0.417167,5.504429,1.338731,0.116778,-0.010464,0.207795,0.850237,3.241490,10.155179,1.718914,-3.360222,1,0,,38.990718,-76.937884,-5.372000,,,
2026-09-11T16:36:00.775,3.742757,2.095683,5.812331,19.404475,0.000000,-16.162897,5.560630,2.085821,0.106508,0.224227,0.424362,5.566965,1.370458,0.056783,-0.049959,0.225711,0.622134,1.964958,11.427689,1.719916,-3.258857,1,0,,38.990718,-76.937884,-5.372000,,,
2026-09-11T16:36:00.809,3.776174,2.066345,5.881600,19.132823,0.000000,-16.674448,5.736622,2.055996,0.114675,0.241421,0.432142,5.628385,1.402557,0.037531,-0.033531,0.242905,-0.108658,-0.549467,6.991063,1.681609,-3.323158,1,0,,38.990718,-76.937884,-5.372000,,,
2026-09-11T16:36:00.842,3.809602,2.056659,5.950460,19.043143,0.000000,-17.305475,5.953719,2.045566,0.115423,0.242996,0.440238,5.688894,1.435004,-0.052615,-0.036315,0.244479,1.799324,2.842163,19.549557,1.771682,-3.167313,1,0,,38.990718,-76.937884,-5.372000,,,
2026-09-11T16:36:00.875,3.843020,2.028063,6.017450,18.778362,0.000000,-17.477823,6.013013,2.016905,0.115352,0.242847,0.448356,5.748526,1.467660,0.018590,-0.030161,0.244330,0.035402,2.005852,12.446110,1.746392,-3.066877,1,0,,38.990718,-76.937884,-5.372000,,,
2026-09-11T16:36:00.909,3.876437,1.999414,6.084623,18.513090,0.000000,-17.692057,6.086717,1.988142,0.125129,0.263429,0.456816,5.806951,1.500535,0.058186,0.022605,0.264913,0.318226,5.606070,7.147969,1.742238,-2.736824,1,0,,38.990718,-76.937884,-5.372000,,,
2026-09-11T16:36:00.942,3.909852,1.980435,6.150657,18.337362,0.000000,-18.662973,6.420748,1.968013,0.140501,0.295791,0.466159,5.864156,1.533938,-0.021017,0.045607,0.297274,-1.550431,0.000785,10.905583,1.620975,-2.776852,1,0,,38.990718,-76.937884,-5.372000,,,
2026-09-11T16:36:00.976,3.943271,1.961447,6.216463,18.161546,0.000000,-19.822718,6.819742,1.947569,0.156929,0.330377,0.476622,5.920190,1.568075,0.168221,0.017205,0.331860,0.205842,4.144977,13.207498,1.614709,-2.552271,1,0,,38.990718,-76.937884,-5.372000,,,
2026-09-11T16:36:01.009,3.976683,1.952073,6.281312,18.074747,0.000000,-21.077219,7.251337,1.936460,0.157944,0.332513,0.487696,5.975240,1.602822,0.134381,0.063710,0.333996,0.058153,1.305461,9.221291,1.596268,-2.513939,1,0,,38.990718,-76.937884,-5.372000,,,
2026-09-11T16:36:01.043,4.010115,1.913874,6.345021,17.721059,0.000000,-21.104685,7.260786,1.898527,0.148343,0.312301,0.498475,6.029287,1.637673,0.162256,0.031803,0.313785,0.252521,-0.021280,13.070990,1.586757,-2.558584,1,1,4.016080,38.990701,-76.937877,-5.407000,0.733180,-6.116277,3.564369
2026-09-11T16:36:01.076,4.043537,1.894683,6.408503,17.543358,0.000000,-19.819971,6.818797,1.881281,0.136666,0.287718,0.508501,6.082315,1.672319,0.168837,-0.000276,0.289202,1.120998,3.569621,11.295790,1.629788,-2.367020,1,0,,38.990701,-76.937877,-5.407000,,,
2026-09-11T16:36:01.110,4.076954,1.914748,6.472759,17.729144,0.000000,-17.996241,6.191367,1.903579,0.124572,0.262257,0.517691,6.135268,1.707166,0.057932,0.066919,0.263740,-0.579671,-0.323423,5.665498,1.557580,-2.426763,1,0,,38.990701,-76.937877,-5.407000,,,
2026-09-11T16:36:01.143,4.110375,1.924453,6.537289,17.819005,0.000000,-11.714121,4.030087,1.919694,0.063251,0.133160,0.524298,6.189121,1.741691,-0.069483,-0.190898,0.134644,-3.144699,0.427570,8.101274,1.313553,-2.421492,1,0,,38.990701,-76.937877,-5.407000,,,
2026-09-11T16:36:01.176,4.143803,1.895194,6.600041,17.548089,0.000000,-5.474573,1.883454,1.894170,0.029426,0.061949,0.527559,6.243475,1.775032,-0.094901,0.031557,0.063433,2.246311,0.723339,9.739180,1.416091,-2.388187,1,0,,38.990701,-76.937877,-5.407000,,,
2026-09-11T16:36:01.210,4.177221,1.885813,6.663660,17.461234,0.000000,-3.582865,1.232637,1.885377,0.021814,0.045924,0.529362,6.297580,1.807612,-0.034497,0.047040,0.047408,0.995963,1.711359,7.234856,1.430566,-2.289343,1,0,,38.990701,-76.937877,-5.407000,,,
2026-09-11T16:36:01.243,4.210637,1.925280,6.728463,17.826665,0.000000,-2.323557,0.799389,1.925092,0.011528,0.024268,0.530535,6.352232,1.840276,0.042127,0.060718,0.025752,0.154945,3.784190,8.170705,1.382613,-2.054898,1,0,,38.990701,-76.937877,-5.407000,,,
2026-09-11T16:36:01.277,4.244058,1.925539,6.792856,17.829066,0.000000,-3.044535,1.047432,1.925217,0.017920,0.037726,0.531571,6.407461,1.873284,-0.018778,0.049211,0.039209,-1.032248,-0.275175,7.592995,1.247447,-2.087380,1,0,,38.990701,-76.937877,-5.407000,,,
2026-09-11T16:36:01.310,4.277480,1.935661,6.856885,17.922791,0.000000,-3.717447,1.278938,1.935179,0.041223,0.086786,0.533651,6.462534,1.906893,-0.052763,0.021914,0.088269,-2.670155,-1.334685,11.319522,0.995839,-2.194236,1,0,,38.990701,-76.937877,-5.407000,,,
2026-09-11T16:36:01.343,4.310898,1.945913,6.922372,18.017710,0.000000,-4.301783,1.479971,1.945264,0.047191,0.099349,0.536762,6.517552,1.941234,0.039362,-0.014614,0.100833,2.824609,3.904027,7.719403,1.097867,-1.962553,1,0,,38.990701,-76.937877,-5.407000,,,
2026-09-11T16:36:01.377,4.344326,1.965968,6.989362,18.203404,0.000000,-4.970575,1.710060,1.965092,0.058486,0.123128,0.540480,6.572750,1.976275,0.047612,-0.039386,0.124611,0.118562,5.273918,12.715303,1.022016,-1.647831,1,0,,38.990701,-76.937877,-5.407000,,,
2026-09-11T16:36:01.410,4.377744,1.985967,7.055168,18.388586,0.000000,-5.167643,1.777859,1.985011,0.057031,0.120064,0.544544,6.628278,2.012005,-0.030633,-0.005877,0.121548,0.968799,-1.364007,7.645853,0.997697,-1.766011,1,0,,38.990701,-76.937877,-5.407000,,,
2026-09-11T16:36:01.444,4.411165,2.006032,7.122204,18.574371,0.000000,-5.132624,1.765811,2.005079,0.043686,0.091970,0.548087,6.684375,2.048085,-0.065509,-0.020230,0.093454,2.240231,0.779727,9.046046,1.053775,-1.740660,1,0,,38.990701,-76.937877,-5.407000,,,
2026-09-11T16:36:01.477,4.444610,2.035404,7.190106,18.846334,0.000000,-4.756342,1.636356,2.034574,0.037745,0.079462,0.550953,6.741271,2.084529,-0.139194,0.011468,0.080946,1.115605,-3.518136,8.288973,1.036970,-1.992442,1,0,,38.990701,-76.937877,-5.407000,,,
2026-09-11T16:36:01.511,4.478026,2.093560,7.260515,19.384815,0.000000,-3.202463,1.101765,2.093173,0.028046,0.059043,0.553268,6.799414,2.121638,-0.186387,0.033473,0.060527,0.490823,-3.959337,12.672938,0.979927,-2.267282,1,0,,38.990701,-76.937877,-5.407000,,,
2026-09-11T16:36:01.544,4.511444,2.152090,7.332427,19.926760,0.000000,-0.330225,0.113610,2.152086,0.002941,0.006191,0.554358,6.859472,2.159385,-0.154009,-0.004227,0.007675,2.694769,-3.325337,8.230721,1.069734,-2.490922,1,0,,38.990701,-76.937877,-5.407000,,,
2026-09-11T16:36:01.578,4.544874,2.220440,7.407712,20.559627,0.000000,2.688269,-0.924863,2.220150,0.003222,0.006782,0.554574,6.921550,2.197949,-0.192476,0.182367,0.008266,2.351733,2.283478,16.881854,1.142644,-2.349246,1,0,,38.990701,-76.937877,-5.407000,,,
2026-09-11T16:36:01.611,4.578314,2.240398,7.481994,20.744427,0.000000,3.650259,-1.255823,2.239860,-0.019325,-0.040685,0.554008,6.985098,2.236970,-0.149873,0.035210,-0.039201,0.815815,0.713042,1.119527,1.120128,-2.303899,1,0,,38.990701,-76.937877,-5.407000,,,
2026-09-11T16:36:01.645,4.611755,2.279730,7.558920,21.108613,0.000000,3.688025,-1.268816,2.279171,0.005331,0.011223,0.553515,7.049490,2.276508,-0.105174,0.020081,0.012706,2.865405,2.827257,5.441906,1.232788,-2.129713,1,0,,38.990701,-76.937877,-5.407000,,,
2026-09-11T16:36:01.678,4.645174,2.299536,7.636164,21.291996,0.000000,3.383841,-1.164165,2.299061,0.025222,0.053099,0.554590,7.114276,2.317191,-0.005514,-0.005824,0.054583,2.650345,-4.102612,8.940723,1.333847,-2.412214,1,0,,38.990701,-76.937877,-5.407000,,,
2026-09-11T16:36:01.711,4.678590,2.280698,7.712634,21.117576,0.000000,2.393011,-0.823284,2.280463,0.001401,0.002950,0.555526,7.179070,2.357892,-0.035420,-0.016122,0.004433,-0.149355,-0.958208,6.979491,1.262183,-2.480660,1,0,,38.990701,-76.937877,-5.407000,,,
2026-09-11T16:36:01.745,4.712009,2.319916,7.789833,21.480702,0.000000,-0.131098,0.045102,2.319915,0.031409,0.066123,0.556680,7.244066,2.398936,0.095781,0.007040,0.067607,0.950461,-0.684210,7.906121,1.275156,-2.540112,1,0,,38.990701,-76.937877,-5.407000,,,
2026-09-11T16:36:01.778,4.745429,2.320399,7.867533,21.485178,0.000000,-5.350290,1.840696,2.319202,0.039509,0.083176,0.559175,7.309204,2.440983,0.148543,0.007500,0.084659,-2.159719,8.173941,8.257199,1.097756,-2.028270,1,0,,38.990701,-76.937877,-5.407000,,,
2026-09-11T16:36:01.811,4.778848,2.281706,7.943319,21.126909,0.000000,-9.664484,3.324937,2.277865,0.075733,0.159438,0.563229,7.373211,2.483492,0.177324,0.042405,0.160921,-0.658713,3.385648,8.418911,1.029736,-1.842953,1,0,,38.990701,-76.937877,-5.407000,,,
2026-09-11T16:36:01.845,4.812275,2.252692,8.018512,20.858259,0.000000,-16.225382,5.582127,2.242009,0.109342,0.230193,0.569741,7.435292,2.526641,0.066921,-0.020062,0.231676,-0.026282,3.519509,11.461130,1.010994,-1.660870,1,0,,38.990701,-76.937877,-5.407000,,,
2026-09-11T16:36:01.878,4.845693,2.243304,8.092703,20.771335,0.000000,-17.550608,6.038053,2.230859,0.124211,0.261496,0.577957,7.495939,2.570489,0.040464,-0.043207,0.262980,0.799340,1.359398,12.725600,1.052309,-1.624990,1,0,,38.990701,-76.937877,-5.407000,,,
2026-09-11T16:36:01.911,4.879107,2.262904,8.168353,20.952818,0.000000,-17.053476,5.867022,2.251051,0.119813,0.252238,0.586540,7.556237,2.615071,0.012735,0.036575,0.253722,0.784532,3.473810,14.414305,1.097727,-1.451677,1,0,,38.990701,-76.937877,-5.407000,,,
2026-09-11T16:36:01.945,4.912526,2.224521,8.242043,20.597412,0.000000,-16.082560,5.532991,2.214156,0.112745,0.237359,0.594721,7.616045,2.659846,-0.016195,-0.014091,0.238842,0.941144,-0.680974,12.047960,1.153669,-1.546423,1,0,,38.990701,-76.937877,-5.407000,,,
2026-09-11T16:36:01.978,4.945945,2.157073,8.314046,19.972902,0.000000,-15.735117,5.413458,2.147452,0.101506,0.213697,0.602258,7.674245,2.703862,0.025709,0.048193,0.215180,-0.494549,1.665561,10.645413,1.118077,-1.483936,1,0,,38.990701,-76.937877,-5.407000,,,
2026-09-11T16:36:02.012,4.979360,2.118984,8.385002,19.620222,0.000000,-16.725946,5.754339,2.108306,0.132554,0.279061,0.610490,7.730441,2.747592,-0.003921,0.058781,0.280545,-0.210353,3.171176,9.156862,1.105471,-1.333088,1,0,,38.990701,-76.937877,-5.407000,,,
2026-09-11T16:36:02.046,5.012786,2.100437,8.455365,19.448494,0.000000,-17.650858,6.072543,2.088651,0.145707,0.306752,0.620281,7.785032,2.791879,0.079148,0.038358,0.308236,-0.312930,-0.314205,12.165248,1.084203,-1.412885,1,1,5.014893,38.990685,-76.937867,-5.477000,1.613861,-7.970267,2.952403
2026-09-11T16:36:02.078,5.046205,2.091261,8.524907,19.363526,0.000000,-17.944056,6.173414,2.079134,0.130661,0.275076,0.630003,7.838801,2.836378,0.095286,0.010096,0.276560,-0.468268,0.193485,9.134797,1.048078,-1.454470,1,0,,38.990685,-76.937867,-5.477000,,,
2026-09-11T16:36:02.112,5.079646,2.072296,8.594678,19.187929,0.000000,-18.219400,6.268142,2.059908,0.150952,0.317794,0.639916,7.891725,2.881216,0.063778,-0.065883,0.319278,0.555449,0.865927,3.706325,1.077126,-1.457425,1,0,,38.990685,-76.937867,-5.477000,,,
2026-09-11T16:36:02.145,5.113063,2.052574,8.662580,19.005315,0.000000,-18.263346,6.283261,2.040244,0.133331,0.280696,0.649916,7.943619,2.926192,0.059783,0.001259,0.282180,-0.699312,-0.819051,8.798919,1.024477,-1.564090,1,0,,38.990685,-76.937867,-5.477000,,,
2026-09-11T16:36:02.179,5.146477,2.042921,8.730664,18.915932,0.000000,-15.864893,5.458105,2.033658,0.102273,0.215312,0.658203,7.995242,2.970728,0.003432,-0.066528,0.216796,-0.136411,3.195791,9.365645,1.004562,-1.401028,1,0,,38.990685,-76.937867,-5.477000,,,
2026-09-11T16:36:02.212,5.179894,2.033320,8.798703,18.827041,0.000000,-11.941400,4.108280,2.028096,0.085197,0.179362,0.664797,8.046869,3.014889,0.019838,-0.028675,0.180846,0.110129,-0.240655,9.330733,0.993169,-1.457366,1,0,,38.990685,-76.937867,-5.477000,,,
2026-09-11T16:36:02.246,5.213317,2.024075,8.866332,18.741432,0.000000,-8.767725,3.016419,2.021270,0.071933,0.151437,0.670325,8.098388,3.058844,-0.057792,-0.052436,0.152921,4.291586,-1.646340,9.388298,1.247670,-1.600344,1,0,,38.990685,-76.937867,-5.477000,,,
2026-09-11T16:36:02.279,5.246734,2.004792,8.933505,18.562884,0.000000,-8.219095,2.827670,2.002351,0.064576,0.135949,0.675127,8.149549,3.102520,0.010974,0.239481,0.137432,-3.079680,-2.640146,-11.015320,1.019522,-1.803824,1,0,,38.990685,-76.937867,-5.477000,,,
2026-09-11T16:36:02.312,5.280149,2.014888,9.001134,18.656372,0.000000,-8.305613,2.857436,2.012383,0.058998,0.124207,0.679474,8.200526,3.146166,-0.100312,-0.069733,0.125691,-3.058694,6.550058,13.076482,0.794951,-1.408890,1,0,,38.990685,-76.937867,-5.477000,,,
2026-09-11T16:36:02.346,5.313563,2.005884,9.067897,18.573000,0.000000,-9.168039,3.154142,2.002845,0.087166,0.183508,0.684615,8.251061,3.190347,-0.025639,-0.048823,0.184991,-0.479643,1.712633,7.136986,0.739724,-1.338974,1,0,,38.990685,-76.937867,-5.477000,,,
2026-09-11T16:36:02.379,5.346978,1.996889,9.134659,18.489717,0.000000,-13.670374,4.703110,1.990166,0.092506,0.194750,0.690935,8.300702,3.235017,-0.029842,-0.017467,0.196233,-0.019319,0.183777,8.261220,0.714104,-1.370072,1,0,,38.990685,-76.937867,-5.477000,,,
2026-09-11T16:36:02.412,5.380390,2.026517,9.201832,18.764045,0.000000,-19.572779,6.733754,2.012537,0.113472,0.238889,0.698179,8.349874,3.280459,0.013559,0.042537,0.240373,2.541001,3.793997,9.050557,0.853959,-1.173221,1,0,,38.990685,-76.937867,-5.477000,,,
2026-09-11T16:36:02.446,5.413817,2.056123,9.270828,19.038172,0.000000,-20.540262,7.066604,2.040504,0.154815,0.325927,0.707619,8.398656,3.327670,0.085863,0.020392,0.327410,0.333720,2.939347,7.810899,0.851460,-1.045714,1,0,,38.990685,-76.937867,-5.477000,,,
2026-09-11T16:36:02.479,5.447234,2.046226,9.338594,18.946535,0.000000,-22.462870,7.728051,2.027641,0.168488,0.354712,0.718991,8.446521,3.376228,0.008531,-0.000478,0.356196,-0.615563,0.843764,9.653176,0.791629,-1.058812,1,0,,38.990685,-76.937867,-5.477000,,,
2026-09-11T16:36:02.513,5.480646,2.036525,9.406724,18.856710,0.000000,-23.229166,7.991686,2.016746,0.171504,0.361061,0.730949,8.493329,3.425282,-0.035863,0.065930,0.362545,-0.685779,-1.708711,10.428490,0.726208,-1.237539,1,0,,38.990685,-76.937867,-5.477000,,,
2026-09-11T16:36:02.547,5.514061,2.017618,9.474124,18.681644,0.000000,-22.251383,7.655292,1.999635,0.162260,0.341599,0.742689,8.539280,3.474499,-0.037749,0.061771,0.343083,1.041172,0.800027,11.540074,0.768347,-1.249002,1,0,,38.990685,-76.937867,-5.477000,,,
2026-09-11T16:36:02.580,5.547478,2.008324,9.541343,18.595596,0.000000,-20.301310,6.984395,1.993421,0.118776,0.250054,0.752574,8.585014,3.523306,-0.049378,0.051742,0.251538,1.293693,4.705035,11.954012,0.825700,-0.995618,1,0,,38.990685,-76.937867,-5.477000,,,
2026-09-11T16:36:02.614,5.580896,1.988998,9.607878,18.416645,0.000000,-19.640070,6.756905,1.975183,0.126554,0.266430,0.761204,8.630407,3.571819,0.007618,-0.043781,0.267914,2.310741,4.844485,11.511536,0.946857,-0.737761,1,0,,38.990685,-76.937867,-5.477000,,,
2026-09-11T16:36:02.647,5.614313,1.979534,9.674322,18.329017,0.000000,-18.498178,6.364052,1.967335,0.119292,0.251140,0.769852,8.675056,3.620424,0.090117,0.006371,0.252624,1.220438,3.100176,8.806666,0.994781,-0.593601,1,0,,38.990685,-76.937867,-5.477000,,,
2026-09-11T16:36:02.681,5.647730,1.970407,9.740355,18.244509,0.000000,-17.573954,6.046085,1.959447,0.097733,0.205754,0.777486,8.719458,3.668865,0.046521,0.017692,0.207237,-1.652911,2.736448,10.213528,0.858017,-0.468685,1,0,,38.990685,-76.937867,-5.477000,,,
2026-09-11T16:36:02.714,5.681149,1.932080,9.803928,17.889633,0.000000,-17.680384,6.082701,1.921203,0.046026,0.096897,0.782543,8.763869,3.716177,0.117199,0.239096,0.098381,-5.870653,3.013486,10.113893,0.449893,-0.313136,1,0,,38.990685,-76.937867,-5.477000,,,
2026-09-11T16:36:02.748,5.714572,1.893730,9.866180,17.534537,0.000000,-17.827326,6.133254,1.882890,0.097103,0.204428,0.787579,8.807146,3.762804,0.099828,-0.027153,0.205911,0.396679,3.865487,1.087558,0.452101,-0.116950,1,0,,38.990685,-76.937867,-5.477000,,,
2026-09-11T16:36:02.780,5.747989,1.932900,9.931119,17.897221,0.000000,-17.685877,6.084591,1.922011,0.116606,0.245486,0.795096,8.849289,3.810534,0.085786,-0.014877,0.246969,-0.497295,0.350882,11.381402,0.395264,-0.156251,1,0,,38.990685,-76.937867,-5.477000,,,
2026-09-11T16:36:02.814,5.781407,1.962185,9.996834,18.168378,0.000000,-16.914087,5.819067,1.952074,0.106735,0.224706,0.802953,8.891757,3.859529,0.050782,0.034071,0.226189,0.684014,0.290375,9.696129,0.413465,-0.196885,1,0,,38.990685,-76.937867,-5.477000,,,
2026-09-11T16:36:02.848,5.814827,1.942554,10.062458,17.986608,0.000000,-16.405283,5.644019,1.933136,0.085049,0.179050,0.809699,8.934382,3.908605,-0.134608,-0.024082,0.180534,-1.515716,-1.303500,6.578889,0.287332,-0.334319,1,0,,38.990685,-76.937867,-5.477000,,,
2026-09-11T16:36:02.881,5.848246,1.962280,10.127443,18.169258,0.000000,-16.459528,5.662682,1.952704,0.097915,0.206136,0.816136,8.976791,3.957865,-0.012933,-0.081676,0.207620,-0.170243,0.479251,7.386957,0.246773,-0.358404,1,0,,38.990685,-76.937867,-5.477000,,,
2026-09-11T16:36:02.914,5.881663,1.972371,10.193021,18.262691,0.000000,-17.138620,5.896314,1.961936,0.096088,0.202291,0.822960,9.019066,4.007880,-0.059603,-0.172623,0.203775,-4.143898,-1.901902,6.507301,-0.054883,-0.536054,1,0,,38.990685,-76.937867,-5.477000,,,
2026-09-11T16:36:02.947,5.915079,1.982457,10.258918,18.356087,0.000000,-17.665277,6.077504,1.971315,0.108195,0.227779,0.830145,9.061071,4.058532,-0.104136,-0.050888,0.229262,1.087263,-1.614567,12.440324,-0.021990,-0.696481,1,0,,38.990685,-76.937867,-5.477000,,,
2026-09-11T16:36:02.981,5.948495,1.982916,10.324861,18.360338,0.000000,-18.087564,6.222786,1.971233,0.116012,0.244235,0.838032,9.102553,4.109839,-0.023235,-0.057524,0.245719,2.022720,-2.359088,10.446142,0.060887,-0.905412,1,0,,38.990685,-76.937867,-5.477000,,,
2026-09-11T16:36:03.015,5.981910,1.964041,10.390758,18.185561,0.000000,-18.734385,6.445316,1.951627,0.129124,0.271839,0.846654,9.143129,4.161471,-0.011969,-0.070461,0.273323,0.039521,4.670123,9.392123,0.009215,-0.660129,1,0,,38.990685,-76.937867,-5.477000,,,
2026-09-11T16:36:03.048,6.015330,1.974122,10.457156,18.278904,0.000000,-19.598871,6.742731,1.960467,0.132511,0.278970,0.855858,9.182922,4.213519,-0.000325,0.007970,0.280454,-0.244284,3.819788,13.009698,-0.059057,-0.473622,1,1,6.010520,38.990670,-76.937853,-5.536000,2.798185,-9.564988,2.952918
2026-09-11T16:36:03.082,6.048745,1.974619,10.522233,18.283508,0.000000,-19.600244,6.743203,1.960959,0.127740,0.268927,0.865012,9.222350,4.266024,0.014236,0.010154,0.270411,1.400880,-4.480953,8.829810,-0.021886,-0.825389,1,0,,38.990670,-76.937853,-5.536000,,,
2026-09-11T16:36:03.115,6.082161,1.975080,10.588312,18.287777,0.000000,-19.589945,6.739660,1.961431,0.125734,0.264703,0.873928,9.261399,4.318825,0.033796,0.012300,0.266187,0.739127,4.153509,9.026629,-0.032892,-0.613694,1,0,,38.990670,-76.937853,-5.536000,,,
2026-09-11T16:36:03.148,6.115576,1.994719,10.655257,18.469624,0.000000,-19.509607,6.712021,1.981048,0.134591,0.283350,0.883085,9.300093,4.372305,-0.058138,0.081047,0.284834,-0.754818,-1.518854,6.658127,-0.140958,-0.774321,1,0,,38.990670,-76.937853,-5.536000,,,
2026-09-11T16:36:03.182,6.148993,2.023953,10.723478,18.740306,0.000000,-18.717905,6.439646,2.011183,0.115208,0.242543,0.891872,9.338970,4.426670,-0.038609,0.005673,0.244027,1.291732,-0.197016,6.976745,-0.113403,-0.842827,1,0,,38.990670,-76.937853,-5.536000,,,
2026-09-11T16:36:03.215,6.182412,2.062939,10.792383,19.101287,0.000000,-17.393366,5.983956,2.051698,0.100477,0.211530,0.899459,9.378586,4.481921,0.075001,0.014148,0.213013,1.224851,4.837915,9.254242,-0.087414,-0.581083,1,0,,38.990670,-76.937853,-5.536000,,,
2026-09-11T16:36:03.249,6.215830,2.101887,10.863612,19.461921,0.000000,-15.383554,5.292507,2.092927,0.093718,0.197300,0.906290,9.418928,4.538302,0.018580,0.073027,0.198784,-0.061390,-3.748200,8.027626,-0.143162,-0.876815,1,0,,38.990670,-76.937853,-5.536000,,,
2026-09-11T16:36:03.282,6.249248,2.141330,10.935068,19.827134,0.000000,-14.429117,4.964146,2.133298,0.082321,0.173307,0.912483,9.459980,4.595835,0.037376,-0.005123,0.174790,0.694311,4.191460,7.228874,-0.146934,-0.652407,1,0,,38.990670,-76.937853,-5.536000,,,
2026-09-11T16:36:03.316,6.282664,2.151229,11.007300,19.918790,0.000000,-14.260202,4.906033,2.143348,0.074606,0.157065,0.918003,9.501460,4.654077,-0.005567,0.203190,0.158549,2.564145,1.445794,10.819579,-0.024038,-0.606113,1,0,,38.990670,-76.937853,-5.536000,,,
2026-09-11T16:36:03.349,6.316083,2.180868,11.080579,20.193225,0.000000,-14.203211,4.886426,2.172942,0.076231,0.160486,0.923309,9.543108,4.713013,0.025566,0.076007,0.161969,2.416751,5.674618,11.228614,0.092341,-0.287236,1,0,,38.990670,-76.937853,-5.536000,,,
2026-09-11T16:36:03.382,6.349511,2.229635,11.155500,20.644764,0.000000,-15.382181,5.292035,2.220131,0.094623,0.199207,0.929321,9.584936,4.773426,0.014695,-0.095792,0.200691,-0.314499,2.210027,12.502891,0.034917,-0.202289,1,0,,38.990670,-76.937853,-5.536000,,,
2026-09-11T16:36:03.416,6.382936,2.220694,11.229281,20.561979,0.000000,-17.218271,5.923717,2.208836,0.116735,0.245757,0.936757,9.626167,4.834996,0.050449,0.009611,0.247241,0.715395,3.734274,10.269230,0.049880,-0.026040,1,0,,38.990670,-76.937853,-5.536000,,,
2026-09-11T16:36:03.449,6.416356,2.221076,11.303563,20.565516,0.000000,-17.340494,5.965766,2.209047,0.125748,0.264733,0.945287,9.666371,4.897043,0.066575,0.020807,0.266217,-0.841411,1.136002,9.930802,-0.031707,-0.022808,1,0,,38.990670,-76.937853,-5.536000,,,
2026-09-11T16:36:03.482,6.449775,2.182830,11.376250,20.211390,0.000000,-17.604166,6.056479,2.170646,0.135440,0.285137,0.954475,9.705399,4.959102,-0.002450,-0.008088,0.286621,-0.943498,1.228087,9.655432,-0.115875,-0.015858,1,0,,38.990670,-76.937853,-5.536000,,,
2026-09-11T16:36:03.516,6.483193,2.173119,11.448664,20.121475,0.000000,-17.648111,6.071598,2.160929,0.130687,0.275131,0.963837,9.743319,5.020910,0.021777,0.032353,0.276614,-1.425985,2.335552,9.384964,-0.227416,0.064346,1,0,,38.990670,-76.937853,-5.536000,,,
2026-09-11T16:36:03.549,6.516651,2.134258,11.519528,19.761647,0.000000,-17.638498,6.068291,2.122299,0.129266,0.272138,0.972992,9.780337,5.082413,0.115888,-0.004210,0.273622,-0.629587,2.798720,10.324245,-0.282861,0.174907,1,0,,38.990670,-76.937853,-5.536000,,,
2026-09-11T16:36:03.582,6.550064,2.095864,11.589299,19.406151,0.000000,-17.581507,6.048683,2.084196,0.134571,0.283308,0.982272,9.815967,5.143145,0.255085,0.064824,0.284792,-1.083929,0.560548,7.344200,-0.361587,0.138265,1,0,,38.990670,-76.937853,-5.536000,,,
2026-09-11T16:36:03.616,6.583483,2.067167,11.658659,19.140435,0.000000,-17.609659,6.058369,2.055622,0.124600,0.262316,0.991389,9.850494,5.203242,0.192753,0.095750,0.263800,-0.539758,1.869246,8.908263,-0.396615,0.190143,1,0,,38.990670,-76.937853,-5.536000,,,
2026-09-11T16:36:03.649,6.616907,2.048155,11.727427,18.964401,0.000000,-17.692057,6.086717,2.036609,0.115554,0.243272,0.999838,9.884330,5.262810,0.216072,0.089830,0.244756,-0.823759,1.975157,4.792608,-0.446999,0.251156,1,0,,38.990670,-76.937853,-5.536000,,,
2026-09-11T16:36:03.683,6.650322,2.038725,11.795603,18.877086,0.000000,-17.589060,6.051282,2.027365,0.118798,0.250101,1.008081,9.917487,5.322192,0.174503,-0.064575,0.251584,-2.901984,-0.256836,11.001198,-0.633699,0.166110,1,0,,38.990670,-76.937853,-5.536000,,,
2026-09-11T16:36:03.716,6.683745,2.048858,11.864006,18.970909,0.000000,-16.697794,5.744654,2.038568,0.095634,0.201335,1.015625,9.950481,5.381700,0.211520,-0.168713,0.202818,-0.627626,6.664109,-1.305363,-0.674826,0.536827,1,0,,38.990670,-76.937853,-5.536000,,,
2026-09-11T16:36:03.750,6.717161,2.068854,11.933184,19.156051,0.000000,-14.678369,5.049898,2.060823,0.100992,0.212614,1.022542,9.983582,5.441753,0.305758,-0.136109,0.214098,1.651832,1.714693,8.955041,-0.570486,0.580837,1,0,,38.990670,-76.937853,-5.536000,,,
2026-09-11T16:36:03.783,6.750581,2.079012,12.002955,19.250111,0.000000,-10.624414,3.655188,2.074783,0.064454,0.135693,1.028362,10.017065,5.502270,0.186936,0.053842,0.137177,-0.514555,0.004805,9.815868,-0.610840,0.523677,1,0,,38.990670,-76.937853,-5.536000,,,
2026-09-11T16:36:03.816,6.783996,2.059907,12.071313,19.073215,0.000000,-4.097162,1.409574,2.059284,0.035511,0.074760,1.031878,10.051185,5.562347,0.156381,0.032172,0.076244,-0.593695,0.413448,10.237947,-0.663001,0.501914,1,0,,38.990670,-76.937853,-5.536000,,,
2026-09-11T16:36:03.850,6.817415,2.030850,12.138622,18.804166,0.000000,3.988775,-1.372285,2.030267,-0.011794,-0.024829,1.032712,10.085890,5.621214,0.056233,-0.006426,-0.023346,0.610170,1.967410,8.925032,-0.645534,0.594366,1,0,,38.990670,-76.937853,-5.536000,,,
2026-09-11T16:36:03.883,6.850833,2.021224,12.205841,18.715038,0.000000,9.142050,-3.145201,2.018180,-0.053355,-0.112326,1.030421,10.121558,5.678702,-0.100350,-0.031279,-0.110843,0.200154,-0.339506,9.118616,-0.658583,0.547682,1,0,,38.990670,-76.937853,-5.536000,,,
2026-09-11T16:36:03.917,6.884250,2.031402,12.273606,18.809277,0.000000,13.048376,-4.489120,2.025170,-0.082866,-0.174456,1.025629,10.158401,5.735374,-0.102962,-0.065849,-0.172972,-0.092183,-2.456076,7.884547,-0.690485,0.372548,1,0,,38.990670,-76.937853,-5.536000,,,
2026-09-11T16:36:03.950,6.917667,2.051093,12.342238,18.991601,0.000000,13.984961,-4.811340,2.043865,-0.087677,-0.184582,1.019630,10.196263,5.791914,-0.048776,-0.069994,-0.183099,-0.126015,1.094814,8.299172,-0.725504,0.431045,1,0,,38.990670,-76.937853,-5.536000,,,
2026-09-11T16:36:03.983,6.951081,2.051293,12.410413,18.993452,0.000000,13.763174,-4.735037,2.044292,-0.082865,-0.174452,1.013631,10.234629,5.848494,-0.094572,-0.009869,-0.172968,-0.927709,1.284573,9.071053,-0.811261,0.499853,1,0,,38.990670,-76.937853,-5.536000,,,
2026-09-11T16:36:04.017,6.984497,2.041748,12.479044,18.905078,0.000000,13.495382,-4.642907,2.035048,-0.072758,-0.153174,1.008157,10.273031,5.904864,-0.036225,-0.065990,-0.151690,0.041874,2.092053,10.294433,-0.831659,0.617338,1,0,,38.990670,-76.937853,-5.536000,,,
2026-09-11T16:36:04.051,7.017918,2.052091,12.548769,19.000838,0.000000,11.432699,-3.933268,2.047257,-0.059551,-0.125370,1.003503,10.311420,5.961296,-0.131452,-0.024984,-0.123887,0.878087,1.676349,9.039182,-0.797079,0.703027,1,1,7.023108,38.990658,-76.937836,-5.593000,4.293643,-10.972901,2.953402
2026-09-11T16:36:04.084,7.051337,2.072165,12.617446,19.186717,0.000000,9.350790,-3.217015,2.068900,-0.050385,-0.106073,0.999636,10.350039,6.018240,-0.127809,0.016188,-0.104589,0.104343,-0.801399,8.837165,-0.814407,0.624720,1,0,,38.990658,-76.937836,-5.593000,,,
2026-09-11T16:36:04.118,7.084755,2.121224,12.688994,19.640966,0.000000,9.269766,-3.189140,2.117939,-0.057436,-0.120918,0.995843,10.389486,6.076044,-0.146324,0.048941,-0.119435,1.273492,3.810276,16.743384,-0.757130,0.848644,1,0,,38.990658,-76.937836,-5.593000,,,
2026-09-11T16:36:04.151,7.118173,2.082791,12.757808,19.285101,0.000000,8.778128,-3.019998,2.079898,-0.041979,-0.088378,0.992346,10.429123,6.133937,-0.166301,0.093714,-0.086894,0.257621,1.789125,8.492559,-0.765232,0.934377,1,0,,38.990658,-76.937836,-5.593000,,,
2026-09-11T16:36:04.185,7.151660,2.092753,12.827715,19.377345,0.000000,7.071814,-2.432963,2.090867,-0.013196,-0.027782,0.990401,10.468133,6.191865,-0.158143,-0.064320,-0.026298,1.734698,-1.172385,12.590954,-0.674549,0.818735,1,0,,38.990658,-76.937836,-5.593000,,,
2026-09-11T16:36:04.218,7.185076,2.102397,12.897805,19.466636,0.000000,4.302572,-1.480243,2.101695,0.010992,0.023141,0.990323,10.506578,6.250423,-0.129920,-0.040855,0.024624,1.098443,0.122191,8.776167,-0.623818,0.781640,1,0,,38.990658,-76.937836,-5.593000,,,
2026-09-11T16:36:04.251,7.218499,2.112661,12.969170,19.561680,0.000000,0.515036,-0.177191,2.112651,0.018851,0.039686,0.991373,10.544754,6.309608,-0.095996,-0.132833,0.041170,0.081101,0.548486,13.504836,-0.638180,0.770309,1,0,,38.990658,-76.937836,-5.593000,,,
2026-09-11T16:36:04.285,7.251917,2.113198,13.039624,19.566648,0.000000,-5.156656,1.774079,2.112185,0.052833,0.111228,0.993895,10.582328,6.369381,-0.080393,-0.024246,0.112711,-0.478761,0.537502,6.741876,-0.686940,0.748598,1,0,,38.990658,-76.937836,-5.593000,,,
2026-09-11T16:36:04.318,7.285335,2.103659,13.110261,19.478328,0.000000,-7.759043,2.669395,2.101377,0.081846,0.172307,0.998632,10.618699,6.429703,0.013472,-0.001133,0.173790,-0.881422,1.901509,9.386631,-0.756899,0.807320,1,0,,38.990658,-76.937836,-5.593000,,,
2026-09-11T16:36:04.351,7.318754,2.094378,13.179530,19.392389,0.000000,-10.741144,3.695348,2.090024,0.094250,0.198421,1.004827,10.653960,6.490288,-0.064126,0.048422,0.199905,0.133469,-0.756191,9.512941,-0.753715,0.689662,1,0,,38.990658,-76.937836,-5.593000,,,
2026-09-11T16:36:04.385,7.352175,2.085095,13.249665,19.306434,0.000000,-11.900202,4.094106,2.079774,0.101857,0.214437,1.011726,10.688349,6.550976,-0.026919,0.037595,0.215920,0.466698,2.457743,9.358584,-0.727298,0.779664,1,0,,38.990658,-76.937836,-5.593000,,,
2026-09-11T16:36:04.418,7.385590,2.075812,13.318798,19.220479,0.000000,-13.085352,4.501841,2.069407,0.096452,0.203057,1.018701,10.722098,6.611620,-0.062885,0.054401,0.204540,0.812971,1.503163,8.127948,-0.678288,0.808445,1,0,,38.990658,-76.937836,-5.593000,,,
2026-09-11T16:36:04.451,7.419006,2.066918,13.388249,19.138131,0.000000,-13.136164,4.519322,2.060492,0.092482,0.194700,1.025347,10.755400,6.672137,-0.105352,0.040841,0.196183,-0.529657,0.996748,8.773912,-0.713072,0.805309,1,0,,38.990658,-76.937836,-5.593000,,,
2026-09-11T16:36:04.485,7.452423,2.057686,13.457200,19.052651,0.000000,-13.500772,4.644761,2.050929,0.096824,0.203841,1.032006,10.788133,6.732612,-0.134010,-0.023618,0.205324,-0.375693,-0.194858,10.589221,-0.735001,0.723858,1,0,,38.990658,-76.937836,-5.593000,,,
2026-09-11T16:36:04.518,7.485842,2.038526,13.525421,18.875239,0.000000,-14.087168,4.846503,2.031237,0.107296,0.225886,1.039187,10.819989,6.793023,-0.147023,-0.011564,0.227370,1.375775,0.487292,13.341653,-0.642879,0.684891,1,0,,38.990658,-76.937836,-5.593000,,,
2026-09-11T16:36:04.552,7.519258,2.038350,13.593232,18.873607,0.000000,-16.878382,5.806783,2.027890,0.105230,0.221536,1.046662,10.851083,6.853401,-0.137120,-0.069455,0.223020,0.107285,0.082180,14.404988,-0.635723,0.620720,1,0,,38.990658,-76.937836,-5.593000,,,
2026-09-11T16:36:04.585,7.552674,2.009784,13.660587,18.609114,0.000000,-17.928263,6.167980,1.998150,0.128047,0.269573,1.054868,10.881126,6.913709,0.010616,-0.194449,0.271056,-3.474692,3.177453,5.051013,-0.861888,0.752115,1,0,,38.990658,-76.937836,-5.593000,,,
2026-09-11T16:36:04.619,7.586087,2.010151,13.727532,18.612506,0.000000,-20.387827,7.014161,1.995107,0.145865,0.307084,1.064502,10.909767,6.974133,-0.055600,-0.095118,0.308567,-0.988608,1.538075,10.987665,-0.924791,0.770985,1,0,,38.990658,-76.937836,-5.593000,,,
2026-09-11T16:36:04.653,7.619503,2.000788,13.794341,18.525816,0.000000,-22.307688,7.674663,1.982866,0.163418,0.344039,1.075380,10.937148,7.034911,0.039070,-0.017249,0.345522,-0.210745,2.483926,11.079161,-0.938619,0.846464,1,0,,38.990658,-76.937836,-5.593000,,,
2026-09-11T16:36:04.686,7.652918,1.981825,13.860465,18.350235,0.000000,-24.364191,8.382176,1.960655,0.178667,0.376140,1.087413,10.963077,7.095747,0.038332,0.140760,0.377624,-0.057173,1.749212,12.525250,-0.944281,0.869888,1,0,,38.990658,-76.937836,-5.593000,,,
2026-09-11T16:36:04.719,7.686336,1.972801,13.926089,18.266679,0.000000,-26.346537,9.064175,1.948166,0.184096,0.387570,1.100174,10.987679,7.156550,0.014590,0.057211,0.389054,1.339294,1.572006,8.232291,-0.858800,0.880426,1,0,,38.990658,-76.937836,-5.593000,,,
2026-09-11T16:36:04.752,7.719756,1.973345,13.992669,18.271717,0.000000,-28.929010,9.952641,1.943649,0.185532,0.390593,1.113177,11.011267,7.217466,0.062497,0.020816,0.392076,-0.220061,1.843846,9.636407,-0.873834,0.908209,1,0,,38.990658,-76.937836,-5.593000,,,
2026-09-11T16:36:04.786,7.753169,1.983539,14.059615,18.366105,0.000000,-29.818216,10.258561,1.951831,0.199972,0.420993,1.126736,11.033824,7.278847,0.030893,-0.038384,0.422476,1.054901,3.682397,9.219330,-0.806155,1.050841,1,0,,38.990658,-76.937836,-5.593000,,,
2026-09-11T16:36:04.820,7.786609,1.993703,14.126104,18.460216,0.000000,-30.281015,10.417781,1.960838,0.211101,0.444424,1.141205,11.055271,7.341029,-0.049575,-0.003182,0.445908,-0.399719,0.177598,8.225426,-0.836245,0.961336,1,0,,38.990658,-76.937836,-5.593000,,,
2026-09-11T16:36:04.853,7.820032,1.984446,14.192958,18.374498,0.000000,-30.325647,10.433136,1.951637,0.213228,0.448900,1.156134,11.075591,7.403575,-0.103524,0.036763,0.450384,-0.249775,-1.228283,8.560617,-0.858487,0.781406,1,0,,38.990658,-76.937836,-5.593000,,,
2026-09-11T16:36:04.886,7.853450,1.974624,14.258126,18.283557,0.000000,-30.524088,10.501406,1.941550,0.203082,0.427540,1.170779,11.094976,7.466060,-0.095201,0.070304,0.429024,-0.114247,3.056929,8.876784,-0.873542,0.884342,1,0,,38.990658,-76.937836,-5.593000,,,
2026-09-11T16:36:04.919,7.886869,1.994527,14.324478,18.467839,0.000000,-30.423838,10.466917,1.961338,0.209342,0.440721,1.185287,11.113567,7.528945,-0.086031,0.100817,0.442204,1.251917,-1.400194,11.208413,-0.805139,0.694916,1,0,,38.990658,-76.937836,-5.593000,,,
2026-09-11T16:36:04.953,7.920291,1.985166,14.391013,18.381167,0.000000,-30.438944,10.472114,1.952100,0.194114,0.408662,1.199481,11.131464,7.592207,-0.084528,0.081912,0.410146,0.581534,6.814543,12.041193,-0.787417,1.044611,1,0,,38.990658,-76.937836,-5.593000,,,
2026-09-11T16:36:04.986,7.953709,1.966358,14.456774,18.207017,0.000000,-31.183268,10.728188,1.931989,0.208015,0.437927,1.213626,11.148307,7.655237,-0.118119,0.145692,0.439410,-3.548929,-1.655657,11.159183,-1.042597,0.838003,1,0,,38.990658,-76.937836,-5.593000,,,
2026-09-11T16:36:05.019,7.987126,1.937560,14.521395,17.940368,0.000000,-32.012735,11.013556,1.901874,0.224905,0.473484,1.228855,11.163452,7.717893,-0.068607,0.233389,0.474967,-1.263391,-1.733031,8.124810,-1.151105,0.625193,1,0,,38.990658,-76.937836,-5.593000,,,
2026-09-11T16:36:05.053,8.020548,1.947714,14.586836,18.034390,0.000000,-33.569361,11.549092,1.908280,0.235961,0.496760,1.245068,11.177037,7.780570,-0.001569,-0.011687,0.498244,0.904860,2.726739,11.841726,-1.121292,0.700801,1,1,8.021137,38.990648,-76.937816,-5.669000,6.002140,-12.013871,2.953402
2026-09-11T16:36:05.087,8.053983,1.957853,14.652505,18.128267,0.000000,-35.669809,12.271723,1.913117,0.230566,0.485403,1.261488,11.189572,7.843695,-0.029183,0.028417,0.486887,0.904173,2.081952,8.503052,-1.096708,0.735034,1,0,,38.990648,-76.937816,-5.669000,,,
2026-09-11T16:36:05.120,8.087403,1.958132,14.718220,18.130851,0.000000,-37.097345,12.762848,1.909752,0.242249,0.509998,1.278121,11.200964,7.907041,0.041905,0.018926,0.511482,-0.676070,2.787148,11.753368,-1.180966,0.811660,1,0,,38.990648,-76.937816,-5.669000,,,
2026-09-11T16:36:05.153,8.120817,1.977997,14.784846,18.314789,0.000000,-38.176065,13.133967,1.926256,0.241327,0.508057,1.295130,11.211175,7.970824,0.029874,0.047992,0.509541,1.024893,0.672834,8.088035,-1.156235,0.750051,1,0,,38.990648,-76.937816,-5.669000,,,
2026-09-11T16:36:05.187,8.154234,2.007640,14.852064,18.589262,0.000000,-38.302408,13.177434,1.954777,0.237685,0.500390,1.311979,11.220575,8.035479,0.037499,0.021638,0.501874,0.593793,2.018699,10.324049,-1.160698,0.776410,1,0,,38.990648,-76.937816,-5.669000,,,
2026-09-11T16:36:05.221,8.187651,2.046693,14.920832,18.950865,0.000000,-38.302408,13.177434,1.992801,0.238300,0.501684,1.328722,11.229211,8.101350,-0.020378,0.032143,0.503167,1.536408,0.918589,10.634233,-1.105865,0.729753,1,0,,38.990648,-76.937816,-5.669000,,,
2026-09-11T16:36:05.254,8.221074,2.076052,14.990375,19.222700,0.000000,-38.390299,13.207672,2.021137,0.237629,0.500271,1.345466,11.237004,8.168445,0.037583,0.058890,0.501754,0.479741,-0.160535,12.397175,-1.121866,0.612905,1,0,,38.990648,-76.937816,-5.669000,,,
2026-09-11T16:36:05.287,8.254494,2.115382,15.060920,19.586866,0.000000,-38.280436,13.169875,2.059745,0.241592,0.508615,1.362325,11.243854,8.236762,0.056812,0.009713,0.510099,0.306360,-0.540444,5.391402,-1.149114,0.470381,1,0,,38.990648,-76.937816,-5.669000,,,
2026-09-11T16:36:05.320,8.287910,2.144825,15.133334,19.859488,0.000000,-38.439051,13.224444,2.087947,0.250321,0.526993,1.379628,11.249549,8.306311,0.094854,-0.038031,0.528476,0.906723,1.975550,9.686617,-1.134752,0.489114,1,0,,38.990648,-76.937816,-5.669000,,,
2026-09-11T16:36:05.353,8.321324,2.193581,15.206842,20.310935,0.000000,-38.610025,13.283266,2.134894,0.265748,0.559470,1.397780,11.253838,8.377253,0.169839,-0.062172,0.560954,0.102381,0.402171,8.779992,-1.170057,0.399578,1,0,,38.990648,-76.937816,-5.669000,,,
2026-09-11T16:36:05.387,8.354740,2.232828,15.281716,20.674333,0.000000,-40.855356,14.055742,2.165977,0.264745,0.557357,1.416439,11.256798,8.449593,0.209268,-0.040933,0.558841,1.323604,2.937288,10.970798,-1.121972,0.474495,1,0,,38.990648,-76.937816,-5.669000,,,
2026-09-11T16:36:05.420,8.388159,2.242891,15.356545,20.767512,0.000000,-40.804544,14.038261,2.175905,0.274886,0.578708,1.435422,11.258347,8.522681,0.233000,-0.006417,0.580192,-0.104735,0.309498,11.079946,-1.160759,0.374902,1,0,,38.990648,-76.937816,-5.669000,,,
2026-09-11T16:36:05.454,8.421580,2.243491,15.431511,20.773067,0.000000,-35.594965,12.245974,2.192443,0.241436,0.508286,1.453587,11.258980,8.596187,0.144938,-0.011814,0.509770,0.967132,2.077245,9.147251,-1.121707,0.400374,1,0,,38.990648,-76.937816,-5.669000,,,
2026-09-11T16:36:05.487,8.455068,2.205068,15.505155,20.417292,0.000000,-28.109842,9.670817,2.173732,0.199781,0.420592,1.469140,11.259624,8.669666,0.016332,0.029984,0.422076,0.069725,1.734012,8.024291,-1.133850,0.416321,1,0,,38.990648,-76.937816,-5.669000,,,
2026-09-11T16:36:05.520,8.488484,2.186050,15.577979,20.241202,0.000000,-19.676462,6.769425,2.170810,0.161552,0.340109,1.481850,11.260522,8.742502,-0.027979,-0.020939,0.341593,0.498080,2.337219,10.921862,-1.110760,0.482553,1,0,,38.990648,-76.937816,-5.669000,,,
2026-09-11T16:36:05.554,8.521900,2.166424,15.650575,20.059485,0.000000,-18.436380,6.342791,2.153163,0.123089,0.259135,1.491862,11.261842,8.814893,-0.022519,0.027383,0.260618,-0.617623,2.714285,8.669373,-1.154040,0.584186,1,0,,38.990648,-76.937816,-5.669000,,,
2026-09-11T16:36:05.588,8.555317,2.156605,15.722624,19.968564,0.000000,-18.053232,6.210974,2.143946,0.123596,0.260203,1.500539,11.263083,8.886798,0.000442,0.033750,0.261686,-1.107367,1.440891,11.744346,-1.221958,0.602168,1,0,,38.990648,-76.937816,-5.669000,,,
2026-09-11T16:36:05.621,8.588732,2.127791,15.793170,19.701770,0.000000,-18.043619,6.207667,2.115315,0.137062,0.288551,1.509708,11.263410,8.958091,-0.010099,0.051044,0.290035,-0.926630,0.573493,12.226931,-1.269476,0.560323,1,0,,38.990648,-76.937816,-5.669000,,,
2026-09-11T16:36:05.655,8.622158,2.108811,15.863259,19.526028,0.000000,-18.711725,6.437520,2.095514,0.153647,0.323468,1.519936,11.262498,9.028626,0.067428,0.032702,0.324952,-1.287613,0.827779,4.282172,-1.337436,0.531042,1,0,,38.990648,-76.937816,-5.669000,,,
2026-09-11T16:36:05.688,8.655596,2.079968,15.933166,19.258962,0.000000,-19.318033,6.646112,2.065990,0.149789,0.315344,1.530617,11.260599,9.098359,0.039567,0.016537,0.316828,-4.400832,-0.419234,5.294316,-1.606048,0.422914,1,0,,38.990648,-76.937816,-5.669000,,,
2026-09-11T16:36:05.722,8.689015,2.051225,16.001479,18.992821,0.000000,-19.256922,6.625088,2.037527,0.137084,0.288599,1.540708,11.258219,9.167053,-0.030922,0.006538,0.290082,-0.934280,1.966920,8.609454,-1.648895,0.474819,1,0,,38.990648,-76.937816,-5.669000,,,
2026-09-11T16:36:05.755,8.722437,2.032403,16.069882,18.818547,0.000000,-19.320780,6.647057,2.018741,0.143434,0.301965,1.550577,11.255239,9.234932,0.009718,0.069238,0.303449,-1.316641,0.731086,7.524643,-1.719451,0.444649,1,0,,38.990648,-76.937816,-5.669000,,,
2026-09-11T16:36:05.789,8.755852,2.003971,16.137101,18.555288,0.000000,-19.405924,6.676350,1.990382,0.122671,0.258255,1.559937,11.251837,9.301978,0.016172,0.078728,0.259739,-0.773450,2.099800,10.856354,-1.757316,0.509718,1,0,,38.990648,-76.937816,-5.669000,,,
2026-09-11T16:36:05.822,8.789265,2.004448,16.204137,18.559705,0.000000,-19.063288,6.558471,1.991331,0.133589,0.281240,1.568950,11.247978,9.368522,-0.050223,0.065618,0.282723,1.062452,-0.551330,8.150503,-1.679623,0.399275,1,0,,38.990648,-76.937816,-5.669000,,,
2026-09-11T16:36:05.855,8.822684,1.975832,16.270125,18.294742,0.000000,-18.489939,6.361217,1.963667,0.123094,0.259145,1.577980,11.243515,9.434596,-0.039101,0.070340,0.260629,0.024222,-1.266333,10.590398,-1.674331,0.247029,1,0,,38.990648,-76.937816,-5.669000,,,
2026-09-11T16:36:05.889,8.856108,1.956569,16.335384,18.116379,0.000000,-17.185999,5.912614,1.946160,0.097281,0.204803,1.585733,11.239111,9.499893,0.042877,0.020576,0.206286,0.299299,2.624456,10.069861,-1.655129,0.355781,1,0,,38.990648,-76.937816,-5.669000,,,
2026-09-11T16:36:05.922,8.889526,1.976034,16.401372,18.296610,0.000000,-15.750910,5.418891,1.967203,0.098296,0.206938,1.592613,11.234641,9.565212,0.032239,0.040487,0.208421,0.667931,-0.850139,7.615452,-1.614283,0.237589,1,0,,38.990648,-76.937816,-5.669000,,,
2026-09-11T16:36:05.956,8.922947,1.976297,16.467588,18.299046,0.000000,-13.410135,4.613579,1.969893,0.069974,0.147314,1.598533,11.230200,9.630912,0.008386,0.060092,0.148798,0.542112,-1.363517,8.354285,-1.585106,0.095024,1,0,,38.990648,-76.937816,-5.669000,,,
2026-09-11T16:36:05.989,8.956438,1.996283,16.534533,18.484100,0.000000,-11.972300,4.118910,1.991127,0.066180,0.139326,1.603332,11.225922,9.697142,0.004741,-0.014782,0.140810,0.415900,5.627938,12.545549,-1.568565,0.408591,1,0,,38.990648,-76.937816,-5.669000,,,
2026-09-11T16:36:06.022,8.989858,2.006445,16.601752,18.578192,0.000000,-11.648203,4.007409,2.001539,0.071035,0.149548,1.608160,11.221298,9.763738,0.045786,-0.039451,0.151031,0.012847,-0.293807,7.811193,-1.583184,0.332842,1,0,,38.990648,-76.937816,-5.669000,,,
2026-09-11T16:36:06.056,9.023278,2.026191,16.669700,18.761025,0.000000,-11.997019,4.127415,2.020936,0.073778,0.155321,1.613254,11.216198,9.830804,-0.002147,0.011371,0.156805,-2.359872,-3.302978,7.018129,-1.754248,0.062001,1,1,9.014604,38.990645,-76.937793,-5.741000,7.996275,-12.365802,4.506197
2026-09-11T16:36:06.089,9.056695,2.036153,16.737100,18.853270,0.000000,-11.891275,4.091035,2.030965,0.065487,0.137868,1.618153,11.210833,9.898334,0.006589,0.021796,0.139352,-1.986631,0.202703,6.731383,-1.901650,0.023539,1,0,,38.990645,-76.937793,-5.741000,,,
2026-09-11T16:36:06.122,9.090118,2.056085,16.805595,19.037826,0.000000,-11.858316,4.079696,2.050875,0.074515,0.156874,1.623078,11.205099,9.966346,-0.040275,-0.007662,0.158358,-0.945067,-0.673815,15.717118,-1.984217,-0.073996,1,0,,38.990645,-76.937793,-5.741000,,,
2026-09-11T16:36:06.156,9.123536,2.046978,16.873953,18.953501,0.000000,-11.702448,4.026072,2.041927,0.071771,0.151098,1.628224,11.198909,10.034494,-0.136364,0.014609,0.152581,-0.867692,-0.688133,9.896871,-2.061802,-0.170499,1,0,,38.990645,-76.937793,-5.741000,,,
2026-09-11T16:36:06.189,9.156954,2.037800,16.942037,18.868517,0.000000,-12.087656,4.158597,2.032435,0.068851,0.144949,1.633171,11.192489,10.102310,-0.044040,0.010892,0.146433,-0.719612,4.031710,9.815868,-2.126672,0.040721,1,0,,38.990645,-76.937793,-5.741000,,,
2026-09-11T16:36:06.223,9.190409,2.038097,17.010213,18.871265,0.000000,-13.283106,4.569876,2.031617,0.086915,0.182978,1.638656,11.185465,10.169977,-0.050448,-0.024634,0.184462,1.662914,3.397808,8.410281,-2.034227,0.203745,1,0,,38.990645,-76.937793,-5.741000,,,
2026-09-11T16:36:06.257,9.223832,2.057457,17.079664,19.050528,0.000000,-14.273249,4.910521,2.049905,0.087262,0.183708,1.644784,11.177727,10.237807,-0.006616,-0.038120,0.185192,-0.168674,2.087836,9.349758,-2.057779,0.279614,1,0,,38.990645,-76.937793,-5.741000,,,
2026-09-11T16:36:06.290,9.257251,2.067797,17.148523,19.146268,0.000000,-14.615885,5.028401,2.059839,0.096771,0.203729,1.651258,11.169363,10.306036,-0.007158,0.007620,0.205213,0.567119,0.289100,9.250711,-2.029135,0.235281,1,0,,38.990645,-76.937793,-5.741000,,,
2026-09-11T16:36:06.323,9.290675,2.078182,17.217155,19.242430,0.000000,-14.703775,5.058638,2.070088,0.093999,0.197894,1.657970,11.160407,10.374545,0.002195,-0.052414,0.199377,0.215256,3.648858,10.417703,-2.019778,0.409842,1,0,,38.990645,-76.937793,-5.741000,,,
2026-09-11T16:36:06.357,9.324097,2.078501,17.286697,19.245383,0.000000,-14.747721,5.073757,2.070357,0.092592,0.194931,1.664535,11.151052,10.443173,0.001563,-0.039369,0.196415,0.468562,0.439534,9.872159,-1.990302,0.374848,1,0,,38.990645,-76.937793,-5.741000,,,
2026-09-11T16:36:06.391,9.357529,2.098226,17.357288,19.428017,0.000000,-15.102716,5.195889,2.089604,0.100639,0.211871,1.671335,11.141092,10.512067,-0.016554,-0.032302,0.213355,0.024517,-0.093163,8.975046,-1.989456,0.303161,1,0,,38.990645,-76.937793,-5.741000,,,
2026-09-11T16:36:06.423,9.390950,2.098646,17.426877,19.431904,0.000000,-16.256968,5.592993,2.088655,0.115757,0.243700,1.678948,11.130223,10.581132,-0.042974,-0.024300,0.245183,0.196035,1.527876,7.729406,-1.978057,0.333057,1,0,,38.990645,-76.937793,-5.741000,,,
2026-09-11T16:36:06.457,9.424371,2.089582,17.496374,19.347981,0.000000,-17.396112,5.984901,2.078192,0.120473,0.253628,1.687258,11.118498,10.649878,-0.004704,-0.008868,0.255111,0.154749,0.077865,10.515083,-1.968942,0.267476,1,0,,38.990645,-76.937793,-5.741000,,,
2026-09-11T16:36:06.490,9.457784,2.090021,17.565962,19.352051,0.000000,-19.114786,6.576188,2.076270,0.136500,0.287367,1.696296,11.105860,10.718259,-0.024844,-0.029489,0.288851,1.055196,-0.882010,10.377005,-1.901826,0.135944,1,0,,38.990645,-76.937793,-5.741000,,,
2026-09-11T16:36:06.523,9.491211,2.070667,17.635641,19.172845,0.000000,-21.549631,7.413864,2.053356,0.160577,0.338056,1.706749,11.091943,10.786040,0.072891,0.011227,0.339540,-0.593204,5.027477,15.033889,-1.940312,0.382532,1,0,,38.990645,-76.937793,-5.741000,,,
2026-09-11T16:36:06.557,9.524631,2.061299,17.705230,19.086103,0.000000,-24.487101,8.424461,2.039057,0.197807,0.416436,1.719357,11.076322,10.852879,-0.037421,-0.026048,0.417920,-0.099341,-0.828662,6.735305,-1.944602,0.236782,1,0,,38.990645,-76.937793,-5.741000,,,
2026-09-11T16:36:06.590,9.558047,2.051665,17.773633,18.996902,0.000000,-27.394358,9.424664,2.023972,0.173432,0.365120,1.732415,11.059709,10.918993,-0.041533,-0.038422,0.366604,1.344001,-1.863165,7.887783,-1.854341,0.032799,1,0,,38.990645,-76.937793,-5.741000,,,
2026-09-11T16:36:06.624,9.591472,2.042178,17.842173,18.909060,0.000000,-29.778391,10.244859,2.009619,0.193214,0.406766,1.745315,11.042393,10.984427,0.001644,-0.082415,0.408250,1.952700,-0.106696,8.361738,-1.723384,-0.060221,1,0,,38.990645,-76.937793,-5.741000,,,
2026-09-11T16:36:06.657,9.624896,2.061757,17.911032,19.090342,0.000000,-30.061975,10.342423,2.028258,0.216878,0.456586,1.759743,11.023456,11.049553,0.057449,0.156191,0.458069,3.634148,-0.245559,18.850245,-1.482122,-0.168232,1,0,,38.990645,-76.937793,-5.741000,,,
2026-09-11T16:36:06.691,9.658311,2.033084,17.978661,18.824854,0.000000,-30.312601,10.428647,1.999500,0.195768,0.412143,1.774258,11.003579,11.114212,0.025590,0.161816,0.413627,3.718388,4.285604,11.944990,-1.238220,0.025088,1,0,,38.990645,-76.937793,-5.741000,,,
2026-09-11T16:36:06.724,9.691727,2.043181,18.046837,18.918340,0.000000,-30.061975,10.342423,2.009984,0.193019,0.406356,1.787933,10.983240,11.178370,-0.011472,0.021857,0.407840,1.401665,0.340291,12.482002,-1.146433,-0.038822,1,0,,38.990645,-76.937793,-5.741000,,,
2026-09-11T16:36:06.757,9.725145,2.053359,18.115605,19.012579,0.000000,-30.391565,10.455814,2.019263,0.187741,0.395243,1.801327,10.962092,11.242601,0.089630,0.035374,0.396727,1.944855,0.461599,9.823616,-1.017735,-0.092954,1,0,,38.990645,-76.937793,-5.741000,,,
2026-09-11T16:36:06.791,9.758562,2.044160,18.183871,18.927410,0.000000,-30.316034,10.429828,2.010385,0.218509,0.460019,1.815617,10.939645,11.306435,0.042077,0.034792,0.461502,-0.461109,0.069431,8.905615,-1.046104,-0.180095,1,0,,38.990645,-76.937793,-5.741000,,,
2026-09-11T16:36:06.824,9.791981,2.044841,18.252001,18.933712,0.000000,-30.129267,10.365573,2.011469,0.192917,0.406142,1.830090,10.916227,11.369801,-0.005154,-0.080154,0.407625,-0.692055,3.682593,11.006592,-1.091085,-0.025225,1,0,,38.990645,-76.937793,-5.741000,,,
2026-09-11T16:36:06.859,9.825400,2.035461,18.320223,18.846858,0.000000,-29.560038,10.169738,2.003482,0.160426,0.337738,1.842520,10.892927,11.432991,0.021191,-0.038236,0.339221,0.729615,1.096187,7.839240,-1.044476,-0.030533,1,0,,38.990645,-76.937793,-5.741000,,,
2026-09-11T16:36:06.892,9.858821,2.026221,18.387760,18.761304,0.000000,-28.931757,9.953586,1.995722,0.198169,0.417197,1.855136,10.868825,11.495605,-0.045353,0.054817,0.418680,2.256412,-4.464183,8.424403,-0.898344,-0.406081,1,0,,38.990645,-76.937793,-5.741000,,,
2026-09-11T16:36:06.925,9.892248,2.006590,18.454888,18.579534,0.000000,-29.013468,9.981698,1.976216,0.177631,0.373961,1.868359,10.843766,11.557399,-0.061197,-0.000514,0.375444,-2.461273,1.919161,9.144799,-1.059343,-0.357897,1,0,,38.990645,-76.937793,-5.741000,,,
2026-09-11T16:36:06.958,9.925665,2.016229,18.522334,18.668789,0.000000,-29.016901,9.982879,1.985703,0.164206,0.345697,1.880383,10.818526,11.618862,0.021836,0.045178,0.347181,-0.213981,-1.421082,3.632972,-1.073043,-0.523170,1,0,,38.990645,-76.937793,-5.741000,,,
2026-09-11T16:36:06.992,9.959087,1.987641,18.587912,18.404080,0.000000,-29.516092,10.154619,1.956505,0.177804,0.374324,1.892415,10.792649,11.679711,0.091805,0.216873,0.375807,0.441495,3.374076,17.667759,-1.040482,-0.379035,1,0,,38.990645,-76.937793,-5.741000,,,
2026-09-11T16:36:07.025,9.992507,1.949403,18.652259,18.050024,0.000000,-29.961039,10.307697,1.917941,0.217867,0.458668,1.906335,10.765505,11.738852,0.132857,0.002717,0.460152,5.951950,-0.037756,11.939695,-0.649140,-0.467015,1,0,,38.990645,-76.937793,-5.741000,,,
2026-09-11T16:36:07.059,10.025929,1.949759,18.717336,18.053324,0.000000,-29.926706,10.295885,1.918364,0.182391,0.383982,1.920416,10.737669,11.796991,0.100679,0.028705,0.385466,1.352337,1.840022,10.861552,-0.560352,-0.423134,1,1,10.015028,38.990647,-76.937771,-5.818000,9.954688,-12.173621,4.608747
2026-09-11T16:36:07.092,10.059351,1.949939,18.782322,18.054992,0.000000,-29.598490,10.182967,1.919224,0.167634,0.352914,1.932730,10.709849,11.855067,0.064234,0.129844,0.354397,-0.019613,-3.319257,12.128277,-0.559405,-0.710031,1,0,,38.990647,-76.937771,-5.818000,,,
2026-09-11T16:36:07.125,10.092778,1.930955,18.846441,17.879212,0.000000,-28.326822,9.745466,1.903090,0.151077,0.318058,1.943945,10.681924,11.912772,0.044922,0.144003,0.319541,0.132096,-1.521306,6.892212,-0.547281,-0.872644,1,0,,38.990647,-76.937771,-5.818000,,,
2026-09-11T16:36:07.158,10.126203,1.931594,18.911108,17.885131,0.000000,-27.819391,9.570891,1.904708,0.154909,0.326124,1.954711,10.653655,11.970014,0.051576,0.037173,0.327607,-0.124544,2.823629,8.211795,-0.553076,-0.753103,1,0,,38.990647,-76.937771,-5.818000,,,
2026-09-11T16:36:07.192,10.159643,1.922491,18.975638,17.800842,0.000000,-28.151041,9.684991,1.895091,0.169917,0.357720,1.966144,10.624500,12.026720,0.045072,0.012398,0.359204,0.094928,0.856121,10.533617,-0.544636,-0.765980,1,0,,38.990647,-76.937771,-5.818000,,,
2026-09-11T16:36:07.225,10.193069,1.913329,19.039028,17.716005,0.000000,-28.213526,9.706488,1.885938,0.158137,0.332919,1.977687,10.594780,12.082756,-0.008018,-0.000855,0.334403,-0.285668,-1.589560,8.751357,-0.562839,-0.933844,1,0,,38.990647,-76.937771,-5.818000,,,
2026-09-11T16:36:07.259,10.226490,1.884598,19.101963,17.449981,0.000000,-28.151041,9.684991,1.857738,0.168116,0.353929,1.989165,10.564702,12.137877,0.009742,0.082143,0.355413,-0.527696,-2.013501,9.987583,-0.601477,-1.129169,1,0,,38.990647,-76.937771,-5.818000,,,
2026-09-11T16:36:07.292,10.259910,1.874798,19.164943,17.359241,0.000000,-28.107782,9.670109,1.848159,0.155458,0.327281,2.000548,10.534294,12.192094,0.011914,0.028336,0.328765,-0.992041,1.449031,9.440372,-0.672841,-1.094758,1,0,,38.990647,-76.937771,-5.818000,,,
2026-09-11T16:36:07.326,10.293324,1.884715,19.227696,17.451061,0.000000,-28.131815,9.678377,1.857889,0.153169,0.322462,2.011403,10.503516,12.246065,0.088285,0.012124,0.323945,-0.070314,2.697613,10.976878,-0.684483,-0.979543,1,0,,38.990647,-76.937771,-5.818000,,,
2026-09-11T16:36:07.361,10.326744,1.836643,19.289537,17.005958,0.000000,-27.927195,9.607980,1.810881,0.137999,0.290525,2.021646,10.472700,12.299284,0.000203,0.021279,0.292009,-0.641061,4.737985,9.302588,-0.734042,-0.728741,1,0,,38.990647,-76.937771,-5.818000,,,
2026-09-11T16:36:07.392,10.360164,1.846606,19.350922,17.098203,0.000000,-27.767893,9.553174,1.820997,0.147305,0.310115,2.031683,10.441701,12.351676,0.088628,0.033765,0.311599,-1.310855,0.891326,10.309241,-0.827632,-0.732271,1,0,,38.990647,-76.937771,-5.818000,,,
2026-09-11T16:36:07.426,10.393582,1.827525,19.411806,16.921526,0.000000,-28.063837,9.654990,1.801639,0.147133,0.309753,2.042040,10.410108,12.403538,-0.086829,-0.007045,0.311237,-0.450223,4.502821,6.042367,-0.865401,-0.501482,1,0,,38.990647,-76.937771,-5.818000,,,
2026-09-11T16:36:07.459,10.427000,1.837343,19.473283,17.012431,0.000000,-27.889429,9.594987,1.811639,0.169935,0.357758,2.053194,10.377692,12.454745,0.008642,-0.091321,0.359241,4.107613,-0.419823,4.559798,-0.607933,-0.597838,1,0,,38.990647,-76.937771,-5.818000,,,
2026-09-11T16:36:07.493,10.460422,1.837806,19.534896,17.016723,0.000000,-28.204599,9.703417,1.811513,0.149077,0.313847,2.064417,10.344594,12.505725,-0.074832,0.195061,0.315331,0.962425,-2.035664,10.299140,-0.558912,-0.792608,1,0,,38.990647,-76.937771,-5.818000,,,
2026-09-11T16:36:07.526,10.493837,1.848071,19.595871,17.111772,0.000000,-28.598734,9.839014,1.820890,0.163220,0.343621,2.075401,10.310965,12.556510,0.120381,-0.052229,0.345104,0.689898,-0.576435,11.831135,-0.531266,-0.894396,1,0,,38.990647,-76.937771,-5.818000,,,
2026-09-11T16:36:07.559,10.527253,1.848491,19.658077,17.115660,0.000000,-28.562342,9.826494,1.821372,0.159390,0.335557,2.086749,10.276539,12.606980,0.029025,-0.025308,0.337041,-0.031185,-2.060377,9.862842,-0.550660,-1.090172,1,0,,38.990647,-76.937771,-5.818000,,,
2026-09-11T16:36:07.593,10.560669,1.858632,19.719736,17.209555,0.000000,-27.368952,9.415924,1.833590,0.152923,0.321943,2.097734,10.241595,12.657330,0.025251,0.022161,0.323426,-0.372947,-1.206708,8.295151,-0.593808,-1.227150,1,0,,38.990647,-76.937771,-5.818000,,,
2026-09-11T16:36:07.627,10.594097,1.839491,19.781440,17.032326,0.000000,-22.236277,7.650095,1.823119,0.114160,0.240337,2.107132,10.206763,12.707752,0.008619,0.001962,0.241820,-1.058039,-0.949186,8.189043,-0.684558,-1.336130,1,0,,38.990647,-76.937771,-5.818000,,,
2026-09-11T16:36:07.660,10.627522,1.849315,19.843327,17.123287,0.000000,-18.365656,6.318460,1.838081,0.117820,0.248043,2.115294,10.171957,12.758225,-0.078714,-0.043441,0.249526,-0.277626,-2.189040,10.001410,-0.725028,-1.525298,1,0,,38.990647,-76.937771,-5.818000,,,
2026-09-11T16:36:07.694,10.660937,1.839393,19.904347,17.031413,0.000000,-17.299295,5.951592,1.829478,0.098643,0.207670,2.122908,10.136931,12.808634,-0.024950,0.017440,0.209153,-0.048151,3.376332,10.713373,-0.750687,-1.347225,1,0,,38.990647,-76.937771,-5.818000,,,
2026-09-11T16:36:07.727,10.694352,1.830006,19.965049,16.944503,0.000000,-15.281931,5.257545,1.822307,0.072809,0.153281,2.128939,10.102340,12.858975,0.015239,-0.054671,0.154765,-0.288119,0.439730,9.308963,-0.789512,-1.354660,1,0,,38.990647,-76.937771,-5.818000,,,
2026-09-11T16:36:07.760,10.727769,1.830266,20.026389,16.946907,0.000000,-14.369379,4.943594,1.823457,0.079053,0.166428,2.134281,10.067792,12.909210,0.072395,-0.051259,0.167912,0.209274,4.482129,9.076349,-0.794157,-1.101925,1,0,,38.990647,-76.937771,-5.818000,,,
2026-09-11T16:36:07.794,10.761189,1.840271,20.087957,17.039550,0.000000,-13.902460,4.782956,1.833863,0.097655,0.205589,2.140497,10.032498,12.959187,0.000597,0.016027,0.207073,-0.951343,-6.435124,8.590527,-0.873127,-1.563398,1,0,,38.990647,-76.937771,-5.818000,,,
2026-09-11T16:36:07.827,10.794603,1.830766,20.148795,16.951540,0.000000,-13.736978,4.726025,1.824542,0.061270,0.128990,2.146087,9.997154,13.009126,-0.087324,-0.042347,0.130474,0.956541,1.302912,5.378163,-0.825123,-1.509735,1,0,,38.990647,-76.937771,-5.818000,,,
2026-09-11T16:36:07.861,10.828024,1.831471,20.211229,16.958066,0.000000,-13.755518,4.732403,1.825227,0.085520,0.180043,2.151251,9.961785,13.058872,0.004628,0.050117,0.181526,0.088848,-2.342220,8.885512,-0.834103,-1.698619,1,0,,38.990647,-76.937771,-5.818000,,,
2026-09-11T16:36:07.894,10.861452,1.851435,20.272614,17.142918,0.000000,-13.837229,4.760514,1.845048,0.081080,0.170694,2.157113,9.925668,13.108535,-0.045605,-0.037528,0.172178,0.289002,5.651082,8.592391,-0.830724,-1.367099,1,0,,38.990647,-76.937771,-5.818000,,,
2026-09-11T16:36:07.927,10.894871,1.842355,20.334273,17.058847,0.000000,-14.380365,4.947373,1.835491,0.080480,0.169432,2.162797,9.889251,13.158167,-0.068591,0.024559,0.170915,0.139941,-2.959745,8.599550,-0.836496,-1.596386,1,0,,38.990647,-76.937771,-5.818000,,,
2026-09-11T16:36:07.961,10.928290,1.852609,20.396296,17.153787,0.000000,-16.557718,5.696463,1.843460,0.107651,0.226634,2.169415,9.852176,13.207302,-0.105945,-0.034469,0.228118,1.087459,2.955528,9.271697,-0.781864,-1.447197,1,0,,38.990647,-76.937771,-5.818000,,,
2026-09-11T16:36:07.994,10.961714,1.823716,20.457135,16.886261,0.000000,-17.941309,6.172469,1.813144,0.120357,0.253383,2.177437,9.814402,13.255486,-0.084519,-0.008707,0.254866,0.582515,5.011590,7.805505,-0.760916,-1.169218,1,0,,38.990647,-76.937771,-5.818000,,,
2026-09-11T16:36:08.028,10.995299,1.843579,20.518976,17.070179,0.000000,-21.269480,7.317482,1.828565,0.132729,0.279430,2.186384,9.775833,13.303131,-0.050407,0.005511,0.280913,-1.190429,0.298907,10.825855,-0.854191,-1.202902,1,0,,38.990647,-76.937771,-5.818000,,,
2026-09-11T16:36:08.061,11.028719,1.833801,20.580270,16.979640,0.000000,-26.031366,8.955745,1.811445,0.159569,0.335934,2.196667,9.736487,13.349766,-0.056352,0.015702,0.337417,-0.420509,-0.496707,9.071446,-0.896245,-1.293862,1,1,11.014441,38.990654,-76.937751,-5.859000,11.622709,-11.416383,3.618687
2026-09-11T16:36:08.095,11.062142,1.833963,20.641154,16.981143,0.000000,-31.764170,10.928040,1.800706,0.189442,0.398825,2.208946,9.696122,13.395023,0.029284,0.004278,0.400308,-0.167203,-0.298318,8.077836,-0.921593,-1.378077,1,0,,38.990654,-76.937751,-5.859000,,,
2026-09-11T16:36:08.128,11.095564,1.853591,20.703086,17.162879,0.000000,-32.772852,11.275064,1.817816,0.201576,0.424371,2.222702,9.654546,13.439410,0.023078,-0.054207,0.425855,0.265466,1.570241,9.898833,-0.916609,-1.343848,1,0,,38.990654,-76.937751,-5.859000,,,
2026-09-11T16:36:08.162,11.128981,1.854058,20.764016,17.167204,0.000000,-33.812433,11.632718,1.815976,0.211291,0.444823,2.237225,9.611909,13.483179,0.057611,-0.033714,0.446306,0.734518,2.837456,10.335425,-0.880674,-1.230333,1,0,,38.990654,-76.937751,-5.859000,,,
2026-09-11T16:36:08.195,11.162425,1.854355,20.826586,17.169952,0.000000,-33.975855,11.688941,1.815899,0.214001,0.450528,2.252197,9.568453,13.526195,-0.000484,-0.070258,0.452012,-0.071490,0.532305,12.381288,-0.897243,-1.267976,1,0,,38.990654,-76.937751,-5.859000,,,
2026-09-11T16:36:08.228,11.195847,1.854820,20.888792,17.174255,0.000000,-34.348017,11.816978,1.815510,0.221976,0.467318,2.267535,9.524247,13.568399,0.036741,-0.139391,0.468801,1.931616,1.070396,19.103649,-0.784372,-1.272306,1,0,,38.990654,-76.937751,-5.859000,,,
2026-09-11T16:36:08.262,11.229268,1.855362,20.950131,17.179278,0.000000,-34.354197,11.819104,1.816027,0.210384,0.442914,2.282745,9.479447,13.609964,0.112548,0.049505,0.444397,3.602963,1.513853,11.183014,-0.562445,-1.245028,1,0,,38.990654,-76.937751,-5.859000,,,
2026-09-11T16:36:08.295,11.262691,1.846277,21.012383,17.095154,0.000000,-33.909937,11.666263,1.808136,0.204385,0.430285,2.297338,9.434332,13.650962,0.075516,-0.013740,0.431768,-0.271742,1.425593,9.033886,-0.591773,-1.222059,1,0,,38.990654,-76.937751,-5.859000,,,
2026-09-11T16:36:08.328,11.296108,1.856601,21.074087,17.190751,0.000000,-33.697077,11.593031,1.818726,0.199647,0.420309,2.311550,9.388742,13.691449,0.017423,-0.024550,0.421792,0.016867,-1.743426,8.714189,-0.602265,-1.403577,1,0,,38.990654,-76.937751,-5.859000,,,
2026-09-11T16:36:08.364,11.329524,1.837621,21.135427,17.015007,0.000000,-32.914301,11.323727,1.801849,0.186324,0.392261,2.325127,9.342889,13.731429,0.021606,0.007722,0.393745,0.003825,-1.039897,9.822243,-0.610372,-1.533810,1,0,,38.990654,-76.937751,-5.859000,,,
2026-09-11T16:36:08.396,11.362950,1.837975,21.197313,17.018291,0.000000,-30.331827,10.435262,1.807576,0.168373,0.354469,2.337607,9.297010,13.771045,0.006179,0.076327,0.355952,0.209764,-1.586422,9.188439,-0.602706,-1.693732,1,0,,38.990654,-76.937751,-5.859000,,,
2026-09-11T16:36:08.429,11.396371,1.827994,21.258061,16.925866,0.000000,-28.110529,9.671054,1.802015,0.151323,0.318575,2.348854,9.251089,13.810518,-0.069254,0.044711,0.320058,-0.375791,0.775804,11.422982,-0.631947,-1.694655,1,0,,38.990654,-76.937751,-5.859000,,,
2026-09-11T16:36:08.462,11.429789,1.828273,21.319173,16.928449,0.000000,-26.668573,9.174968,1.804882,0.146578,0.308586,2.359333,9.205035,13.849711,-0.086771,-0.000088,0.310069,-0.153376,-1.758430,10.047698,-0.642886,-1.858458,1,0,,38.990654,-76.937751,-5.859000,,,
2026-09-11T16:36:08.496,11.463216,1.809247,21.379191,16.752287,0.000000,-26.665827,9.174023,1.786104,0.151040,0.317978,2.369805,9.158757,13.888246,-0.069153,0.042839,0.319462,-0.749228,-1.341059,8.587880,-0.690004,-1.994173,1,0,,38.990654,-76.937751,-5.859000,,,
2026-09-11T16:36:08.529,11.496632,1.780538,21.438799,16.486464,0.000000,-26.953531,9.273004,1.757270,0.146837,0.309131,2.380283,9.112663,13.925729,-0.044415,-0.037891,0.310615,-0.127290,-0.295180,10.589025,-0.695358,-2.059068,1,0,,38.990654,-76.937751,-5.859000,,,
2026-09-11T16:36:08.563,11.530055,1.780701,21.498407,16.487969,0.000000,-29.392496,10.112097,1.753039,0.168990,0.355768,2.391394,9.066354,13.962119,0.001577,0.133297,0.357252,-1.621628,2.807350,4.201071,-0.796954,-1.927676,1,0,,38.990654,-76.937751,-5.859000,,,
2026-09-11T16:36:08.596,11.563483,1.761586,21.556739,16.310979,0.000000,-30.489069,10.489359,1.732147,0.166109,0.349703,2.403185,9.019714,13.997463,0.068344,0.159513,0.351187,1.952112,9.709172,7.275652,-0.666699,-1.349756,1,0,,38.990654,-76.937751,-5.859000,,,
2026-09-11T16:36:08.629,11.596896,1.742855,21.615527,16.137544,0.000000,-31.804682,10.941978,1.711169,0.193525,0.407421,2.415834,8.972916,14.031445,0.080614,0.084661,0.408904,-0.942419,-0.778354,10.278938,-0.723832,-1.463029,1,0,,38.990654,-76.937751,-5.859000,,,
2026-09-11T16:36:08.663,11.630313,1.743461,21.673129,16.143153,0.000000,-32.200190,11.078047,1.710974,0.193157,0.406647,2.429436,8.925636,14.064240,0.114138,0.018130,0.408131,-0.962425,0.200644,8.491088,-0.781424,-1.511605,1,0,,38.990654,-76.937751,-5.859000,,,
2026-09-11T16:36:08.696,11.663736,1.724575,21.730778,15.968289,0.000000,-32.171350,11.068125,1.692497,0.182729,0.384692,2.442661,8.878265,14.096342,0.143013,0.068513,0.386176,0.149257,1.645066,12.060709,-0.767755,-1.463263,1,0,,38.990654,-76.937751,-5.859000,,,
2026-09-11T16:36:08.730,11.697151,1.686136,21.787333,15.612369,0.000000,-32.041574,11.023477,1.655025,0.161346,0.339675,2.454763,8.831563,14.127648,0.027641,0.070692,0.341158,-1.099914,-1.599857,9.351033,-0.835178,-1.619703,1,0,,38.990654,-76.937751,-5.859000,,,
2026-09-11T16:36:08.764,11.730572,1.686849,21.844434,15.618969,0.000000,-31.191507,10.731023,1.657349,0.138922,0.292468,2.465326,8.785414,14.158623,0.059451,0.018239,0.293951,0.208587,2.336140,11.607053,-0.817170,-1.514671,1,0,,38.990654,-76.937751,-5.859000,,,
2026-09-11T16:36:08.797,11.763988,1.658112,21.899941,15.352891,0.000000,-29.265467,10.068394,1.632577,0.148625,0.312894,2.475441,8.739385,14.189048,0.040305,0.000868,0.314377,0.072177,1.453542,7.044901,-0.807859,-1.469623,1,0,,38.990654,-76.937751,-5.859000,,,
2026-09-11T16:36:08.830,11.797405,1.677478,21.955812,15.532208,0.000000,-28.341928,9.750663,1.653246,0.138924,0.292472,2.485555,8.693100,14.218962,0.006756,-0.009481,0.293955,-0.505141,0.443947,10.912840,-0.835779,-1.488645,1,0,,38.990654,-76.937751,-5.859000,,,
2026-09-11T16:36:08.864,11.830828,1.658207,22.011319,15.353771,0.000000,-27.136866,9.336078,1.636242,0.117377,0.247109,2.494573,8.646790,14.248894,0.030022,0.041096,0.248593,-1.312914,0.516026,12.034329,-0.918460,-1.497668,1,0,,38.990654,-76.937751,-5.859000,,,
2026-09-11T16:36:08.897,11.864255,1.639104,22.066050,15.176890,0.000000,-25.504709,8.774556,1.619920,0.115807,0.243805,2.502778,8.600899,14.278403,0.017861,-0.006012,0.245289,-0.018927,0.323914,10.310810,-0.920414,-1.518420,1,0,,38.990654,-76.937751,-5.859000,,,
2026-09-11T16:36:08.930,11.897672,1.649104,22.121192,15.269481,0.000000,-23.182474,7.975622,1.633152,0.125550,0.264316,2.511268,8.554735,14.307377,0.026427,0.040547,0.265800,0.525636,2.369091,11.640003,-0.890222,-1.408951,1,0,,38.990654,-76.937751,-5.859000,,,
2026-09-11T16:36:08.964,11.931091,1.649648,22.176334,15.274520,0.000000,-19.951120,6.863918,1.637825,0.110829,0.233323,2.519583,8.508133,14.336208,-0.017846,0.033391,0.234807,0.226534,1.676055,10.302965,-0.886512,-1.342337,1,0,,38.990654,-76.937751,-5.859000,,,
2026-09-11T16:36:08.997,11.964504,1.630304,22.230747,15.095405,0.000000,-19.866663,6.834861,1.618718,0.113524,0.238998,2.527474,8.461621,14.364680,0.008798,0.053035,0.240482,-0.083160,0.161810,10.426921,-0.910192,-1.374771,1,0,,38.990654,-76.937751,-5.859000,,,
2026-09-11T16:36:09.030,11.997929,1.601751,22.284203,14.831029,0.000000,-19.984079,6.875257,1.590233,0.115721,0.243622,2.535539,8.415474,14.392267,0.003363,0.020935,0.245106,-0.073256,2.212969,7.961823,-0.940647,-1.274107,1,0,,38.990654,-76.937751,-5.859000,,,
2026-09-11T16:36:09.064,12.031348,1.592476,22.338024,14.745145,0.000000,-20.435892,7.030697,1.580501,0.124119,0.261304,2.543976,8.369534,14.418959,-0.053715,0.023723,0.262787,-0.381577,1.096776,12.934285,-0.997847,-1.248476,1,1,12.015963,38.990664,-76.937737,-5.879000,12.879487,-10.210103,2.968787
2026-09-11T16:36:09.098,12.064772,1.573715,22.390386,14.571438,0.000000,-20.820414,7.162986,1.561433,0.106647,0.224521,2.552096,8.323850,14.445132,0.045796,-0.044190,0.226004,-1.014400,0.812089,7.220048,-1.099567,-1.237514,1,0,,38.990664,-76.937737,-5.879000,,,
2026-09-11T16:36:09.131,12.098199,1.593816,22.442884,14.757555,0.000000,-20.654245,7.105818,1.581574,0.114427,0.240900,2.559874,8.278030,14.471085,0.005339,-0.084198,0.242383,0.615465,-0.190543,9.391044,-1.100573,-1.293557,1,0,,38.990664,-76.937737,-5.879000,,,
2026-09-11T16:36:09.164,12.131641,1.613800,22.497252,14.942590,0.000000,-20.582834,7.081250,1.601490,0.107701,0.226740,2.567694,8.231417,14.497043,-0.100022,0.012117,0.228223,-0.086299,-0.904369,9.748399,-1.153402,-1.394078,1,0,,38.990664,-76.937737,-5.879000,,,
2026-09-11T16:36:09.198,12.165142,1.623879,22.551665,15.035915,0.000000,-20.777842,7.148340,1.611257,0.120464,0.253608,2.575740,8.184044,14.522859,-0.069306,0.020056,0.255091,1.163755,-0.320187,9.467144,-1.130405,-1.458707,1,0,,38.990664,-76.937737,-5.879000,,,
2026-09-11T16:36:09.231,12.198560,1.663185,22.606579,15.399865,0.000000,-20.404993,7.020066,1.650717,0.110733,0.233121,2.583873,8.135858,14.548622,-0.037125,0.020522,0.234605,1.649969,-0.932024,11.940773,-1.082901,-1.560515,1,0,,38.990664,-76.937737,-5.879000,,,
2026-09-11T16:36:09.265,12.231992,1.701813,22.664273,15.757529,0.000000,-20.171534,6.939748,1.689345,0.112894,0.237672,2.591742,8.086404,14.574803,-0.001693,-0.010474,0.239155,1.551412,-0.588889,8.509230,-1.050414,-1.640095,1,0,,38.990664,-76.937737,-5.879000,,,
2026-09-11T16:36:09.298,12.265421,1.760136,22.722878,16.297552,0.000000,-20.300623,6.984159,1.747075,0.111268,0.234247,2.599630,8.035367,14.601419,-0.009399,-0.064995,0.235731,2.143930,1.103640,8.517370,-0.986472,-1.609718,1,0,,38.990664,-76.937737,-5.879000,,,
2026-09-11T16:36:09.331,12.298836,1.809283,22.783170,16.752624,0.000000,-20.378214,7.010853,1.795756,0.114551,0.241161,2.607573,7.982602,14.628507,0.047083,-0.001851,0.242644,1.266333,-0.604090,9.545401,-0.983263,-1.691739,1,0,,38.990664,-76.937737,-5.879000,,,
2026-09-11T16:36:09.365,12.332256,1.828990,22.844418,16.935093,0.000000,-20.153681,6.933606,1.815614,0.113732,0.239435,2.615604,7.928607,14.655721,0.068551,0.034938,0.240919,0.393737,-0.875342,7.993793,-1.035240,-1.790522,1,0,,38.990664,-76.937737,-5.879000,,,
2026-09-11T16:36:09.398,12.365677,1.867776,22.906943,17.294224,0.000000,-20.146128,6.931007,1.854127,0.115471,0.243096,2.623667,7.873539,14.682972,0.033609,-0.001732,0.244579,1.415198,0.083749,9.769875,-1.015691,-1.827178,1,0,,38.990664,-76.937737,-5.879000,,,
2026-09-11T16:36:09.432,12.399094,1.926304,22.971473,17.836152,0.000000,-20.242945,6.964316,1.912092,0.121025,0.254789,2.631986,7.816792,14.710454,0.070186,-0.032278,0.256272,1.859831,1.304186,11.157124,-0.961980,-1.786807,1,0,,38.990664,-76.937737,-5.879000,,,
2026-09-11T16:36:09.465,12.432510,1.975237,23.037871,18.289231,0.000000,-20.120035,6.922030,1.960840,0.140224,0.295208,2.641176,7.758049,14.737937,0.111048,0.001310,0.296691,1.309580,-0.617231,10.860963,-0.936945,-1.877147,1,0,,38.990664,-76.937737,-5.879000,,,
2026-09-11T16:36:09.499,12.465926,2.014765,23.104634,18.655232,0.000000,-20.076090,6.906912,2.000144,0.140657,0.296120,2.651055,7.697595,14.765271,0.081143,-0.029490,0.297603,1.230833,1.286436,9.529906,-0.909155,-1.844175,1,0,,38.990664,-76.937737,-5.879000,,,
2026-09-11T16:36:09.532,12.499342,2.054180,23.173356,19.020187,0.000000,-20.080210,6.908329,2.039267,0.144478,0.304164,2.661085,7.635681,14.792549,0.090018,-0.070149,0.305647,1.520423,-1.594267,13.122769,-0.854886,-1.999773,1,0,,38.990664,-76.937737,-5.879000,,,
2026-09-11T16:36:09.566,12.532758,2.073913,23.242535,19.202895,0.000000,-17.047983,5.865132,2.063056,0.112014,0.235819,2.670107,7.572792,14.820147,0.151250,-0.003097,0.237302,1.145319,-0.130428,10.091141,-0.816158,-2.050277,1,0,,38.990664,-76.937737,-5.879000,,,
2026-09-11T16:36:09.599,12.566178,2.064442,23.311758,19.115200,0.000000,-10.875040,3.741413,2.060042,0.090962,0.191499,2.677247,7.509771,14.848195,0.100392,0.072702,0.192983,0.602423,-0.833663,12.040605,-0.804863,-2.139777,1,0,,38.990664,-76.937737,-5.879000,,,
2026-09-11T16:36:09.632,12.599603,2.044882,23.380116,18.934089,0.000000,-5.691553,1.958103,2.043688,0.038516,0.081087,2.681803,7.447413,14.876834,0.055778,0.025237,0.082571,-0.401288,1.095795,6.199568,-0.853088,-2.088619,1,0,,38.990664,-76.937737,-5.879000,,,
2026-09-11T16:36:09.666,12.633022,2.025725,23.448155,18.756712,0.000000,-4.176126,1.436741,2.025088,0.031248,0.065786,2.684257,7.385935,14.905884,0.045376,0.019056,0.067270,-0.071490,6.253701,7.774418,-0.872007,-1.702158,1,0,,38.990664,-76.937737,-5.879000,,,
2026-09-11T16:36:09.699,12.666442,1.987042,23.514462,18.398535,0.000000,-3.895975,1.340358,1.986498,0.032766,0.068982,2.686509,7.325286,14.934456,0.046669,-0.003404,0.070466,-1.048331,0.559077,9.924624,-0.945212,-1.688728,1,0,,38.990664,-76.937737,-5.879000,,,
2026-09-11T16:36:09.732,12.699864,1.958209,23.580405,18.131562,0.000000,-3.988672,1.372250,1.957647,0.036965,0.077820,2.688962,7.265537,14.962307,0.061156,0.005428,0.079304,-0.241244,3.108708,9.257870,-0.957194,-1.511411,1,0,,38.990664,-76.937737,-5.879000,,,
2026-09-11T16:36:09.766,12.733294,1.939252,23.645253,17.956034,0.000000,-4.046350,1.392093,1.938679,0.046601,0.098107,2.691903,7.206317,14.989446,0.024336,-0.005303,0.099591,0.010003,1.027149,9.469498,-0.943960,-1.473228,1,0,,38.990664,-76.937737,-5.879000,,,
2026-09-11T16:36:09.799,12.766717,1.929980,23.709783,17.870188,0.000000,-4.244791,1.460364,1.929353,0.046889,0.098714,2.695192,7.147381,15.016040,0.024998,-0.035219,0.100197,-0.507102,2.927579,10.509591,-0.959670,-1.312474,1,0,,38.990664,-76.937737,-5.879000,,,
2026-09-11T16:36:09.832,12.800134,1.901228,23.772672,17.603964,0.000000,-4.481684,1.541864,1.900540,0.053996,0.113676,2.698741,7.088885,15.042044,0.039403,0.012556,0.115159,-0.181619,-1.021461,9.619735,-0.953444,-1.410772,1,0,,38.990664,-76.937737,-5.879000,,,
2026-09-11T16:36:09.866,12.833556,1.872642,23.835562,17.339275,0.000000,-4.497477,1.547297,1.871959,0.051653,0.108744,2.702458,7.031121,15.067357,0.025887,0.025282,0.110227,-0.849942,-0.849844,10.958637,-0.991802,-1.496072,1,0,,38.990664,-76.937737,-5.879000,,,
2026-09-11T16:36:09.899,12.866973,1.873178,23.897813,17.344243,0.000000,-4.441858,1.528162,1.872512,0.039660,0.083495,2.705670,6.973805,15.092483,0.011442,-0.002014,0.084979,0.182698,0.417567,9.632386,-0.965752,-1.495334,1,0,,38.990664,-76.937737,-5.879000,,,
2026-09-11T16:36:09.932,12.900392,1.854219,23.959563,17.168699,0.000000,-4.533869,1.559817,1.853532,0.034099,0.071786,2.708264,6.916814,15.117582,0.015379,0.065138,0.073270,0.880735,1.037642,15.245909,-0.897799,-1.452964,1,0,,38.990664,-76.937737,-5.879000,,,
2026-09-11T16:36:09.966,12.933811,1.844740,24.020629,17.080929,0.000000,-4.746042,1.632813,1.843991,0.049511,0.104235,2.711206,6.860118,15.142173,0.066712,-0.073716,0.105718,1.913964,-1.622314,14.750379,-0.767388,-1.587049,1,0,,38.990664,-76.937737,-5.879000,,,
2026-09-11T16:36:09.999,12.967226,1.815606,24.081285,16.811165,0.000000,-4.685617,1.612024,1.814887,0.033213,0.069921,2.714115,6.803951,15.166341,0.076207,0.031134,0.071405,0.100616,-0.491705,7.982025,-0.757443,-1.642237,1,0,,38.990664,-76.937737,-5.879000,,,
2026-09-11T16:36:10.033,13.000640,1.786596,24.140620,16.542557,0.000000,-4.869638,1.675334,1.785832,0.038892,0.081877,2.716652,6.748676,15.190116,0.016501,-0.020357,0.083360,0.536031,4.923135,8.539533,-0.719752,-1.347652,1,0,,38.990664,-76.937737,-5.879000,,,
2026-09-11T16:36:10.067,13.034065,1.806320,24.201595,16.725189,0.000000,-5.193735,1.786835,1.805442,0.041540,0.087453,2.719481,6.693409,15.213556,0.002799,0.012976,0.088936,1.275649,2.928266,11.340999,-0.638821,-1.186118,1,1,13.014677,38.990678,-76.937725,-5.916000,13.898738,-8.746593,3.129196
2026-09-11T16:36:10.100,13.067482,1.796883,24.261340,16.637803,0.000000,-5.667520,1.949835,1.795842,0.046810,0.098547,2.722589,6.637878,15.236775,0.006440,0.024834,0.100030,0.717553,-0.405015,11.358356,-0.597999,-1.243391,1,0,,38.990678,-76.937725,-5.916000,,,
2026-09-11T16:36:10.133,13.100914,1.806910,24.322406,16.730648,0.000000,-6.450983,2.219375,1.805555,0.054208,0.114122,2.726144,6.582157,15.259626,-0.003155,0.021443,0.115606,-0.584280,-0.364415,8.264260,-0.640617,-1.299308,1,0,,38.990678,-76.937725,-5.916000,,,
2026-09-11T16:36:10.166,13.134332,1.807207,24.381650,16.733396,0.000000,-8.072153,2.777117,1.805084,0.065275,0.137420,2.730347,6.526106,15.282030,0.030474,-0.036011,0.138904,0.083160,2.465882,10.130564,-0.640726,-1.174101,1,0,,38.990678,-76.937725,-5.916000,,,
2026-09-11T16:36:10.200,13.167753,1.797925,24.441577,16.647457,0.000000,-10.049005,3.457227,1.794653,0.066353,0.139690,2.734978,6.470038,15.303931,-0.012776,-0.007656,0.141173,0.252619,2.330060,9.440372,-0.633507,-1.059228,1,0,,38.990678,-76.937725,-5.916000,,,
2026-09-11T16:36:10.234,13.201169,1.798863,24.501458,16.656142,0.000000,-11.635843,4.003157,1.794474,0.081071,0.170676,2.740164,6.413931,15.325241,-0.070353,-0.029958,0.172159,1.624177,0.031479,14.347816,-0.541815,-1.098025,1,0,,38.990678,-76.937725,-5.916000,,,
2026-09-11T16:36:10.268,13.234589,1.779871,24.561340,16.480289,0.000000,-15.224939,5.237938,1.772439,0.085841,0.180718,2.746035,6.357917,15.345799,-0.035788,0.036217,0.182202,1.633886,2.444209,11.787593,-0.456049,-0.981110,1,0,,38.990678,-76.937725,-5.916000,,,
2026-09-11T16:36:10.301,13.268007,1.780417,24.621449,16.485346,0.000000,-16.992365,5.845997,1.771158,0.093153,0.196111,2.752332,6.302064,15.365678,0.052679,-0.010375,0.197595,0.253208,0.603305,6.279100,-0.463734,-0.986417,1,0,,38.990678,-76.937725,-5.916000,,,
2026-09-11T16:36:10.334,13.301428,1.809638,24.680693,16.755903,0.000000,-17.300669,5.952065,1.799882,0.102213,0.215186,2.759205,6.245549,15.385108,-0.055038,-0.224226,0.216670,0.999690,0.662047,16.028185,-0.426170,-0.990451,1,0,,38.990678,-76.937725,-5.916000,,,
2026-09-11T16:36:10.367,13.334849,1.771040,24.739344,16.398521,0.000000,-17.429071,5.996240,1.761350,0.087730,0.184695,2.765887,6.189089,15.404182,-0.051785,0.064491,0.186179,0.259386,-3.763498,11.295398,-0.441423,-1.276923,1,0,,38.990678,-76.937725,-5.916000,,,
2026-09-11T16:36:10.401,13.368266,1.761523,24.797676,16.310400,0.000000,-17.513529,6.025297,1.751792,0.109758,0.231070,2.772834,6.133211,15.422457,-0.100262,0.050448,0.232553,-1.458543,1.168855,6.924966,-0.571559,-1.246065,1,0,,38.990678,-76.937725,-5.916000,,,
2026-09-11T16:36:10.435,13.401683,1.771440,24.857010,16.402220,0.000000,-17.823893,6.132073,1.761304,0.103357,0.217594,2.780330,6.077108,15.440083,-0.168887,0.075971,0.219077,0.831016,4.117812,9.674555,-0.557156,-1.023268,1,0,,38.990678,-76.937725,-5.916000,,,
2026-09-11T16:36:10.468,13.435117,1.791291,24.916755,16.586025,0.000000,-18.971277,6.526816,1.779681,0.112751,0.237369,2.787936,6.020391,15.457410,-0.055920,0.086510,0.238853,2.486868,2.174036,11.819759,-0.442010,-0.931241,1,0,,38.990678,-76.937725,-5.916000,,,
2026-09-11T16:36:10.502,13.468550,1.801275,24.977229,16.678470,0.000000,-20.159861,6.935732,1.788093,0.134813,0.283816,2.796648,5.962939,15.473931,-0.011639,0.042623,0.285299,2.157855,1.286338,10.223825,-0.356502,-0.903238,1,0,,38.990678,-76.937725,-5.916000,,,
2026-09-11T16:36:10.535,13.501967,1.820902,25.037794,16.860205,0.000000,-20.209986,6.952977,1.807511,0.129621,0.272887,2.805950,5.904831,15.489816,-0.170502,-0.013558,0.274370,1.232009,2.205516,10.313654,-0.340876,-0.815126,1,0,,38.990678,-76.937725,-5.916000,,,
2026-09-11T16:36:10.568,13.535385,1.840627,25.099270,17.042839,0.000000,-20.304743,6.985577,1.826963,0.125948,0.265154,2.814940,5.846013,15.505521,-0.118377,0.009310,0.266638,1.139925,4.454671,10.250793,-0.338927,-0.581774,1,0,,38.990678,-76.937725,-5.916000,,,
2026-09-11T16:36:10.601,13.568809,1.880070,25.162251,17.408052,0.000000,-20.025278,6.889431,1.866495,0.125183,0.263542,2.823776,5.786136,15.521085,-0.022074,-0.027909,0.265026,1.777848,-1.678899,9.325928,-0.301816,-0.748671,1,0,,38.990678,-76.937725,-5.916000,,,
2026-09-11T16:36:10.635,13.602225,1.909873,25.225869,17.684008,0.000000,-19.822718,6.819742,1.896360,0.126127,0.265531,2.832615,5.725035,15.536470,-0.075227,0.021106,0.267015,2.256706,1.832569,8.762536,-0.237642,-0.687080,1,0,,38.990678,-76.937725,-5.916000,,,
2026-09-11T16:36:10.668,13.635640,1.949043,25.290718,18.046693,0.000000,-19.771906,6.802261,1.935323,0.141052,0.296952,2.842013,5.662620,15.551388,-0.003602,0.023908,0.298435,-1.541703,3.409772,8.075384,-0.416538,-0.528653,1,0,,38.990678,-76.937725,-5.916000,,,
2026-09-11T16:36:10.702,13.669056,1.978387,25.356752,18.318400,0.000000,-19.607111,6.745566,1.964692,0.101955,0.214641,2.850561,5.599095,15.566467,-0.058655,0.064169,0.216125,-0.126996,1.574163,10.290510,-0.495454,-0.480922,1,0,,38.990678,-76.937725,-5.916000,,,
2026-09-11T16:36:10.735,13.702474,2.036894,25.425064,18.860127,0.000000,-19.440256,6.688161,2.023032,0.132023,0.277944,2.858791,5.534084,15.581568,-0.085916,0.046599,0.279427,-1.058236,-4.389260,11.047289,-0.626440,-0.828959,1,0,,38.990678,-76.937725,-5.916000,,,
2026-09-11T16:36:10.768,13.735893,2.066242,25.494607,19.131869,0.000000,-19.841944,6.826357,2.051594,0.155682,0.327752,2.868912,5.467291,15.595610,0.059066,0.100084,0.329236,0.296161,-0.723535,11.555176,-0.660201,-0.942904,1,0,,38.990678,-76.937725,-5.916000,,,
2026-09-11T16:36:10.801,13.769309,2.154098,25.566474,19.945354,0.000000,-20.120035,6.922030,2.138397,0.142147,0.299256,2.879388,5.398457,15.609304,-0.011228,-0.312022,0.300740,2.783716,4.534889,2.137752,-0.523877,-0.713051,1,0,,38.990678,-76.937725,-5.916000,,,
2026-09-11T16:36:10.836,13.802725,2.212771,25.640209,20.488620,0.000000,-20.560175,7.073455,2.195930,0.165353,0.348111,2.890205,5.327110,15.622722,0.087459,-0.014835,0.349594,-1.530034,0.756485,4.178614,-0.659139,-0.738415,1,0,,38.990678,-76.937725,-5.916000,,,
2026-09-11T16:36:10.869,13.836141,2.242036,25.714947,20.759594,0.000000,-21.519419,7.403470,2.223345,0.174909,0.368229,2.902173,5.254106,15.635143,0.013327,-0.035949,0.369712,0.232614,2.071949,13.755102,-0.671553,-0.681843,1,0,,38.990678,-76.937725,-5.916000,,,
2026-09-11T16:36:10.902,13.869559,2.223024,25.788910,20.583558,0.000000,-22.796579,7.842860,2.202230,0.171743,0.361565,2.914367,5.180825,15.646607,0.080701,-0.040506,0.363049,-0.132096,2.770084,5.356785,-0.701291,-0.579231,1,0,,38.990678,-76.937725,-5.916000,,,
2026-09-11T16:36:10.936,13.902977,2.194472,25.862417,20.319184,0.000000,-25.616632,8.813062,2.168563,0.192459,0.405178,2.927179,5.108238,15.656668,0.129512,0.002039,0.406661,-0.825033,2.828630,6.781985,-0.769347,-0.479293,1,0,,38.990678,-76.937725,-5.916000,,,
2026-09-11T16:36:10.969,13.936396,2.165864,25.934603,20.054294,0.000000,-29.985758,10.316201,2.130851,0.205707,0.433068,2.941185,5.036571,15.664955,0.193899,-0.003508,0.434552,-1.320073,6.389719,9.396830,-0.862526,-0.152652,1,0,,38.990678,-76.937725,-5.916000,,,
2026-09-11T16:36:11.002,13.969817,2.117919,26.004693,19.610364,0.000000,-30.800806,10.596608,2.081801,0.226601,0.477054,2.956394,4.966101,15.671359,0.095008,0.017953,0.478538,-2.546199,1.158558,8.530020,-1.027372,-0.173009,1,0,,38.990678,-76.937725,-5.916000,,,
2026-09-11T16:36:11.036,14.003232,2.069947,26.073643,19.166176,0.000000,-31.446939,10.818901,2.033155,0.228074,0.480156,2.972387,4.897092,15.676007,0.012690,0.032229,0.481639,-0.197702,0.463658,10.292668,-1.029976,-0.237049,1,0,,38.990678,-76.937725,-5.916000,,,
2026-09-11T16:36:11.070,14.036648,2.021336,26.141682,18.716073,0.000000,-31.232706,10.745197,1.985894,0.200361,0.421813,2.987457,4.829664,15.679757,-0.039120,0.104500,0.423296,-1.214063,0.984392,7.134436,-1.088509,-0.257678,1,1,14.013618,38.990693,-76.937716,-5.960000,14.638544,-6.989713,2.968787
2026-09-11T16:36:11.103,14.070069,1.982610,26.206804,18.357496,0.000000,-29.947306,10.302972,1.950642,0.190767,0.401614,3.001216,4.763638,15.682948,-0.000361,0.076442,0.403098,0.553585,1.219163,10.329148,-1.025654,-0.259359,1,0,,38.990693,-76.937716,-5.960000,,,
2026-09-11T16:36:11.136,14.103490,1.973441,26.272656,18.272601,0.000000,-29.356104,10.099577,1.942861,0.174969,0.368355,3.014083,4.698341,15.685580,-0.015993,0.103714,0.369839,-0.015593,0.051387,7.081186,-0.998693,-0.332277,1,0,,38.990693,-76.937716,-5.960000,,,
2026-09-11T16:36:11.169,14.136915,1.954413,26.338143,18.096420,0.000000,-29.270273,10.070048,1.924305,0.183502,0.386319,3.026696,4.633463,15.687449,0.057396,0.036999,0.387803,-0.305673,1.270157,8.005169,-0.993445,-0.327236,1,0,,38.990693,-76.937716,-5.960000,,,
2026-09-11T16:36:11.203,14.170331,1.945061,26.403356,18.009822,0.000000,-29.270960,10.070284,1.915095,0.170317,0.358562,3.039141,4.569051,15.688531,0.097188,0.001443,0.360045,0.610660,4.067308,8.945528,-0.934363,-0.137410,1,0,,38.990693,-76.937716,-5.960000,,,
2026-09-11T16:36:11.236,14.203762,1.945712,26.468387,18.015850,0.000000,-28.869272,9.932089,1.916551,0.158908,0.334543,3.050727,4.504771,15.689235,0.179146,0.019162,0.336027,-1.046468,0.904369,9.962968,-0.991262,-0.151607,1,0,,38.990693,-76.937716,-5.960000,,,
2026-09-11T16:36:11.270,14.237208,1.926860,26.533054,17.841300,0.000000,-28.443552,9.785626,1.898826,0.168970,0.355727,3.062270,4.440734,15.689196,0.084153,-0.005142,0.357211,-1.339686,-1.012439,9.173729,-1.077643,-0.292133,1,0,,38.990693,-76.937716,-5.960000,,,
2026-09-11T16:36:11.303,14.270627,1.927504,26.596490,17.847257,0.000000,-27.289301,9.388521,1.901685,0.150565,0.316978,3.073511,4.377008,15.688547,0.051976,-0.031037,0.318462,0.244774,-0.507004,10.313948,-1.070219,-0.393535,1,0,,38.990693,-76.937716,-5.960000,,,
2026-09-11T16:36:11.337,14.304043,1.908696,26.660427,17.673107,0.000000,-22.634531,7.787109,1.891094,0.136537,0.287446,3.083609,4.313461,15.687753,0.097679,-0.132986,0.288929,0.397071,3.514409,15.895599,-1.057605,-0.229530,1,0,,38.990693,-76.937716,-5.960000,,,
2026-09-11T16:36:11.370,14.337465,1.899674,26.724410,17.589570,0.000000,-18.224207,6.269796,1.888311,0.114363,0.240765,3.092436,4.250168,15.686948,0.018165,0.162427,0.242248,-0.007943,-3.239431,-3.364367,-1.072690,-0.499025,1,0,,38.990693,-76.937716,-5.960000,,,
2026-09-11T16:36:11.403,14.370886,1.880682,26.787481,17.413719,0.000000,-16.034494,5.516454,1.871971,0.093827,0.197530,3.099761,4.187238,15.686331,-0.075527,0.205354,0.199013,3.546967,1.232304,7.520230,-0.859687,-0.470391,1,0,,38.990693,-76.937716,-5.960000,,,
2026-09-11T16:36:11.436,14.404304,1.880686,26.850371,17.413755,0.000000,-13.531671,4.655392,1.874481,0.084962,0.178867,3.106050,4.124570,15.685767,-0.101351,0.082921,0.180350,-0.390010,0.355785,12.431204,-0.905425,-0.496607,1,0,,38.990693,-76.937716,-5.960000,,,
2026-09-11T16:36:11.470,14.437720,1.890602,26.913488,17.505575,0.000000,-13.566690,4.667439,1.884332,0.067195,0.141463,3.111402,4.061719,15.685290,-0.141982,0.038399,0.142947,1.837276,0.845137,7.192688,-0.803568,-0.486393,1,0,,38.990693,-76.937716,-5.960000,,,
2026-09-11T16:36:11.503,14.471143,1.919929,26.977653,17.777117,0.000000,-14.712702,5.061709,1.912441,0.084896,0.178729,3.116753,3.998223,15.684493,-0.106764,0.003793,0.180213,1.394898,1.065591,9.776642,-0.726298,-0.466885,1,0,,38.990693,-76.937716,-5.960000,,,
2026-09-11T16:36:11.537,14.504558,1.968904,27.043368,18.230594,0.000000,-17.162653,5.904582,1.958458,0.103558,0.218016,3.123381,3.933500,15.682735,-0.054694,-0.011655,0.219500,1.236913,0.320187,10.501255,-0.656214,-0.501379,1,0,,38.990693,-76.937716,-5.960000,,,
2026-09-11T16:36:11.570,14.537976,1.978985,27.109447,18.323937,0.000000,-17.581507,6.048683,1.967968,0.115800,0.243790,3.131098,3.867848,15.680011,-0.038458,0.006067,0.245273,-0.018142,2.992597,10.894110,-0.667905,-0.365846,1,0,,38.990693,-76.937716,-5.960000,,,
2026-09-11T16:36:11.604,14.571391,1.959813,27.175207,18.146416,0.000000,-19.107920,6.573826,1.946928,0.133361,0.280760,3.139862,3.802416,15.676250,-0.043511,0.037431,0.282243,0.219669,-0.417665,10.019454,-0.665445,-0.456993,1,0,,38.990693,-76.937716,-5.960000,,,
2026-09-11T16:36:11.638,14.604836,1.960260,27.241970,18.150557,0.000000,-20.232645,6.960772,1.945812,0.149828,0.315428,3.149831,3.737338,15.671303,-0.037968,-0.030516,0.316911,-0.514555,4.276484,10.712000,-0.711687,-0.247302,1,0,,38.990693,-76.937716,-5.960000,,,
2026-09-11T16:36:11.671,14.638245,1.970719,27.307229,18.247399,0.000000,-21.581217,7.424731,1.954196,0.148008,0.311596,3.160306,3.672264,15.665449,-0.022823,-0.005863,0.313080,0.159456,1.770591,8.948372,-0.713410,-0.202090,1,0,,38.990693,-76.937716,-5.960000,,,
2026-09-11T16:36:11.704,14.671669,1.961594,27.372761,18.162911,0.000000,-23.387781,8.046255,1.942283,0.165967,0.349404,3.171352,3.607295,15.658627,0.018910,0.019828,0.350888,-0.461501,-1.939265,10.565096,-0.752107,-0.402203,1,0,,38.990693,-76.937716,-5.960000,,,
2026-09-11T16:36:11.737,14.705151,1.923444,27.436152,17.809664,0.000000,-25.560327,8.793691,1.900834,0.188241,0.396298,3.183836,3.543217,15.650390,0.074968,0.087426,0.397781,2.305053,-0.525342,5.384047,-0.608071,-0.513518,1,0,,38.990693,-76.937716,-5.960000,,,
2026-09-11T16:36:11.771,14.738569,1.874981,27.499223,17.360936,0.000000,-29.179636,10.038866,1.846275,0.149674,0.315103,3.195723,3.480948,15.641740,0.075518,0.030941,0.316586,-0.021477,9.260616,7.792070,-0.610052,0.021555,1,0,,38.990693,-76.937716,-5.960000,,,
2026-09-11T16:36:11.805,14.771989,1.855563,27.561702,17.181142,0.000000,-30.088068,10.351400,1.825363,0.193346,0.407044,3.207790,3.420056,15.632332,0.165420,0.143454,0.408527,-3.126360,-0.639099,7.421477,-0.807680,-0.100991,1,0,,38.990693,-76.937716,-5.960000,,,
2026-09-11T16:36:11.838,14.805406,1.865464,27.623133,17.272816,0.000000,-30.151926,10.373369,1.834974,0.175092,0.368615,3.220750,3.359506,15.621750,0.001543,-0.105466,0.370098,-0.989001,-0.852982,9.978070,-0.864288,-0.231696,1,0,,38.990693,-76.937716,-5.960000,,,
2026-09-11T16:36:11.871,14.838824,1.865888,27.684974,17.276739,0.000000,-31.221720,10.741417,1.833194,0.188373,0.396574,3.233536,3.298958,15.610462,-0.003037,-0.026478,0.398058,0.352647,1.809327,6.793557,-0.833064,-0.191783,1,0,,38.990693,-76.937716,-5.960000,,,
2026-09-11T16:36:11.905,14.872242,1.866323,27.747864,17.280773,0.000000,-31.475092,10.828587,1.833091,0.197709,0.416230,3.247116,3.238636,15.598005,0.061313,0.037899,0.417714,-0.255463,3.378783,10.904014,-0.839283,-0.052979,1,0,,38.990693,-76.937716,-5.960000,,,
2026-09-11T16:36:11.938,14.905655,1.847161,27.809249,17.103344,0.000000,-31.553369,10.855517,1.814107,0.184383,0.388174,3.260555,3.178803,15.584839,0.001962,0.059522,0.389658,0.590066,1.706946,8.579642,-0.789143,-0.020201,1,0,,38.990693,-76.937716,-5.960000,,,
2026-09-11T16:36:11.972,14.939070,1.827991,27.870589,16.925842,0.000000,-31.405741,10.804727,1.795584,0.174039,0.366399,3.273162,3.119713,15.571365,-0.063577,0.009899,0.367882,-0.806793,4.974619,10.762799,-0.835286,0.226922,1,0,,38.990693,-76.937716,-5.960000,,,
2026-09-11T16:36:12.005,14.972496,1.838292,27.931701,17.021220,0.000000,-31.094690,10.697715,1.806343,0.188112,0.396025,3.285905,3.060922,15.557091,-0.099249,0.013864,0.397509,1.495122,-1.094030,14.040475,-0.740646,0.074366,1,0,,38.990693,-76.937716,-5.960000,,,
2026-09-11T16:36:12.039,15.005912,1.800052,27.991491,16.667148,0.000000,-30.416285,10.464318,1.770114,0.163409,0.344019,3.298269,3.002720,15.542329,-0.096954,-0.014254,0.345503,0.338722,2.270926,9.805081,-0.729543,0.148452,1,1,15.014445,38.990710,-76.937715,-5.945000,14.783451,-5.119229,3.198241
2026-09-11T16:36:12.072,15.039331,1.810430,28.052330,16.763238,0.000000,-30.759607,10.582434,1.779637,0.170946,0.359887,3.310031,2.945094,15.527216,-0.081717,0.001267,0.361371,0.908096,0.390109,8.460197,-0.687214,0.097815,1,0,,38.990710,-76.937715,-5.945000,,,
2026-09-11T16:36:12.106,15.072747,1.781638,28.111755,16.496645,0.000000,-30.785013,10.591174,1.751285,0.170821,0.359624,3.322053,2.887987,15.511356,-0.144491,-0.031593,0.361107,-0.372653,-1.860420,9.456749,-0.735121,-0.097352,1,0,,38.990710,-76.937715,-5.945000,,,
2026-09-11T16:36:12.139,15.106165,1.782180,28.170908,16.501666,0.000000,-30.835825,10.608655,1.751718,0.177071,0.372782,3.334291,2.831550,15.494786,-0.091457,0.012671,0.374266,-0.106794,2.945329,8.869625,-0.773638,0.019466,1,0,,38.990710,-76.937715,-5.945000,,,
2026-09-11T16:36:12.172,15.139587,1.753263,28.229422,16.233921,0.000000,-30.696436,10.560700,1.723565,0.158247,0.333151,3.346088,2.775720,15.477838,-0.048791,-0.071516,0.334635,1.098443,0.618898,14.716350,-0.741619,-0.010625,1,0,,38.990710,-76.937715,-5.945000,,,
2026-09-11T16:36:12.205,15.173007,1.753252,28.288027,16.233814,0.000000,-30.542627,10.507785,1.723850,0.157386,0.331338,3.357191,2.720481,15.460669,-0.011403,-0.014691,0.332822,0.622624,0.878872,9.829794,-0.749445,-0.023340,1,0,,38.990710,-76.937715,-5.945000,,,
