timestamp,time_s,speed_mps,distance_m,wheel_omega_rad_s,motor_current_A,steer_motor_deg,steer_column_deg,vx_mps,vy_mps,yaw_rate_rad_s,heading_rad,x_m,y_m,gyro_x_rad_s,gyro_y_rad_s,gyro_z_rad_s,accel_x_mps2,accel_y_mps2,accel_z_mps2,grade_deg,bank_deg,moving,gps_new_fix,gps_time_s,gps_latitude_deg,gps_longitude_deg,gps_altitude_m,gps_east_m,gps_north_m,gps_sigma_m
2026-09-11T16:21:26.344,0.000005,0.481998,0.002712,4.462944,0.000000,-111.502105,38.360816,0.377943,0.146339,0.308083,0.000000,0.000000,0.000000,0.046265,0.010336,0.309567,-0.046974,1.998988,10.525478,-1.564173,10.574228,1,1,-0.293608,38.990756,-76.937809,11.130000,0.000000,0.000000,6.354319
2026-09-11T16:21:26.377,0.033410,0.472376,0.018479,4.373853,0.000000,-117.874862,40.553278,0.358912,0.167995,0.353674,0.011053,0.012276,0.005316,0.027731,0.005113,0.355157,0.087770,0.914666,9.972383,-1.556010,10.502089,1,0,,38.990756,-76.937809,11.130000,,,
2026-09-11T16:21:26.411,0.066824,0.492191,0.035501,4.557328,0.000000,-123.308288,42.422576,0.363331,0.172616,0.363401,0.023033,0.024243,0.011212,0.010152,0.020517,0.364885,-0.071490,1.432065,9.259243,-1.558352,10.464503,1,0,,38.990756,-76.937809,11.130000,,,
2026-09-11T16:21:26.444,0.100231,0.501995,0.052123,4.648104,0.000000,-128.131972,44.082101,0.360605,0.182535,0.384285,0.035522,0.036155,0.017495,-0.002981,0.009856,0.385768,0.140333,-1.361555,8.965534,-1.547047,10.242957,1,0,,38.990756,-76.937809,11.130000,,,
2026-09-11T16:21:26.478,0.133638,0.482751,0.067902,4.469921,0.000000,-134.276076,46.195898,0.334158,0.182194,0.383565,0.048348,0.047495,0.024066,-0.035186,0.000125,0.385049,-0.555253,0.241636,9.343972,-1.578691,10.130186,1,0,,38.990756,-76.937809,11.130000,,,
2026-09-11T16:21:26.513,0.167054,0.454011,0.084103,4.203806,0.000000,-134.812346,46.380394,0.313207,0.173396,0.365044,0.060855,0.057971,0.030586,-0.027272,-0.003272,0.366527,0.301653,0.324698,9.850584,-1.550343,10.025054,1,0,,38.990756,-76.937809,11.130000,,,
2026-09-11T16:21:26.545,0.200470,0.473903,0.100121,4.387993,0.000000,-135.038939,46.458351,0.326463,0.176390,0.371347,0.073159,0.068243,0.037134,0.008690,0.011655,0.372831,0.223297,1.015871,9.819301,-1.524948,9.966132,1,0,,38.990756,-76.937809,11.130000,,,
2026-09-11T16:21:26.578,0.233892,0.522800,0.117433,4.840736,0.000000,-136.222716,46.865613,0.357444,0.189312,0.398552,0.086025,0.079148,0.044138,0.032898,0.022827,0.400035,0.826308,0.148473,10.222746,-1.457485,9.849410,1,0,,38.990756,-76.937809,11.130000,,,
2026-09-11T16:21:26.611,0.267297,0.522881,0.134545,4.841487,0.000000,-137.848693,47.425009,0.353757,0.198546,0.417992,0.099663,0.090373,0.051688,0.080581,0.032887,0.419476,0.480820,1.442460,9.592375,-1.413049,9.818775,1,0,,38.990756,-76.937809,11.130000,,,
2026-09-11T16:21:26.644,0.300703,0.542670,0.153042,5.024723,0.000000,-139.862624,48.117875,0.362287,0.209586,0.441233,0.114015,0.101537,0.059743,0.103805,0.005686,0.442717,-0.206920,0.801498,9.916877,-1.416706,9.745566,1,0,,38.990756,-76.937809,11.130000,,,
2026-09-11T16:21:26.679,0.334114,0.543400,0.171464,5.031483,0.000000,-142.819320,49.135087,0.355535,0.209916,0.441929,0.128769,0.112591,0.068150,0.099060,0.014173,0.443412,0.172695,0.269291,9.426839,-1.397436,9.638380,1,0,,38.990756,-76.937809,11.130000,,,
2026-09-11T16:21:26.713,0.367528,0.572811,0.190496,5.303810,0.000000,-147.095061,50.606099,0.363534,0.214180,0.450905,0.143685,0.123530,0.076802,0.075629,0.030043,0.452389,-0.782276,1.603878,9.352406,-1.441309,9.619646,1,0,,38.990756,-76.937809,11.130000,,,
2026-09-11T16:21:26.746,0.400951,0.514887,0.207267,4.767468,0.000000,-149.108992,51.298965,0.321936,0.210941,0.444085,0.158642,0.133786,0.085545,0.035709,0.035162,0.445569,-0.312244,-0.116111,10.105851,-1.457369,9.489465,1,0,,38.990756,-76.937809,11.130000,,,
2026-09-11T16:21:26.778,0.434360,0.486403,0.224031,4.503735,0.000000,-151.659881,52.176564,0.298277,0.190970,0.402042,0.172776,0.142899,0.093873,-0.043799,0.019223,0.403526,-0.875145,0.444732,9.985327,-1.513100,9.399165,1,0,,38.990756,-76.937809,11.130000,,,
2026-09-11T16:21:26.811,0.467766,0.477201,0.239965,4.418528,0.000000,-155.325194,53.437567,0.284268,0.187343,0.394407,0.186079,0.151346,0.101826,-0.067148,0.014953,0.395891,-0.657438,0.859259,9.562367,-1.551679,9.337619,1,0,,38.990756,-76.937809,11.130000,,,
2026-09-11T16:21:26.846,0.501173,0.428898,0.253346,3.971278,0.000000,-159.495879,54.872435,0.246787,0.190761,0.401603,0.199375,0.158843,0.109719,-0.067957,0.028128,0.403087,0.361081,0.647435,9.707113,-1.521821,9.263715,1,0,,38.990756,-76.937809,11.130000,,,
2026-09-11T16:21:26.879,0.534594,0.458709,0.269609,4.247305,0.000000,-159.576217,54.900075,0.263760,0.189888,0.399765,0.212766,0.165892,0.117693,-0.106454,0.048937,0.401248,0.460422,0.775804,10.138899,-1.487005,9.198625,1,0,,38.990756,-76.937809,11.130000,,,
2026-09-11T16:21:26.912,0.568018,0.488279,0.285605,4.521100,0.000000,-159.664107,54.930312,0.280551,0.193382,0.407119,0.226251,0.173374,0.125927,-0.099920,0.049886,0.408603,0.613210,1.264764,9.106553,-1.442974,9.165781,1,0,,38.990756,-76.937809,11.130000,,,
2026-09-11T16:21:26.945,0.601425,0.508120,0.301151,4.704812,0.000000,-159.936019,55.023860,0.291272,0.197168,0.415090,0.239985,0.181160,0.134481,-0.061081,0.012770,0.416574,0.761683,1.098933,8.906890,-1.388678,9.122003,1,0,,38.990756,-76.937809,11.130000,,,
2026-09-11T16:21:26.979,0.634829,0.469302,0.317949,4.345393,0.000000,-159.843322,54.991968,0.269235,0.211492,0.445247,0.254354,0.188566,0.143386,-0.050382,0.018450,0.446731,0.498472,0.825720,9.924526,-1.352341,9.060870,1,0,,38.990756,-76.937809,11.130000,,,
2026-09-11T16:21:27.012,0.668234,0.508700,0.335244,4.710181,0.000000,-159.977218,55.038034,0.291501,0.204159,0.429808,0.268970,0.195817,0.152518,-0.008084,-0.002535,0.431292,0.162888,1.255349,9.936588,-1.340552,9.028240,1,0,,38.990756,-76.937809,11.130000,,,
2026-09-11T16:21:27.047,0.701653,0.548079,0.353319,5.074803,0.000000,-159.638701,54.921572,0.314979,0.219458,0.462017,0.283872,0.203631,0.162095,0.029035,-0.004761,0.463501,0.356570,1.053038,10.058289,-1.317745,8.981363,1,0,,38.990756,-76.937809,11.130000,,,
2026-09-11T16:21:27.080,0.735068,0.518986,0.370591,4.805427,0.000000,-159.817229,54.982992,0.297804,0.219039,0.461135,0.299295,0.211332,0.172053,0.088744,-0.005376,0.462619,0.566432,0.130232,9.590904,-1.284211,8.875043,1,1,0.704906,38.990754,-76.937806,11.191000,0.281605,-0.241478,7.560369
2026-09-11T16:21:27.112,0.768475,0.538764,0.389406,4.988553,0.000000,-159.817229,54.982992,0.309153,0.225041,0.473771,0.314912,0.218752,0.182189,0.124948,0.004055,0.475255,0.527009,-0.083455,10.219020,-1.253470,8.755355,1,0,,38.990754,-76.937806,11.191000,,,
2026-09-11T16:21:27.145,0.801883,0.558403,0.408227,5.170398,0.000000,-159.795943,54.975669,0.320481,0.220944,0.465145,0.330595,0.226363,0.192592,0.103934,0.001457,0.466628,0.021378,0.151709,10.442317,-1.252164,8.652265,1,0,,38.990754,-76.937806,11.191000,,,
2026-09-11T16:21:27.181,0.835289,0.548837,0.426103,5.081822,0.000000,-159.641448,54.922516,0.315408,0.218116,0.459191,0.346034,0.233949,0.203034,0.081194,0.009789,0.460675,-0.070216,1.022049,9.343776,-1.253590,8.607633,1,0,,38.990754,-76.937806,11.191000,,,
2026-09-11T16:21:27.215,0.868708,0.529597,0.443534,4.903676,0.000000,-159.927779,55.021025,0.303605,0.211223,0.444681,0.361138,0.241169,0.213344,0.038226,0.022531,0.446164,-0.198290,0.276155,9.625914,-1.263295,8.515260,1,0,,38.990754,-76.937806,11.191000,,,
2026-09-11T16:21:27.247,0.902247,0.500504,0.460498,4.634300,0.000000,-159.929152,55.021497,0.286924,0.207310,0.436441,0.375914,0.247880,0.223457,0.028765,0.018738,0.437925,0.191132,0.578200,8.945332,-1.247265,8.444104,1,0,,38.990754,-76.937806,11.191000,,,
2026-09-11T16:21:27.279,0.935651,0.481079,0.476335,4.454433,0.000000,-159.750625,54.960077,0.276210,0.199196,0.419361,0.390207,0.254067,0.233269,0.000091,0.015509,0.420844,-0.225357,0.186326,9.472734,-1.255654,8.349001,1,0,,38.990754,-76.937806,11.191000,,,
2026-09-11T16:21:27.313,0.969056,0.471259,0.492125,4.363511,0.000000,-159.685393,54.937635,0.270723,0.196465,0.413611,0.404120,0.259935,0.242896,-0.016597,0.014377,0.415094,-0.217904,1.080987,10.564606,-1.262972,8.313771,1,0,,38.990754,-76.937806,11.191000,,,
2026-09-11T16:21:27.348,1.002461,0.461616,0.507426,4.274219,0.000000,-159.795257,54.975432,0.264934,0.183228,0.385743,0.417471,0.265607,0.252282,-0.011837,0.011105,0.387227,-0.024713,0.478270,9.871276,-1.257128,8.240136,1,0,,38.990754,-76.937806,11.191000,,,
2026-09-11T16:21:27.381,1.035867,0.432386,0.521924,4.003577,0.000000,-159.817229,54.982992,0.248112,0.178048,0.374838,0.430175,0.270937,0.261305,-0.010313,0.007976,0.376322,-0.274782,0.909175,9.926585,-1.266908,8.196120,1,0,,38.990754,-76.937806,11.191000,,,
2026-09-11T16:21:27.414,1.069287,0.422466,0.536302,3.911721,0.000000,-159.640761,54.922280,0.242786,0.177111,0.372865,0.442669,0.275863,0.270151,-0.001319,0.023259,0.374349,-0.000588,0.171616,9.809004,-1.259182,8.104474,1,0,,38.990754,-76.937806,11.191000,,,
2026-09-11T16:21:27.446,1.102688,0.393535,0.549261,3.643846,0.000000,-159.773284,54.967873,0.225903,0.163019,0.343197,0.454628,0.280454,0.278663,0.013315,0.029127,0.344681,0.180148,-0.163673,9.464790,-1.243627,7.992844,1,0,,38.990754,-76.937806,11.191000,,,
2026-09-11T16:21:27.480,1.136102,0.403260,0.562921,3.733888,0.000000,-159.773284,54.967873,0.231486,0.159881,0.336591,0.465985,0.284904,0.286891,0.024587,0.020830,0.338074,0.090712,0.408937,9.659845,-1.239826,7.919855,1,0,,38.990754,-76.937806,11.191000,,,
2026-09-11T16:21:27.514,1.169510,0.383919,0.575721,3.554809,0.000000,-159.773284,54.967873,0.220383,0.155961,0.328338,0.477092,0.289232,0.295019,0.039901,0.015514,0.329822,0.202017,0.316755,9.723294,-1.233749,7.842040,1,0,,38.990754,-76.937806,11.191000,,,
2026-09-11T16:21:27.548,1.202927,0.403559,0.589376,3.736653,0.000000,-158.298369,54.460448,0.234574,0.151925,0.319843,0.487922,0.293579,0.303104,0.038304,0.013982,0.321326,0.312832,0.027557,9.684557,-1.227252,7.746002,1,0,,38.990754,-76.937806,11.191000,,,
2026-09-11T16:21:27.580,1.236349,0.364904,0.601116,3.378736,0.000000,-154.400283,53.119363,0.218997,0.139657,0.294014,0.498180,0.297951,0.310983,0.018685,0.010267,0.295498,0.348724,0.309694,9.805768,-1.223851,7.670174,1,0,,38.990754,-76.937806,11.191000,,,
2026-09-11T16:21:27.614,1.269761,0.346024,0.613210,3.203922,0.000000,-147.057296,50.593106,0.219664,0.129648,0.272943,0.507652,0.302204,0.318458,-0.017958,0.014438,0.274426,0.330680,0.375399,9.444981,-1.224652,7.599805,1,0,,38.990754,-76.937806,11.191000,,,
2026-09-11T16:21:27.647,1.303175,0.346024,0.624757,3.203922,0.000000,-139.144393,47.870777,0.232114,0.122340,0.257558,0.516515,0.306720,0.325827,-0.020370,0.009591,0.259041,0.674403,0.305183,9.710251,-1.207560,7.525649,1,0,,38.990754,-76.937806,11.191000,,,
2026-09-11T16:21:27.681,1.336580,0.327265,0.636548,3.030231,0.000000,-130.959578,45.054901,0.231189,0.107814,0.226977,0.524608,0.311523,0.333011,-0.058221,0.011292,0.228461,0.710786,-0.584476,9.839699,-1.191675,7.394731,1,0,,38.990754,-76.937806,11.191000,,,
2026-09-11T16:21:27.715,1.369999,0.356439,0.648465,3.300357,0.000000,-115.806685,39.841750,0.273680,0.100756,0.212119,0.531945,0.317051,0.340276,-0.068779,-0.003787,0.213602,0.957129,-1.151595,9.980816,-1.161792,7.227857,1,0,,38.990754,-76.937806,11.191000,,,
2026-09-11T16:21:27.748,1.403418,0.356802,0.660821,3.303726,0.000000,-101.486693,34.915147,0.292578,0.080848,0.170205,0.538333,0.323643,0.347713,-0.126121,-0.012087,0.171689,1.317033,0.130036,9.944434,-1.111959,7.147091,1,0,,38.990754,-76.937806,11.191000,,,
2026-09-11T16:21:27.780,1.436840,0.366521,0.673023,3.393714,0.000000,-83.016616,28.560762,0.321919,0.071892,0.151351,0.543707,0.331130,0.355190,-0.110929,-0.022058,0.152835,1.578184,0.626057,9.354269,-1.045610,7.099676,1,0,,38.990754,-76.937806,11.191000,,,
2026-09-11T16:21:27.814,1.470242,0.415443,0.687401,3.846694,0.000000,-69.330398,23.852201,0.379961,0.056558,0.119070,0.548223,0.340034,0.363113,-0.044968,-0.009753,0.120554,0.376771,0.500139,10.108107,-1.057203,7.044831,1,0,,38.990754,-76.937806,11.191000,,,
2026-09-11T16:21:27.848,1.503648,0.415601,0.700936,3.848161,0.000000,-54.599105,18.784096,0.393466,0.039760,0.083706,0.551610,0.350207,0.371236,-0.006213,-0.005990,0.085189,1.137866,0.074236,9.400851,-1.021661,6.963617,1,0,,38.990754,-76.937806,11.191000,,,
2026-09-11T16:21:27.882,1.537066,0.415601,0.714903,3.848161,0.000000,-39.849959,13.709848,0.403760,0.033022,0.069519,0.554170,0.360905,0.379267,0.025757,-0.008423,0.071003,0.765899,0.768841,9.638172,-1.007217,6.928923,1,0,,38.990754,-76.937806,11.191000,,,
2026-09-11T16:21:27.915,1.570557,0.445060,0.729937,4.120928,0.000000,-28.201018,9.702185,0.438695,0.014935,0.031441,0.555861,0.372471,0.387384,-0.003296,-0.007528,0.032925,0.676169,-2.265336,9.108515,-0.992396,6.697136,1,0,,38.990754,-76.937806,11.191000,,,
2026-09-11T16:21:27.948,1.603963,0.435336,0.744326,4.030885,0.000000,-14.108306,4.853775,0.433774,0.006824,0.014366,0.556626,0.384656,0.395387,-0.013356,-0.012284,0.015849,0.720789,-0.888188,9.511568,-0.971089,6.558849,1,0,,38.990754,-76.937806,11.191000,,,
2026-09-11T16:21:27.981,1.637368,0.455125,0.760048,4.214122,0.000000,-4.899703,1.685678,0.454928,-0.005035,-0.010600,0.556689,0.397242,0.403255,0.003206,-0.005570,-0.009116,0.444045,-0.649102,9.988367,-0.961513,6.438436,1,0,,38.990754,-76.937806,11.191000,,,
2026-09-11T16:21:28.016,1.670771,0.474840,0.776431,4.396663,0.000000,-0.450240,0.154899,0.474838,-0.018218,-0.038353,0.555872,0.410634,0.411125,0.059997,-0.001698,-0.036869,0.111109,0.645964,10.035047,-0.970471,6.404619,1,0,,38.990754,-76.937806,11.191000,,,
2026-09-11T16:21:28.049,1.704294,0.455634,0.791151,4.218830,0.000000,5.448045,-1.874327,0.455390,-0.016163,-0.034027,0.554658,0.424188,0.418855,0.058721,0.017396,-0.032544,-0.516418,0.193191,10.617856,-1.017561,6.341285,1,1,1.701393,38.990752,-76.937803,11.156000,0.465836,-0.420502,6.306918
2026-09-11T16:21:28.083,1.737717,0.465619,0.807033,4.311291,0.000000,7.628144,-2.624362,0.465131,-0.018188,-0.038290,0.553450,0.437572,0.426460,0.095233,-0.013501,-0.036806,-1.461779,-1.430986,8.952491,-1.123663,6.173178,1,0,,38.990752,-76.937803,11.156000,,,
2026-09-11T16:21:28.116,1.771130,0.475540,0.822823,4.403147,0.000000,8.229646,-2.831300,0.474959,-0.022334,-0.047020,0.552025,0.451294,0.434130,0.080697,-0.023349,-0.045536,0.371672,3.076836,9.450571,-1.115251,6.300912,1,0,,38.990752,-76.937803,11.156000,,,
2026-09-11T16:21:28.148,1.804540,0.427241,0.836330,3.955938,0.000000,7.700242,-2.649166,0.426785,-0.008664,-0.018241,0.550934,0.464396,0.441582,0.027287,0.003788,-0.016757,-0.358629,-0.678130,10.010334,-1.153675,6.181701,1,0,,38.990752,-76.937803,11.156000,,,
2026-09-11T16:21:28.182,1.837944,0.389118,0.849768,3.602942,0.000000,7.015657,-2.413643,0.388773,-0.001908,-0.004018,0.550563,0.476095,0.448559,-0.011216,-0.008332,-0.002534,-0.593989,2.796562,9.800864,-1.206746,6.289699,1,0,,38.990752,-76.937803,11.156000,,,
2026-09-11T16:21:28.217,1.871379,0.408959,0.862938,3.786654,0.000000,2.509202,-0.863258,0.408912,0.012349,0.025998,0.550930,0.487367,0.455687,-0.035242,-0.013924,0.027482,0.004217,1.448736,9.639741,-1.222570,6.307958,1,0,,38.990752,-76.937803,11.156000,,,
2026-09-11T16:21:28.250,1.904798,0.351098,0.874576,3.250905,0.000000,-5.481292,1.885765,0.350908,0.018737,0.039446,0.552024,0.497910,0.462781,0.007961,-0.009908,0.040930,0.959679,-0.360002,9.123911,-1.176691,6.207952,1,0,,38.990752,-76.937803,11.156000,,,
2026-09-11T16:21:28.282,1.938209,0.409841,0.887963,3.794826,0.000000,-7.712890,2.653517,0.409402,0.022700,0.047789,0.553481,0.508355,0.470039,0.016065,-0.017766,0.049273,0.444437,0.867594,9.714468,-1.164444,6.188669,1,0,,38.990752,-76.937803,11.156000,,,
2026-09-11T16:21:28.315,1.971614,0.400316,0.901065,3.706632,0.000000,-11.956359,4.113426,0.399285,0.023255,0.048957,0.555097,0.519436,0.477801,-0.029810,-0.009859,0.050441,1.404116,1.619176,9.660139,-1.089601,6.218544,1,0,,38.990752,-76.937803,11.156000,,,
2026-09-11T16:21:28.349,2.005017,0.459234,0.916553,4.252164,0.000000,-15.187713,5.225130,0.457325,0.027276,0.057424,0.556874,0.531142,0.486070,0.008866,-0.010215,0.058908,1.583382,1.464133,9.894616,-1.004615,6.237556,1,0,,38.990752,-76.937803,11.156000,,,
2026-09-11T16:21:28.384,2.038436,0.508253,0.933130,4.706043,0.000000,-18.215133,6.266674,0.505216,0.038320,0.080673,0.559181,0.544205,0.495516,0.016272,-0.011705,0.082156,1.303108,-0.547211,9.693481,-0.944859,6.124399,1,0,,38.990752,-76.937803,11.156000,,,
2026-09-11T16:21:28.416,2.071843,0.498534,0.949787,4.616055,0.000000,-20.358840,7.004188,0.494813,0.034033,0.071648,0.561725,0.557711,0.505419,0.030873,0.006651,0.073132,0.730497,0.282039,10.344741,-0.933317,6.066889,1,0,,38.990752,-76.937803,11.156000,,,
2026-09-11T16:21:28.449,2.105250,0.537988,0.968232,4.981374,0.000000,-22.344619,7.687369,0.533153,0.039999,0.084207,0.564329,0.571571,0.515630,0.016072,0.012860,0.085691,0.865241,0.768743,10.103399,-0.917371,6.041091,1,0,,38.990752,-76.937803,11.156000,,,
2026-09-11T16:21:28.484,2.138663,0.548235,0.986877,5.076252,0.000000,-24.622908,8.471184,0.542254,0.049937,0.105131,0.567492,0.585930,0.526532,0.021992,-0.000823,0.106614,0.809539,0.856709,9.937863,-0.909425,6.020514,1,0,,38.990752,-76.937803,11.156000,,,
2026-09-11T16:21:28.516,2.172077,0.587614,1.006313,5.440874,0.000000,-28.902083,9.943377,0.578788,0.045550,0.095895,0.570851,0.600846,0.537971,-0.033509,-0.007052,0.097378,0.189464,0.249481,9.951985,-0.942818,5.960730,1,0,,38.990752,-76.937803,11.156000,,,
2026-09-11T16:21:28.549,2.205487,0.548797,1.024160,5.081456,0.000000,-30.959273,10.651126,0.539342,0.053251,0.112108,0.574325,0.615652,0.549477,-0.052957,-0.000245,0.113591,0.735106,-0.190739,8.739981,-0.937351,5.872646,1,0,,38.990752,-76.937803,11.156000,,,
2026-09-11T16:21:28.582,2.238899,0.568575,1.044103,5.264583,0.000000,-31.036178,10.677584,0.558730,0.050217,0.105721,0.577964,0.630093,0.560921,-0.094830,0.000319,0.107204,0.455813,0.344508,10.049855,-0.945067,5.820473,1,0,,38.990752,-76.937803,11.156000,,,
2026-09-11T16:21:28.617,2.272302,0.578585,1.064172,5.357264,0.000000,-31.075316,10.691049,0.568541,0.056263,0.118449,0.581708,0.644868,0.572724,-0.106531,0.013327,0.119932,1.022147,-0.343331,9.043497,-0.907419,5.723607,1,0,,38.990752,-76.937803,11.156000,,,
2026-09-11T16:21:28.651,2.305723,0.627422,1.085392,5.809459,0.000000,-31.378814,10.795463,0.616317,0.058846,0.123886,0.585758,0.660328,0.585242,-0.070137,0.014649,0.125370,1.093343,-0.261936,9.354367,-0.863176,5.632496,1,0,,38.990752,-76.937803,11.156000,,,
2026-09-11T16:21:28.683,2.339146,0.656704,1.107403,6.080594,0.000000,-31.569701,10.861136,0.644940,0.066879,0.140798,0.590181,0.676699,0.598682,-0.031167,0.014592,0.142281,0.387068,0.191524,9.080664,-0.863412,5.570967,1,0,,38.990752,-76.937803,11.156000,,,
2026-09-11T16:21:28.716,2.372546,0.676027,1.129505,6.259510,0.000000,-32.327758,11.121935,0.663331,0.072850,0.153369,0.595094,0.693518,0.612822,-0.012539,0.004204,0.154852,0.807676,-0.021575,9.189616,-0.831658,5.495603,1,0,,38.990752,-76.937803,11.156000,,,
2026-09-11T16:21:28.749,2.405950,0.685771,1.152177,6.349736,0.000000,-32.759658,11.270524,0.672547,0.069066,0.145403,0.600084,0.710629,0.627335,-0.051463,-0.008863,0.146886,0.701960,1.619961,9.528337,-0.804882,5.528070,1,0,,38.990752,-76.937803,11.156000,,,
2026-09-11T16:21:28.784,2.439362,0.695393,1.175282,6.438827,0.000000,-33.471709,11.515496,0.681396,0.083336,0.175445,0.605444,0.727818,0.642256,-0.050090,-0.003610,0.176929,-0.242322,1.512872,9.753596,-0.844202,5.551806,1,0,,38.990752,-76.937803,11.156000,,,
2026-09-11T16:21:28.817,2.472778,0.685851,1.198421,6.350469,0.000000,-34.156295,11.751019,0.671477,0.081394,0.171355,0.611238,0.744794,0.657432,-0.053351,-0.002715,0.172838,0.664695,-1.039113,9.330341,-0.829104,5.409571,1,0,,38.990752,-76.937803,11.156000,,,
2026-09-11T16:21:28.851,2.506190,0.666710,1.221105,6.173238,0.000000,-34.242812,11.780784,0.652666,0.083795,0.176410,0.617048,0.761283,0.672434,-0.035900,0.006001,0.177893,-0.129644,-0.395502,9.465183,-0.866618,5.310805,1,0,,38.990752,-76.937803,11.156000,,,
2026-09-11T16:21:28.884,2.539598,0.657141,1.243224,6.084643,0.000000,-34.133635,11.743223,0.643387,0.076016,0.160033,0.622668,0.777354,0.687183,-0.028071,0.074778,0.161517,-0.009905,0.833859,10.037401,-0.896972,5.293868,1,0,,38.990752,-76.937803,11.156000,,,
2026-09-11T16:21:28.917,2.573006,0.666945,1.265611,6.175419,0.000000,-33.766280,11.616839,0.653284,0.070043,0.147459,0.627804,0.793488,0.701839,-0.043450,-0.081971,0.148942,-1.455111,-0.841999,10.918626,-1.020797,5.168618,1,0,,38.990752,-76.937803,11.156000,,,
2026-09-11T16:21:28.952,2.606422,0.657816,1.286876,6.090886,0.000000,-33.243056,11.436831,0.644754,0.075287,0.158500,0.632916,0.809576,0.716583,-0.060583,0.009038,0.159983,0.628410,-1.870226,9.257380,-1.010041,4.977540,1,0,,38.990752,-76.937803,11.156000,,,
2026-09-11T16:21:28.984,2.639840,0.638768,1.307463,5.914521,0.000000,-32.770644,11.274304,0.626442,0.055410,0.116654,0.637514,0.825379,0.730944,0.004916,0.028616,0.118137,1.653990,-2.171585,9.196677,-0.935702,4.770935,1,0,,38.990752,-76.937803,11.156000,,,
2026-09-11T16:21:29.017,2.673252,0.668130,1.329515,6.186390,0.000000,-31.509276,10.840347,0.656207,0.055401,0.116634,0.641411,0.841468,0.745218,-0.004390,0.031653,0.118117,1.486394,-0.035304,9.948062,-0.878835,4.705247,1,0,,38.990752,-76.937803,11.156000,,,
2026-09-11T16:21:29.050,2.706658,0.707266,1.352722,6.548760,0.000000,-28.865004,9.930621,0.696669,0.049586,0.104391,0.645103,0.858496,0.760176,-0.007754,0.026888,0.105875,1.533760,-1.249465,10.426627,-0.827835,4.561713,1,0,,38.990752,-76.937803,11.156000,,,
2026-09-11T16:21:29.085,2.740062,0.717187,1.376516,6.640616,0.000000,-25.305434,8.705998,0.708923,0.040826,0.085949,0.648282,0.876322,0.775527,-0.010617,0.032972,0.087433,1.036955,0.100028,10.027986,-0.820243,4.508177,1,1,2.709494,38.990749,-76.937799,11.230000,0.827673,-0.790040,6.307546
2026-09-11T16:21:29.119,2.773482,0.746519,1.401416,6.912210,0.000000,-17.954207,6.176906,0.742185,0.036968,0.077827,0.651019,0.894844,0.791231,-0.047712,0.009760,0.079311,0.575552,0.088848,9.290820,-0.852633,4.454691,1,0,,38.990749,-76.937799,11.230000,,,
2026-09-11T16:21:29.151,2.806901,0.785797,1.427375,7.275899,0.000000,-16.254073,5.591998,0.782057,0.030447,0.064099,0.653390,0.914402,0.807585,-0.131416,-0.025785,0.065582,1.349493,1.183957,9.699954,-0.840139,4.473417,1,0,,38.990749,-76.937799,11.230000,,,
2026-09-11T16:21:29.184,2.840369,0.824670,1.454803,7.635833,0.000000,-7.895537,2.716355,0.823743,0.018698,0.039365,0.655121,0.935224,0.824591,-0.130713,-0.022423,0.040848,1.445794,-0.225161,10.202937,-0.827723,4.401470,1,0,,38.990749,-76.937799,11.230000,,,
2026-09-11T16:21:29.217,2.873769,0.853947,1.483775,7.906916,0.000000,-6.589538,2.267043,0.853279,0.016642,0.035035,0.656364,0.957061,0.842136,-0.121921,0.015575,0.036519,1.580342,-1.910630,10.001999,-0.814225,4.221270,1,0,,38.990749,-76.937799,11.230000,,,
2026-09-11T16:21:29.251,2.907190,0.892980,1.513716,8.268334,0.000000,-5.475112,1.883639,0.892498,0.015894,0.033461,0.657508,0.979830,0.860383,-0.083123,0.008093,0.034945,1.060393,0.346959,8.589449,-0.836347,4.189551,1,0,,38.990749,-76.937799,11.230000,,,
2026-09-11T16:21:29.286,2.940604,0.961478,1.546391,8.902571,0.000000,-5.170241,1.778753,0.961014,0.009003,0.018953,0.658384,1.004078,0.879648,-0.046079,-0.031226,0.020436,2.055768,-0.071490,7.925440,-0.791245,4.131789,1,0,,38.990749,-76.937799,11.230000,,,
2026-09-11T16:21:29.318,2.974028,1.020124,1.580479,9.445594,0.000000,-3.858062,1.327315,1.019850,0.004221,0.008886,0.658849,1.030122,0.900083,-0.023853,-0.021644,0.010370,1.729010,-0.497589,9.790665,-0.765670,4.047589,1,0,,38.990749,-76.937799,11.230000,,,
2026-09-11T16:21:29.351,3.007432,1.098457,1.616971,10.170900,0.000000,-1.455489,0.500742,1.098415,0.002202,0.004635,0.659075,1.058029,0.921831,-0.018638,-0.042202,0.006119,2.163935,-0.334113,8.450194,-0.708132,3.975242,1,0,,38.990749,-76.937799,11.230000,,,
2026-09-11T16:21:29.385,3.040838,1.147607,1.654499,10.625988,0.000000,2.102708,-0.723409,1.147515,-0.008479,-0.017850,0.658855,1.087752,0.944718,-0.017825,-0.040437,-0.016366,1.334587,-1.151693,8.977988,-0.698317,3.852328,1,0,,38.990749,-76.937799,11.230000,,,
2026-09-11T16:21:29.419,3.074264,1.186565,1.695172,10.986709,0.000000,5.627946,-1.936220,1.185887,-0.021354,-0.044955,0.657805,1.118906,0.968182,-0.042676,0.011738,-0.043472,2.022524,-1.235540,10.007686,-0.635105,3.727409,1,0,,38.990749,-76.937799,11.230000,,,
2026-09-11T16:21:29.452,3.107683,1.245251,1.736979,11.530102,0.000000,6.264466,-2.155206,1.244370,-0.023618,-0.049723,0.656223,1.151520,0.992388,0.001190,-0.013772,-0.048239,0.972133,-1.510911,9.944237,-0.632291,3.586614,1,0,,38.990749,-76.937799,11.230000,,,
2026-09-11T16:21:29.485,3.141088,1.274777,1.779104,11.803492,0.000000,5.941743,-2.044178,1.273966,-0.009555,-0.020115,0.655056,1.185199,1.017593,0.144894,-0.040567,-0.018631,-0.274488,0.033539,9.309943,-0.705055,3.545239,1,0,,38.990749,-76.937799,11.230000,,,
2026-09-11T16:21:29.520,3.174510,1.284777,1.822415,11.896081,0.000000,3.618135,-1.244771,1.284474,-0.022490,-0.047347,0.653929,1.219444,1.043194,0.079798,-0.007914,-0.045863,-0.037854,4.009351,10.693073,-0.753448,3.764514,1,0,,38.990749,-76.937799,11.230000,,,
2026-09-11T16:21:29.552,3.207929,1.304323,1.865753,12.077066,0.000000,1.170930,-0.402843,1.304291,-0.005944,-0.012513,0.652929,1.254079,1.069114,0.201207,-0.046236,-0.011029,1.027639,4.405245,10.634724,-0.724052,4.004212,1,0,,38.990749,-76.937799,11.230000,,,
2026-09-11T16:21:29.585,3.241337,1.304404,1.909229,12.077816,0.000000,0.121049,-0.041645,1.304404,-0.003395,-0.007147,0.652600,1.288790,1.095457,0.107253,0.011306,-0.005664,0.157201,1.697825,10.815656,-0.747910,4.065104,1,0,,38.990749,-76.937799,11.230000,,,
2026-09-11T16:21:29.619,3.274745,1.285477,1.952038,11.902562,0.000000,0.242585,-0.083458,1.285475,-0.001102,-0.002320,0.652442,1.323210,1.121665,-0.025357,0.009696,-0.000837,-0.264878,1.033915,8.084897,-0.795392,4.081838,1,0,,38.990749,-76.937799,11.230000,,,
2026-09-11T16:21:29.653,3.308154,1.276314,1.994773,11.817718,0.000000,0.890779,-0.306461,1.276295,-0.003790,-0.007979,0.652270,1.357265,1.147578,-0.070507,0.012745,-0.006495,-0.129056,0.276842,9.637976,-0.827197,4.049730,1,0,,38.990749,-76.937799,11.230000,,,
2026-09-11T16:21:29.687,3.341576,1.228260,2.036329,11.372777,0.000000,0.509004,-0.175116,1.228254,0.000325,0.000684,0.652148,1.390563,1.172935,-0.106435,0.037718,0.002168,-0.860730,1.197392,10.151060,-0.898511,4.077003,1,0,,38.990749,-76.937799,11.230000,,,
2026-09-11T16:21:29.719,3.375028,1.219000,2.076569,11.287036,0.000000,-2.260238,0.777605,1.218888,0.009647,0.020308,0.652499,1.422989,1.197914,-0.070386,-0.002427,0.021792,0.031675,1.472370,9.408500,-0.908133,4.120313,1,0,,38.990749,-76.937799,11.230000,,,
2026-09-11T16:21:29.752,3.408440,1.219160,2.116980,11.288519,0.000000,-6.787291,2.335077,1.218148,0.026429,0.055640,0.653768,1.454955,1.223133,0.034801,-0.086368,0.057123,2.126180,0.478074,8.357423,-0.783303,4.095774,1,0,,38.990749,-76.937799,11.230000,,,
2026-09-11T16:21:29.786,3.441851,1.199764,2.157664,11.108929,0.000000,-7.905837,2.719898,1.198413,0.054153,0.114007,0.656602,1.486146,1.248797,0.045601,0.074791,0.115491,-0.596146,3.097038,8.937879,-0.837086,4.237009,1,0,,38.990749,-76.937799,11.230000,,,
2026-09-11T16:21:29.819,3.475256,1.219548,2.198109,11.292110,0.000000,-11.260100,3.873888,1.216761,0.053959,0.113597,0.660404,1.516945,1.274911,0.024899,-0.014696,0.115081,3.068599,-1.635749,9.014175,-0.656272,4.069452,1,0,,38.990749,-76.937799,11.230000,,,
2026-09-11T16:21:29.854,3.508675,1.287945,2.241482,11.925414,0.000000,-14.203750,4.886611,1.283263,0.063310,0.133285,0.664529,1.548676,1.302151,0.077110,-0.013705,0.134769,1.398134,0.502983,10.076235,-0.589183,4.040388,1,0,,38.990749,-76.937799,11.230000,,,
2026-09-11T16:21:29.886,3.542094,1.298105,2.284707,12.019487,0.000000,-16.789657,5.776258,1.291513,0.061041,0.128506,0.668904,1.581202,1.330390,0.014825,-0.025903,0.129990,0.553585,0.909273,9.352798,-0.580561,4.038344,1,0,,38.990749,-76.937799,11.230000,,,
2026-09-11T16:21:29.919,3.575517,1.279033,2.327613,11.842901,0.000000,-17.305327,5.953668,1.272134,0.079265,0.166874,0.673840,1.613287,1.358875,0.048060,0.002481,0.168357,-0.060899,0.718435,8.542671,-0.618036,4.020930,1,0,,38.990749,-76.937799,11.230000,,,
2026-09-11T16:21:29.952,3.608924,1.279676,2.370867,11.848853,0.000000,-17.940474,6.172182,1.272258,0.077265,0.162663,0.679344,1.644787,1.387525,-0.028562,-0.009584,0.164147,-0.520047,-0.478074,8.939154,-0.689844,3.926440,1,0,,38.990749,-76.937799,11.230000,,,
2026-09-11T16:21:29.986,3.642327,1.319033,2.414650,12.213272,0.000000,-18.118316,6.233365,1.311235,0.076346,0.160729,0.684745,1.676665,1.416718,-0.049226,-0.012206,0.162213,1.218574,-0.218100,9.966302,-0.646111,3.849633,1,0,,38.990749,-76.937799,11.230000,,,
2026-09-11T16:21:30.019,3.675733,1.338910,2.459225,12.397317,0.000000,-18.870192,6.492039,1.330325,0.088279,0.185851,0.690534,1.709013,1.446847,-0.027555,0.001364,0.187334,0.585947,1.273295,11.763077,-0.644711,3.868042,1,0,,38.990749,-76.937799,11.230000,,,
2026-09-11T16:21:30.055,3.709150,1.368159,2.505321,12.668143,0.000000,-19.393416,6.672047,1.358894,0.086442,0.181983,0.696680,1.741696,1.477820,-0.090424,-0.018372,0.183467,1.077261,-0.598010,10.673852,-0.615610,3.764839,1,1,3.701351,38.990742,-76.937791,11.173000,1.537662,-1.535046,7.559473
2026-09-11T16:21:30.087,3.742592,1.407042,2.552431,13.028171,0.000000,-19.434615,6.686221,1.397473,0.094031,0.197960,0.703033,1.775006,1.509816,-0.065239,0.040662,0.199444,1.643693,0.711276,9.462829,-0.548743,3.745809,1,0,,38.990742,-76.937791,11.173000,,,
2026-09-11T16:21:30.120,3.776022,1.407116,2.599336,13.028851,0.000000,-19.434615,6.686221,1.397546,0.091659,0.192966,0.709568,1.808534,1.542499,-0.044820,-0.026115,0.194450,1.279768,0.853277,10.597262,-0.506028,3.736665,1,0,,38.990742,-76.937791,11.173000,,,
2026-09-11T16:21:30.153,3.809428,1.426719,2.646793,13.210364,0.000000,-19.434615,6.686221,1.417016,0.098390,0.207137,0.716250,1.842019,1.575647,-0.087920,-0.009440,0.208621,0.548388,-0.691761,9.591296,-0.516931,3.625894,1,0,,38.990742,-76.937791,11.173000,,,
2026-09-11T16:21:30.187,3.842833,1.446449,2.695430,13.393049,0.000000,-19.215575,6.610863,1.436832,0.098453,0.207269,0.723172,1.875696,1.609541,-0.060600,0.022044,0.208752,0.639296,0.564863,11.775041,-0.529407,3.597561,1,0,,38.990742,-76.937791,11.173000,,,
2026-09-11T16:21:30.220,3.876239,1.446914,2.743246,13.397351,0.000000,-18.500777,6.364946,1.437995,0.092586,0.194918,0.729890,1.909469,1.643823,-0.049602,0.193223,0.196401,-0.552801,-2.217774,5.212921,-0.623963,3.390279,1,0,,38.990742,-76.937791,11.173000,,,
2026-09-11T16:21:30.255,3.909654,1.398987,2.791347,12.953582,0.000000,-17.459823,6.006820,1.391306,0.103383,0.217649,0.736783,1.942399,1.677895,-0.071535,0.202877,0.219133,-0.530932,-1.013811,2.649168,-0.716878,3.261874,1,0,,38.990742,-76.937791,11.173000,,,
2026-09-11T16:21:30.287,3.943075,1.438170,2.839340,13.316391,0.000000,-15.352507,5.281826,1.432064,0.070046,0.147466,0.742884,1.975290,1.711844,-0.100366,-0.093778,0.148950,1.008810,-2.160503,14.450785,-0.704772,3.066492,1,0,,38.990742,-76.937791,11.173000,,,
2026-09-11T16:21:30.320,3.976486,1.457813,2.887965,13.498272,0.000000,-13.168975,4.530611,1.453258,0.052912,0.111394,0.747208,2.009328,1.746035,-0.029000,0.065221,0.112878,1.409118,0.528382,9.209327,-0.661729,3.050810,1,0,,38.990742,-76.937791,11.173000,,,
2026-09-11T16:21:30.354,4.009893,1.497379,2.937354,13.864617,0.000000,-8.234054,2.832817,1.495549,0.054824,0.115419,0.750997,2.044171,1.780896,-0.012511,0.015536,0.116903,1.933871,-0.954187,11.392974,-0.581813,2.938544,1,0,,38.990742,-76.937791,11.173000,,,
2026-09-11T16:21:30.388,4.043322,1.526885,2.988998,14.137828,0.000000,-8.032866,2.763601,1.525110,0.052510,0.110547,0.754774,2.079786,1.816727,0.080588,-0.010817,0.112031,1.615351,-0.110717,9.931685,-0.520844,2.882404,1,0,,38.990742,-76.937791,11.173000,,,
2026-09-11T16:21:30.426,4.076727,1.575956,3.042317,14.592185,0.000000,-7.898284,2.717299,1.574184,0.049062,0.103288,0.758346,2.116265,1.853496,0.121733,-0.042072,0.104772,2.413319,-0.797183,11.125350,-0.403775,2.782847,1,0,,38.990742,-76.937791,11.173000,,,
2026-09-11T16:21:30.456,4.110146,1.624851,3.096605,15.044913,0.000000,-7.522689,2.588081,1.623193,0.041521,0.087413,0.761532,2.153949,1.891398,0.155455,-0.065679,0.088897,1.970842,-0.171322,9.039770,-0.307998,2.726261,1,0,,38.990742,-76.937791,11.173000,,,
2026-09-11T16:21:30.487,4.143557,1.693474,3.153177,15.680312,0.000000,-5.497085,1.891199,1.692551,0.016636,0.035023,0.763577,2.193329,1.930364,0.063615,-0.055433,0.036507,0.387068,-2.181980,9.455278,-0.311111,2.545420,1,0,,38.990742,-76.937791,11.173000,,,
2026-09-11T16:21:30.520,4.176967,1.693739,3.209492,15.682768,0.000000,0.494584,-0.170155,1.693731,-0.006019,-0.012671,0.763951,2.234062,1.969617,0.056253,-0.063060,-0.011187,0.743736,-0.201527,9.474107,-0.287322,2.500113,1,0,,38.990742,-76.937791,11.173000,,,
2026-09-11T16:21:30.554,4.210370,1.674230,3.265585,15.502132,0.000000,7.472276,-2.570737,1.672545,-0.037402,-0.078741,0.762424,2.275191,2.007955,-0.023986,0.001421,-0.077257,0.738048,-0.951441,9.281994,-0.256629,2.413899,1,0,,38.990742,-76.937791,11.173000,,,
2026-09-11T16:21:30.589,4.243787,1.684030,3.322750,15.592872,0.000000,10.737275,-3.694017,1.680531,-0.055585,-0.117021,0.759153,2.316840,2.045458,0.005457,-0.047046,-0.115537,-0.157201,-2.429401,10.366218,-0.278017,2.237086,1,0,,38.990742,-76.937791,11.173000,,,
2026-09-11T16:21:30.622,4.277212,1.664925,3.378484,15.415974,0.000000,14.666948,-5.045968,1.658473,-0.058905,-0.124011,0.755125,2.358712,2.082396,-0.000734,0.043523,-0.122528,-1.397938,-2.354577,7.060298,-0.377948,2.067646,1,0,,38.990742,-76.937791,11.173000,,,
2026-09-11T16:21:30.655,4.310632,1.665522,3.434196,15.421504,0.000000,11.794709,-4.057813,1.661347,-0.050714,-0.106766,0.751269,2.400434,2.119003,0.028789,0.005740,-0.105282,-0.305575,0.999886,9.237080,-0.405533,2.115548,1,0,,38.990742,-76.937791,11.173000,,,
2026-09-11T16:21:30.688,4.344038,1.617489,3.487692,14.976753,0.000000,3.846101,-1.323200,1.617058,-0.016409,-0.034545,0.748908,2.441261,2.155513,0.081841,-0.026453,-0.033061,-1.155910,3.319845,11.447891,-0.484850,2.305246,1,0,,38.990742,-76.937791,11.173000,,,
2026-09-11T16:21:30.723,4.377482,1.549890,3.539854,14.350830,0.000000,-4.201384,1.445430,1.549396,0.020822,0.043836,0.749064,2.479991,2.191621,0.063488,0.022956,0.045319,-1.256134,0.148865,10.060740,-0.566261,2.279485,1,0,,38.990742,-76.937791,11.173000,,,
2026-09-11T16:21:30.755,4.410905,1.501654,3.589932,13.904204,0.000000,-9.430190,3.244331,1.499247,0.056903,0.119795,0.751798,2.516367,2.227313,0.072479,-0.037086,0.121278,-0.583888,1.754312,9.610321,-0.602865,2.350800,1,0,,38.990742,-76.937791,11.173000,,,
2026-09-11T16:21:30.788,4.444315,1.492790,3.639400,13.822130,0.000000,-17.323180,5.959810,1.484722,0.076193,0.160407,0.756479,2.551176,2.263060,0.076758,-0.034549,0.161890,0.148865,1.546411,7.212889,-0.595198,2.404045,1,0,,38.990742,-76.937791,11.173000,,,
2026-09-11T16:21:30.821,4.477721,1.454790,3.687866,13.470274,0.000000,-19.980498,6.874025,1.444332,0.099262,0.208972,0.762649,2.584635,2.298873,0.122513,0.011701,0.210455,-3.704854,7.763238,13.513466,-0.838495,2.855262,1,0,,38.990742,-76.937791,11.173000,,,
2026-09-11T16:21:30.855,4.511130,1.465179,3.736041,13.566468,0.000000,-21.934005,7.546103,1.452489,0.113440,0.238820,0.770129,2.617031,2.334992,0.094040,-0.029443,0.240304,2.700359,-1.789910,10.273643,-0.665164,2.679746,1,0,,38.990742,-76.937791,11.173000,,,
2026-09-11T16:21:30.890,4.544550,1.504331,3.786148,13.928988,0.000000,-20.974761,7.216087,1.492416,0.104374,0.219735,0.777791,2.649678,2.371993,0.085750,0.020278,0.221218,1.940638,0.905644,9.699954,-0.541031,2.682037,1,0,,38.990742,-76.937791,11.173000,,,
2026-09-11T16:21:30.922,4.577972,1.533952,3.837575,14.203260,0.000000,-19.942733,6.861032,1.522967,0.101918,0.214564,0.785049,2.683021,2.409930,0.055831,-0.019809,0.216048,1.545332,-3.154015,9.276993,-0.442176,2.421324,1,0,,38.990742,-76.937791,11.173000,,,
2026-09-11T16:21:30.956,4.611395,1.553738,3.889932,14.386464,0.000000,-18.068877,6.216357,1.544602,0.081995,0.172622,0.791519,2.716985,2.448452,0.011019,-0.012802,0.174105,1.659874,-1.044702,9.159804,-0.343645,2.304089,1,0,,38.990742,-76.937791,11.173000,,,
2026-09-11T16:21:30.988,4.644800,1.592823,3.943205,14.748361,0.000000,-15.980788,5.497978,1.585495,0.077340,0.162820,0.797122,2.751722,2.487615,0.025589,-0.020637,0.164304,0.776883,0.194858,8.565128,-0.311665,2.269032,1,0,,38.990742,-76.937791,11.173000,,,
2026-09-11T16:21:31.023,4.678207,1.612082,3.996832,14.926689,0.000000,-8.701659,2.993690,1.609882,0.043427,0.091425,0.801369,2.787491,2.527283,-0.007273,0.035956,0.092909,0.981842,-2.298973,10.604421,-0.270367,2.080078,1,0,,38.990742,-76.937791,11.173000,,,
2026-09-11T16:21:31.056,4.711625,1.621888,4.051672,15.017484,0.000000,-6.739226,2.318541,1.620560,0.025998,0.054732,0.803811,2.824162,2.566907,-0.067399,0.035911,0.056216,0.531717,-1.896900,10.067605,-0.260339,1.923011,1,1,4.708786,38.990733,-76.937778,11.056000,2.618131,-2.489840,5.025988
2026-09-11T16:21:31.089,4.745047,1.622523,4.105578,15.023365,0.000000,-5.696898,1.959942,1.621574,0.022148,0.046627,0.805505,2.861148,2.606506,-0.045188,-0.031156,0.048111,-0.868967,-1.016557,8.602982,-0.340675,1.825538,1,0,,38.990733,-76.937778,11.056000,,,
2026-09-11T16:21:31.122,4.778450,1.613349,4.158704,14.938415,0.000000,-5.342589,1.838047,1.612519,0.023208,0.048858,0.807100,2.897990,2.646015,-0.076039,0.038255,0.050342,0.999788,-1.021853,17.836139,-0.296125,1.728655,1,0,,38.990733,-76.937778,11.056000,,,
2026-09-11T16:21:31.157,4.811855,1.574987,4.210570,14.583209,0.000000,-5.432540,1.868993,1.574149,0.030943,0.065143,0.809004,2.934109,2.685117,-0.021654,0.038037,0.066627,2.053905,0.518968,15.903543,-0.178739,1.731032,1,0,,38.990733,-76.937778,11.056000,,,
2026-09-11T16:21:31.190,4.845270,1.546198,4.262294,14.316651,0.000000,-5.934478,2.041678,1.545217,0.025897,0.054520,0.811003,2.969357,2.723520,-0.085874,0.033448,0.056003,1.299479,-2.098721,8.700166,-0.105569,1.565100,1,0,,38.990733,-76.937778,11.056000,,,
2026-09-11T16:21:31.224,4.878684,1.566178,4.314690,14.501650,0.000000,-5.986663,2.059632,1.565166,0.029104,0.061271,0.812937,3.004445,2.761860,-0.071195,-0.011863,0.062755,0.754131,-0.334995,12.271356,-0.063255,1.514441,1,0,,38.990733,-76.937778,11.056000,,,
2026-09-11T16:21:31.256,4.912096,1.556978,4.366614,14.416463,0.000000,-6.224242,2.141368,1.555891,0.030340,0.063873,0.815028,3.039523,2.800449,-0.015565,0.025357,0.065357,0.156612,1.294380,10.008667,-0.054655,1.569587,1,0,,38.990733,-76.937778,11.056000,,,
2026-09-11T16:21:31.290,4.945503,1.557439,4.417968,14.420734,0.000000,-6.774245,2.330589,1.556151,0.037301,0.078529,0.817407,3.074306,2.839095,-0.023673,0.051895,0.080013,-0.153670,-0.101793,10.171458,-0.061511,1.532278,1,0,,38.990733,-76.937778,11.056000,,,
2026-09-11T16:21:31.324,4.978919,1.528829,4.469925,14.155827,0.000000,-7.530242,2.590680,1.527267,0.050337,0.105972,0.820489,3.108423,2.877725,0.021736,0.012653,0.107456,0.048347,-0.732949,7.628397,-0.053903,1.451950,1,0,,38.990733,-76.937778,11.056000,,,
2026-09-11T16:21:31.357,5.012336,1.519742,4.521017,14.071685,0.000000,-8.685866,2.988257,1.517676,0.055378,0.116586,0.824208,3.141750,2.916206,0.007126,0.021345,0.118070,-0.568001,-0.497001,11.228811,-0.084949,1.386811,1,0,,38.990733,-76.937778,11.056000,,,
2026-09-11T16:21:31.389,5.045739,1.530088,4.570958,14.167482,0.000000,-9.158965,3.151020,1.527775,0.062003,0.130532,0.828335,3.174775,2.954940,0.020675,0.038482,0.132016,0.687642,0.882206,10.682580,-0.033757,1.410207,1,0,,38.990733,-76.937778,11.056000,,,
2026-09-11T16:21:31.423,5.079146,1.510825,4.621822,13.989119,0.000000,-9.151412,3.148422,1.508544,0.060682,0.127752,0.832649,3.207471,2.993764,0.030641,-0.021799,0.129236,-0.066881,1.142475,9.386239,-0.035723,1.450623,1,0,,38.990733,-76.937778,11.056000,,,
2026-09-11T16:21:31.456,5.112547,1.491295,4.671678,13.808285,0.000000,-8.816329,3.033141,1.489206,0.055313,0.116449,0.836728,3.239650,3.032166,0.038708,-0.026041,0.117932,-0.434337,0.095125,8.824024,-0.060847,1.424068,1,0,,38.990733,-76.937778,11.056000,,,
2026-09-11T16:21:31.491,5.145959,1.491558,4.722308,13.810718,0.000000,-8.146850,2.802815,1.489773,0.044169,0.092988,0.840227,3.271688,3.070286,-0.005965,-0.023747,0.094472,-0.103558,-0.578494,8.072442,-0.061807,1.356459,1,0,,38.990733,-76.937778,11.056000,,,
2026-09-11T16:21:31.524,5.179372,1.472094,4.771275,13.630504,0.000000,-7.651778,2.632492,1.470541,0.029713,0.062553,0.842825,3.303722,3.107985,0.083431,0.029775,0.064037,1.108544,3.852052,7.799229,0.013154,1.579377,1,0,,38.990733,-76.937778,11.056000,,,
2026-09-11T16:21:31.556,5.212778,1.453195,4.820242,13.455509,0.000000,-7.425185,2.554536,1.451751,0.034645,0.072936,0.845088,3.335355,3.145175,0.015633,0.051455,0.074419,0.430806,3.154505,13.331651,0.038355,1.753771,1,0,,38.990733,-76.937778,11.056000,,,
2026-09-11T16:21:31.590,5.246184,1.463276,4.868999,13.548848,0.000000,-7.453338,2.564222,1.461810,0.043713,0.092027,0.847844,3.366622,3.182490,-0.018643,0.009035,0.093511,0.233791,-0.889169,7.255744,0.046698,1.662661,1,0,,38.990733,-76.937778,11.056000,,,
2026-09-11T16:21:31.625,5.279598,1.424753,4.917293,13.192155,0.000000,-7.393599,2.543670,1.423349,0.041915,0.088242,0.850855,3.397384,3.219627,-0.028426,0.019054,0.089726,-0.135822,1.340177,11.586263,0.029723,1.717441,1,0,,38.990733,-76.937778,11.056000,,,
2026-09-11T16:21:31.657,5.313016,1.405806,4.964785,13.016719,0.000000,-7.535735,2.592569,1.404367,0.040178,0.084586,0.853743,3.427453,3.256098,-0.094501,0.026588,0.086069,0.152886,2.094504,7.537587,0.028466,1.820905,1,0,,38.990733,-76.937778,11.056000,,,
2026-09-11T16:21:31.690,5.346423,1.416041,5.011935,13.111489,0.000000,-7.576247,2.606507,1.414576,0.038574,0.081208,0.856513,3.457355,3.292495,0.035330,0.022676,0.082691,2.386743,-1.655657,10.090847,0.165480,1.680703,1,0,,38.990733,-76.937778,11.056000,,,
2026-09-11T16:21:31.724,5.379833,1.387589,5.058441,12.848044,0.000000,-7.502776,2.581230,1.386181,0.031142,0.065563,0.858964,3.487080,3.328644,0.022345,-0.059147,0.067046,0.786199,0.030106,7.862580,0.189880,1.652724,1,0,,38.990733,-76.937778,11.056000,,,
2026-09-11T16:21:31.758,5.413252,1.388133,5.105614,12.853079,0.000000,-7.615386,2.619972,1.386681,0.044952,0.094637,0.861641,3.516335,3.364596,0.043892,-0.019579,0.096120,1.443539,2.134908,11.833783,0.247175,1.758716,1,0,,38.990733,-76.937778,11.056000,,,
2026-09-11T16:21:31.791,5.446668,1.417758,5.153521,13.127386,0.000000,-7.525435,2.589026,1.416311,0.038098,0.080206,0.864562,3.545725,3.401084,0.032645,-0.033523,0.081690,1.199353,-2.283478,10.537344,0.278042,1.578613,1,0,,38.990733,-76.937778,11.056000,,,
2026-09-11T16:21:31.824,5.480080,1.437757,5.201286,13.312565,0.000000,-6.739913,2.318777,1.436580,0.021771,0.045833,0.866668,3.575855,3.438026,-0.000762,-0.037145,0.047317,0.647925,-0.855826,9.174415,0.267306,1.496040,1,0,,38.990733,-76.937778,11.056000,,,
2026-09-11T16:21:31.857,5.513490,1.438117,5.249285,13.315900,0.000000,-5.981856,2.057978,1.437190,0.019100,0.040211,0.868105,3.606386,3.475079,0.007731,-0.001595,0.041695,-0.274292,-1.048723,9.596592,0.189502,1.402429,1,0,,38.990733,-76.937778,11.056000,,,
2026-09-11T16:21:31.890,5.546875,1.457980,5.297899,13.499814,0.000000,-5.097457,1.753712,1.457297,0.019899,0.041893,0.869476,3.637089,3.512392,-0.051018,0.000730,0.043377,1.162775,-0.212020,9.896675,0.194918,1.363824,1,0,,38.990733,-76.937778,11.056000,,,
2026-09-11T16:21:31.926,5.580282,1.477323,5.347344,13.678915,0.000000,-3.879348,1.334638,1.476922,0.012414,0.026134,0.870612,3.668279,3.550202,-0.086721,0.038766,0.027617,1.934068,-1.642614,9.866373,0.245221,1.234504,1,0,,38.990733,-76.937778,11.056000,,,
2026-09-11T16:21:31.958,5.613700,1.516233,5.398504,14.039198,0.000000,-1.927901,0.663269,1.516132,-0.001789,-0.003766,0.870986,3.700361,3.588567,-0.091645,0.047207,-0.002282,1.928576,1.334685,9.209033,0.289007,1.302163,1,0,,38.990733,-76.937778,11.056000,,,
2026-09-11T16:21:31.991,5.647117,1.574882,5.451550,14.582245,0.000000,0.283784,-0.097632,1.574880,-0.003136,-0.006603,0.870813,3.733691,3.628019,-0.168866,0.039099,-0.005119,1.652028,-1.797461,9.945512,0.308128,1.166641,1,0,,38.990733,-76.937778,11.056000,,,
2026-09-11T16:21:32.024,5.680525,1.643193,5.506327,15.214748,0.000000,2.889604,-0.994130,1.642945,-0.016044,-0.033776,0.870138,3.768577,3.668912,-0.172041,0.002272,-0.032293,1.724205,-0.642924,9.913543,0.332960,1.110285,1,0,,38.990733,-76.937778,11.056000,,,
2026-09-11T16:21:32.057,5.713931,1.691986,5.562854,15.666540,0.000000,4.267701,-1.468246,1.691431,-0.021987,-0.046288,0.868801,3.804998,3.711051,-0.124751,0.042168,-0.044804,1.113055,0.360591,8.780678,0.326199,1.120960,1,1,5.703338,38.990726,-76.937765,10.997000,3.811674,-3.340110,6.310368
2026-09-11T16:21:32.092,5.747338,1.721236,5.620491,15.937367,0.000000,5.069703,-1.744164,1.720438,-0.025197,-0.053047,0.867142,3.842436,3.754026,-0.111652,-0.016392,-0.051563,2.193159,-0.838763,10.616091,0.397672,1.054757,1,0,,38.990726,-76.937765,10.997000,,,
2026-09-11T16:21:32.126,5.780760,1.779865,5.681050,16.480230,0.000000,5.265397,-1.811490,1.778975,-0.028019,-0.058988,0.865269,3.880993,3.798003,-0.080837,0.001820,-0.057505,1.416080,-1.138356,8.330749,0.424973,0.970751,1,0,,38.990726,-76.937765,10.997000,,,
2026-09-11T16:21:32.158,5.814170,1.828799,5.741860,16.933325,0.000000,5.592927,-1.924172,1.827768,-0.032608,-0.068649,0.863137,3.920880,3.843169,-0.056624,-0.052985,-0.067165,1.447069,-0.072079,9.119106,0.459535,0.958031,1,0,,38.990726,-76.937765,10.997000,,,
2026-09-11T16:21:32.192,5.847577,1.848609,5.803900,17.116746,0.000000,5.835313,-2.007562,1.847474,-0.033156,-0.069802,0.860825,3.961675,3.889057,-0.004105,-0.010830,-0.068318,1.073632,-1.256134,10.974230,0.475260,0.869072,1,0,,38.990726,-76.937765,10.997000,,,
2026-09-11T16:21:32.226,5.880999,1.897871,5.867900,17.572882,0.000000,5.658158,-1.946614,1.896776,-0.031534,-0.066387,0.858549,4.003333,3.935757,0.105089,-0.061602,-0.064904,1.425495,0.384028,11.412391,0.522509,0.887024,1,0,,38.990726,-76.937765,10.997000,,,
2026-09-11T16:21:32.259,5.914421,1.917752,5.931952,17.756965,0.000000,5.614213,-1.931495,1.916663,-0.028393,-0.059774,0.856441,4.045789,3.983291,0.092667,-0.015764,-0.058290,0.508867,0.736283,8.820493,0.520002,0.926842,1,0,,38.990726,-76.937765,10.997000,,,
2026-09-11T16:21:32.291,5.947830,1.908328,5.995063,17.669708,0.000000,5.526322,-1.901258,1.907278,-0.028346,-0.059676,0.854445,4.088400,4.030888,0.143084,0.014504,-0.058192,-0.888679,-0.270958,10.108303,0.436049,0.900986,1,0,,38.990726,-76.937765,10.997000,,,
2026-09-11T16:21:32.325,5.981241,1.840070,6.057280,17.037686,0.000000,5.600480,-1.926771,1.839030,-0.032052,-0.067479,0.852321,4.130305,4.077383,0.101384,0.195391,-0.065995,-2.733113,-0.650083,0.710198,0.239007,0.851550,1,0,,38.990726,-76.937765,10.997000,,,
2026-09-11T16:21:32.360,6.014661,1.801425,6.117634,16.679862,0.000000,5.555848,-1.911416,1.800423,-0.029921,-0.062992,0.850141,4.171164,4.122440,0.074384,-0.123739,-0.061508,-5.862808,1.965253,4.259715,-0.152548,0.971226,1,0,,38.990726,-76.937765,10.997000,,,
2026-09-11T16:21:32.392,6.048065,1.753476,6.175972,16.235889,0.000000,3.868760,-1.330995,1.753003,-0.013749,-0.028946,0.848605,4.210909,4.166522,0.079514,-0.084926,-0.027463,-1.794323,0.530442,13.993796,-0.270578,0.992646,1,0,,38.990726,-76.937765,10.997000,,,
2026-09-11T16:21:32.425,6.081477,1.753852,6.234242,16.239372,0.000000,-1.694442,0.582950,1.753761,0.016109,0.033913,0.848688,4.249603,4.210509,0.131679,0.003795,0.035396,-0.265956,-0.155632,8.034785,-0.285859,0.962307,1,0,,38.990726,-76.937765,10.997000,,,
2026-09-11T16:21:32.459,6.114883,1.725203,6.292237,15.974100,0.000000,-7.662078,2.636036,1.723377,0.023915,0.050348,0.850096,4.287459,4.254560,0.054495,-0.029531,0.051831,-0.321658,2.020268,13.783443,-0.302023,1.071320,1,0,,38.990726,-76.937765,10.997000,,,
2026-09-11T16:21:32.494,6.148300,1.715846,6.349601,15.887464,0.000000,-7.872878,2.708559,1.713929,0.045873,0.096574,0.852551,4.324429,4.298526,0.003621,-0.035843,0.098058,-0.192505,1.257213,9.229725,-0.307787,1.124682,1,0,,38.990726,-76.937765,10.997000,,,
2026-09-11T16:21:32.525,6.181712,1.696858,6.405467,15.711646,0.000000,-10.499984,3.612380,1.693486,0.067113,0.141291,0.856524,4.360379,4.342700,0.030409,0.024238,0.142774,0.005884,0.607130,11.385619,-0.303333,1.130604,1,0,,38.990726,-76.937765,10.997000,,,
2026-09-11T16:21:32.559,6.215122,1.697394,6.461736,15.716614,0.000000,-14.019729,4.823301,1.691383,0.086122,0.181310,0.861913,4.395365,4.387193,0.028896,0.050479,0.182793,1.186310,0.275665,11.650497,-0.231704,1.110651,1,0,,38.990726,-76.937765,10.997000,,,
2026-09-11T16:21:32.592,6.248529,1.697933,6.518337,15.721598,0.000000,-17.987166,6.188245,1.688039,0.094205,0.198326,0.868255,4.429683,4.432112,0.008834,-0.022303,0.199810,0.442966,1.043428,9.822439,-0.220151,1.138777,1,0,,38.990726,-76.937765,10.997000,,,
2026-09-11T16:21:32.627,6.281951,1.698372,6.576185,15.725668,0.000000,-18.873626,6.493220,1.687477,0.121105,0.254958,0.875829,4.463213,4.477614,0.108465,-0.036334,0.256441,-1.236521,-1.272707,5.511534,-0.324565,1.010500,1,0,,38.990726,-76.937765,10.997000,,,
2026-09-11T16:21:32.660,6.315370,1.718413,6.633565,15.911227,0.000000,-19.975692,6.872371,1.706066,0.108774,0.228999,0.883916,4.496386,4.523761,0.073307,-0.263985,0.230482,1.784124,0.147492,21.067823,-0.236033,0.978139,1,0,,38.990726,-76.937765,10.997000,,,
2026-09-11T16:21:32.693,6.348786,1.728583,6.691413,16.005394,0.000000,-20.071135,6.905207,1.716044,0.106882,0.225015,0.891502,4.529681,4.570384,0.043207,-0.013403,0.226499,0.368730,2.225227,10.563920,-0.243302,1.080902,1,0,,38.990726,-76.937765,10.997000,,,
2026-09-11T16:21:32.726,6.382196,1.748329,6.749808,16.188227,0.000000,-20.132934,6.926468,1.735569,0.107886,0.227129,0.899055,4.562933,4.617624,0.120301,0.065897,0.228613,0.353530,0.446693,9.296606,-0.254105,1.066902,1,0,,38.990726,-76.937765,10.997000,,,
2026-09-11T16:21:32.760,6.415604,1.767948,6.808328,16.369890,0.000000,-19.141417,6.585350,1.756283,0.100288,0.211133,0.906376,4.596337,4.665568,0.097114,0.031388,0.212616,1.363124,0.077669,11.807991,-0.200223,1.030694,1,0,,38.990726,-76.937765,10.997000,,,
2026-09-11T16:21:32.795,6.449014,1.797377,6.868585,16.642382,0.000000,-17.321120,5.959101,1.787665,0.093218,0.196248,0.913181,4.630128,4.714285,-0.000240,-0.039159,0.197731,1.199942,-1.718223,10.062898,-0.153365,0.879980,1,0,,38.990726,-76.937765,10.997000,,,
2026-09-11T16:21:32.827,6.482544,1.827022,6.930643,16.916873,0.000000,-14.201690,4.885902,1.820383,0.071932,0.151435,0.919010,4.664764,4.763954,-0.018725,0.022634,0.152919,-0.147884,-0.618702,8.764301,-0.189740,0.806684,1,0,,38.990726,-76.937765,10.997000,,,
2026-09-11T16:21:32.860,6.515959,1.856369,6.992621,17.188599,0.000000,-8.121444,2.794075,1.854162,0.065932,0.138804,0.923859,4.700051,4.814244,-0.016520,-0.150576,0.140288,3.747709,0.937712,7.481199,0.027459,0.836349,1,0,,38.990726,-76.937765,10.997000,,,
2026-09-11T16:21:32.894,6.549365,1.847115,7.053767,17.102914,0.000000,-8.063765,2.774231,1.844950,0.065115,0.137083,0.928467,4.735430,4.864947,-0.036962,-0.133665,0.138567,-0.568492,1.322721,4.995017,-0.032801,0.890874,1,0,,38.990726,-76.937765,10.997000,,,
2026-09-11T16:21:32.926,6.582771,1.866839,7.116149,17.285548,0.000000,-7.549468,2.597294,1.864921,0.033570,0.070673,0.931937,4.771143,4.915613,-0.074539,-0.006570,0.072157,1.827567,-1.689882,10.793591,0.066919,0.757737,1,0,,38.990726,-76.937765,10.997000,,,
2026-09-11T16:21:32.961,6.616184,1.867081,7.179055,17.287786,0.000000,-7.481490,2.573907,1.865197,0.051130,0.107642,0.934916,4.807090,4.966537,0.000469,-0.111476,0.109125,0.384911,3.360739,12.221440,0.072152,0.948391,1,0,,38.990726,-76.937765,10.997000,,,
2026-09-11T16:21:32.995,6.649601,1.867784,7.241437,17.294292,0.000000,-7.598906,2.614303,1.865840,0.056309,0.118545,0.938695,4.842571,5.017826,-0.043882,-0.033656,0.120029,0.719612,-0.830133,10.861748,0.098408,0.864423,1,0,,38.990726,-76.937765,10.997000,,,
2026-09-11T16:21:33.027,6.683023,1.848904,7.303307,17.119483,0.000000,-7.552901,2.598475,1.847003,0.025472,0.053624,0.941573,4.878055,5.068742,-0.005350,0.274701,0.055108,-0.493667,2.395470,1.837472,0.046043,0.998059,1,0,,38.990726,-76.937765,10.997000,,,
2026-09-11T16:21:33.060,6.716429,1.781370,7.363040,16.494165,0.000000,-7.541915,2.594695,1.779543,0.044202,0.093058,0.944023,4.912704,5.118442,-0.269350,-0.179979,0.094541,-4.983249,-0.611739,-1.989671,-0.289560,0.931291,1,1,6.709187,38.990717,-76.937748,10.971000,5.242600,-4.327521,6.706349
2026-09-11T16:21:33.094,6.749838,1.771707,7.422267,16.404692,0.000000,-7.108642,2.445634,1.770093,0.024808,0.052227,0.946450,4.946490,5.167184,-0.173077,0.083555,0.053710,-0.567021,-1.077064,6.015595,-0.327752,0.839885,1,0,,38.990717,-76.937748,10.971000,,,
2026-09-11T16:21:33.128,6.783257,1.762065,7.481430,16.315421,0.000000,-6.718627,2.311454,1.760632,0.033594,0.070723,0.948504,4.980136,5.215656,-0.154672,-0.055163,0.072207,2.117648,-4.448297,0.764232,-0.190948,0.529229,1,0,,38.990717,-76.937748,10.971000,,,
2026-09-11T16:21:33.161,6.816677,1.723456,7.538823,15.957922,0.000000,-6.310073,2.170897,1.722219,0.031553,0.066428,0.950796,5.013120,5.263615,-0.116579,0.043148,0.067911,0.616054,6.058156,10.837721,-0.154782,0.902593,1,0,,38.990717,-76.937748,10.971000,,,
2026-09-11T16:21:33.194,6.850086,1.723711,7.595611,15.960287,0.000000,-5.437346,1.870647,1.722792,0.012794,0.026936,0.952355,5.045918,5.310909,-0.114540,0.020996,0.028419,0.851904,2.965433,10.310418,-0.106902,1.076046,1,0,,38.990717,-76.937748,10.971000,,,
2026-09-11T16:21:33.227,6.883491,1.753216,7.653977,16.233479,0.000000,-5.083037,1.748751,1.752399,0.014179,0.029850,0.953304,5.079180,5.358478,-0.144945,0.053912,0.031333,0.506906,-4.467812,9.098414,-0.085548,0.766290,1,0,,38.990717,-76.937748,10.971000,,,
2026-09-11T16:21:33.261,6.916900,1.772924,7.713705,16.415966,0.000000,-5.171615,1.779225,1.772070,0.012966,0.027296,0.954258,5.112875,5.406760,-0.070651,0.060851,0.028780,-0.390207,-0.535835,10.349448,-0.125474,0.714583,1,0,,38.990717,-76.937748,10.971000,,,
2026-09-11T16:21:33.295,6.950310,1.802490,7.773825,16.689722,0.000000,-6.072493,2.089161,1.801292,0.006133,0.012912,0.954930,5.147114,5.455659,-0.045335,0.118386,0.014395,-1.387641,-1.709789,12.507990,-0.236281,0.589124,1,0,,38.990717,-76.937748,10.971000,,,
2026-09-11T16:21:33.329,6.983732,1.734847,7.831656,16.063401,0.000000,-6.172057,2.123414,1.733656,0.036523,0.076891,0.956431,5.180620,5.504314,-0.025614,0.103136,0.078375,-2.384095,-6.458758,7.124335,-0.417851,0.150578,1,0,,38.990717,-76.937748,10.971000,,,
2026-09-11T16:21:33.361,7.017152,1.745189,7.890022,16.159161,0.000000,-5.654326,1.945296,1.744184,0.025949,0.054628,0.958628,5.213214,5.552440,-0.037745,-0.018478,0.056112,2.509816,-0.410899,10.052993,-0.284424,0.110733,1,0,,38.990717,-76.937748,10.971000,,,
2026-09-11T16:21:33.394,7.050559,1.745474,7.948104,16.161800,0.000000,-2.910491,1.001316,1.745208,0.014478,0.030480,0.960050,5.246120,5.600552,-0.135665,0.039132,0.031963,1.615253,0.067666,9.886574,-0.218546,0.105022,1,0,,38.990717,-76.937748,10.971000,,,
2026-09-11T16:21:33.427,7.083966,1.785082,8.008025,16.528536,0.000000,0.239839,-0.082513,1.785080,-0.020669,-0.043513,0.959832,5.280027,5.648797,0.058327,-0.020547,-0.042030,2.181293,-2.661035,10.117717,-0.126147,-0.068655,1,0,,38.990717,-76.937748,10.971000,,,
2026-09-11T16:21:33.461,7.117367,1.814454,8.068710,16.800497,0.000000,3.445787,-1.185477,1.814065,-0.014904,-0.031377,0.958582,5.315026,5.697668,-0.009456,-0.049078,-0.029893,1.263685,5.527518,9.700248,-0.094175,0.287833,1,0,,38.990717,-76.937748,10.971000,,,
2026-09-11T16:21:33.496,7.150777,1.843863,8.130881,17.072810,0.000000,5.454911,-1.876690,1.842874,-0.031580,-0.066484,0.956947,5.350808,5.747186,0.003971,-0.056093,-0.065000,1.355671,2.248273,10.768977,-0.049830,0.432590,1,0,,38.990717,-76.937748,10.971000,,,
2026-09-11T16:21:33.528,7.184201,1.843701,8.192597,17.071308,0.000000,6.426515,-2.210957,1.842329,-0.045582,-0.095963,0.954232,5.387405,5.796737,0.018062,0.046179,-0.094479,1.289182,-2.275143,4.903129,-0.004729,0.286571,1,0,,38.990717,-76.937748,10.971000,,,
2026-09-11T16:21:33.561,7.217601,1.863400,8.254957,17.253704,0.000000,6.999864,-2.408210,1.861754,-0.051591,-0.108613,0.950816,5.424582,5.846202,0.168495,-0.027887,-0.107129,-3.671512,-0.260465,14.061560,-0.282946,0.274210,1,0,,38.990717,-76.937748,10.971000,,,
2026-09-11T16:21:33.595,7.251005,1.883008,8.319093,17.435257,0.000000,7.558793,-2.600502,1.881069,-0.043373,-0.091311,0.947476,5.462279,5.896097,0.054044,0.045975,-0.089828,-0.401582,3.048495,6.802089,-0.347130,0.474042,1,0,,38.990717,-76.937748,10.971000,,,
2026-09-11T16:21:33.629,7.284417,1.902655,8.381812,17.617177,0.000000,7.271775,-2.501758,1.900842,-0.048584,-0.102282,0.944242,5.500489,5.946438,0.079832,-0.090627,-0.100799,0.388539,-2.005558,5.621466,-0.355593,0.346197,1,0,,38.990717,-76.937748,10.971000,,,
2026-09-11T16:21:33.662,7.317819,1.960991,8.447464,18.157326,0.000000,6.712846,-2.309465,1.959398,-0.045881,-0.096592,0.940921,5.539655,5.997670,0.081022,-0.051971,-0.095109,1.991338,5.105146,10.429274,-0.254490,0.679370,1,0,,38.990717,-76.937748,10.971000,,,
2026-09-11T16:21:33.696,7.351227,2.009706,8.514882,18.608385,0.000000,6.530198,-2.246628,2.008161,-0.040812,-0.085920,0.937872,5.579945,6.050312,0.088422,-0.153307,-0.084437,-1.556512,0.891130,11.749053,-0.377061,0.735237,1,0,,38.990717,-76.937748,10.971000,,,
2026-09-11T16:21:33.728,7.384637,1.990779,8.581268,18.433139,0.000000,4.321260,-1.486672,1.990109,-0.020568,-0.043302,0.935714,5.620336,6.103514,0.174370,-0.061779,-0.041818,0.545740,3.262574,10.619229,-0.358531,0.938332,1,0,,38.990717,-76.937748,10.971000,,,
2026-09-11T16:21:33.761,7.418034,1.952822,8.647211,18.081685,0.000000,1.508760,-0.519069,1.952742,-0.012693,-0.026723,0.934544,5.659873,6.156165,0.178764,0.023684,-0.025239,-1.560042,-0.104441,10.762995,-0.474577,0.919141,1,0,,38.990717,-76.937748,10.971000,,,
2026-09-11T16:21:33.795,7.451432,1.953357,8.711786,18.086636,0.000000,0.094957,-0.032669,1.953356,0.015994,0.033672,0.934660,5.698583,6.208665,0.072204,0.013025,0.035155,0.339114,-5.584299,8.988776,-0.464735,0.538128,1,0,,38.990717,-76.937748,10.971000,,,
2026-09-11T16:21:33.829,7.484854,1.944155,8.777125,18.001431,0.000000,-3.222228,1.108565,1.943791,0.013927,0.029320,0.935713,5.736843,6.261368,0.116808,0.013101,0.030804,-1.765197,-2.661035,10.557251,-0.587520,0.350845,1,0,,38.990717,-76.937748,10.971000,,,
2026-09-11T16:21:33.863,7.518263,1.905551,8.840402,17.643988,0.000000,-4.534408,1.560003,1.904844,0.007227,0.015214,0.936457,5.774679,6.313346,0.046605,0.030835,0.016698,-0.530246,-1.018519,10.700722,-0.627222,0.273778,1,0,,38.990717,-76.937748,10.971000,,,
2026-09-11T16:21:33.895,7.551672,1.895853,8.903570,17.554199,0.000000,-5.251952,1.806864,1.894911,0.023470,0.049411,0.937536,5.811855,6.364795,-0.009607,-0.027231,0.050894,-0.646552,1.350474,9.724372,-0.670301,0.346627,1,0,,38.990717,-76.937748,10.971000,,,
2026-09-11T16:21:33.928,7.585080,1.857222,8.965781,17.196499,0.000000,-6.251021,2.150581,1.855914,0.030621,0.064465,0.939439,5.848155,6.415869,-0.018279,-0.002315,0.065948,-0.727261,1.678899,12.669211,-0.711894,0.438230,1,0,,38.990717,-76.937748,10.971000,,,
2026-09-11T16:21:33.962,7.618479,1.857708,9.027252,17.201004,0.000000,-7.062636,2.429806,1.856038,0.054187,0.114077,0.942420,5.883524,6.466796,0.026173,0.013524,0.115561,1.101679,-2.346339,12.015500,-0.634721,0.262528,1,0,,38.990717,-76.937748,10.971000,,,
2026-09-11T16:21:33.996,7.651880,1.857786,9.089532,17.201721,0.000000,-7.678557,2.641705,1.855812,0.058517,0.123193,0.946383,5.918339,6.518120,0.078945,-0.002996,0.124676,-0.394031,-1.723617,9.960124,-0.659417,0.127947,1,0,,38.990717,-76.937748,10.971000,,,
2026-09-11T16:21:34.030,7.685302,1.857869,9.152193,17.202492,0.000000,-7.368194,2.534929,1.856051,0.045704,0.096218,0.950049,5.953095,6.569526,0.043698,-0.007892,0.097701,0.223395,2.065477,11.015320,-0.646323,0.243208,1,0,,38.990717,-76.937748,10.971000,,,
2026-09-11T16:21:34.063,7.718710,1.848786,9.213647,17.118386,0.000000,-7.103148,2.443744,1.847104,0.049676,0.104581,0.953403,5.987693,6.620829,-0.014957,0.018084,0.106064,-0.753151,-3.090075,13.624673,-0.696477,0.022720,1,1,7.708441,38.990708,-76.937730,10.937000,6.779974,-5.257111,5.109692
2026-09-11T16:21:34.096,7.752121,1.839762,9.275516,17.034831,0.000000,-7.019378,2.414923,1.838128,0.033688,0.070922,0.956335,6.022123,6.671884,0.010780,-0.000557,0.072406,0.110129,-0.422078,11.171246,-0.693283,-0.018689,1,0,,38.990708,-76.937730,10.937000,,,
2026-09-11T16:21:34.129,7.785532,1.860106,9.336868,17.223200,0.000000,-6.801024,2.339802,1.858555,0.036038,0.075871,0.958788,6.056711,6.723058,-0.043319,0.023693,0.077354,0.963111,-1.532976,9.139013,-0.641147,-0.132190,1,0,,38.990708,-76.937730,10.937000,,,
2026-09-11T16:21:34.164,7.818937,1.860396,9.399318,17.225893,0.000000,-6.354705,2.186252,1.859042,0.030914,0.065082,0.961142,6.091408,6.774563,0.058587,0.030359,0.066566,0.740010,3.338674,8.906400,-0.609664,0.071955,1,0,,38.990708,-76.937730,10.937000,,,
2026-09-11T16:21:34.197,7.852345,1.870584,9.463102,17.320226,0.000000,-5.878859,2.022543,1.869419,0.021072,0.044361,0.962970,6.126310,6.826153,0.011932,-0.019778,0.045845,0.510926,-0.327346,12.598702,-0.595922,0.039199,1,0,,38.990708,-76.937730,10.937000,,,
2026-09-11T16:21:34.230,7.885765,1.890190,9.525564,17.501762,0.000000,-4.462996,1.535435,1.889512,0.012963,0.027291,0.964167,6.161682,6.878061,0.061737,-0.028814,0.028775,1.097070,-0.402955,8.464218,-0.543909,0.003932,1,0,,38.990708,-76.937730,10.937000,,,
2026-09-11T16:21:34.262,7.919166,1.880493,9.588248,17.411973,0.000000,-2.009612,0.691380,1.880356,-0.000422,-0.000889,0.964608,6.197391,6.929913,0.009093,-0.084459,0.000595,0.263897,1.336646,9.092138,-0.545907,0.085015,1,0,,38.990708,-76.937730,10.937000,,,
2026-09-11T16:21:34.296,7.952564,1.890431,9.651371,17.503992,0.000000,2.233857,-0.768529,1.890261,-0.026438,-0.055660,0.963664,6.233659,6.981388,0.039964,0.088728,-0.054176,3.824201,-1.152478,20.961911,-0.318952,0.010933,1,0,,38.990708,-76.937730,10.937000,,,
2026-09-11T16:21:34.331,7.985987,1.871445,9.713827,17.328192,0.000000,5.786561,-1.990789,1.870315,-0.036516,-0.076876,0.961449,6.270433,7.032361,0.045556,0.121013,-0.075392,2.427636,-0.872792,12.120922,-0.185997,-0.041786,1,0,,38.990708,-76.937730,10.937000,,,
2026-09-11T16:21:34.363,8.019397,1.891088,9.776819,17.510074,0.000000,7.797059,-2.682474,1.889016,-0.060746,-0.127887,0.958028,6.307794,7.082863,-0.026521,-0.020185,-0.126403,1.429417,0.656065,9.312101,-0.114594,0.011320,1,0,,38.990708,-76.937730,10.937000,,,
2026-09-11T16:21:34.396,8.052798,1.920353,9.840523,17.781048,0.000000,8.954743,-3.080760,1.917578,-0.067011,-0.141075,0.953537,6.346216,7.133553,-0.008872,-0.005340,-0.139591,0.943596,0.324894,11.920964,-0.069633,0.044278,1,0,,38.990708,-76.937730,10.937000,,,
2026-09-11T16:21:34.429,8.086205,1.930434,9.904773,17.874389,0.000000,9.348878,-3.216357,1.927393,-0.063367,-0.133404,0.948952,6.385282,7.184576,-0.095036,0.044122,-0.131920,0.249187,-2.515700,6.719713,-0.066321,-0.107717,1,0,,38.990708,-76.937730,10.937000,,,
2026-09-11T16:21:34.463,8.119604,1.921408,9.969069,17.790818,0.000000,8.910112,-3.065405,1.918659,-0.059460,-0.125180,0.944634,6.424474,7.235502,-0.073019,0.017872,-0.123696,0.170832,0.879460,8.750082,-0.062432,-0.039543,1,0,,38.990708,-76.937730,10.937000,,,
2026-09-11T16:21:34.498,8.153013,1.921848,10.034027,17.794887,0.000000,7.808045,-2.686254,1.919736,-0.047208,-0.099386,0.940883,6.463589,7.286338,-0.010509,0.064608,-0.097902,-0.271546,0.621545,9.439489,-0.082800,0.008019,1,0,,38.990708,-76.937730,10.937000,,,
2026-09-11T16:21:34.530,8.186436,1.912571,10.097309,17.708987,0.000000,6.374330,-2.193003,1.911170,-0.028134,-0.059229,0.938232,6.502387,7.337279,0.038838,0.008113,-0.057746,-0.326758,0.849452,8.065676,-0.106530,0.064800,1,0,,38.990708,-76.937730,10.937000,,,
2026-09-11T16:21:34.563,8.219835,1.932239,10.161423,17.891106,0.000000,3.869447,-1.331232,1.931718,-0.013503,-0.028427,0.936768,6.540927,7.388598,-0.058707,0.013652,-0.026944,-0.563000,-0.026870,8.661724,-0.149078,0.060476,1,0,,38.990708,-76.937730,10.937000,,,
2026-09-11T16:21:34.598,8.253236,1.912953,10.225827,17.712525,0.000000,-0.424834,0.146159,1.912947,-0.003806,-0.008012,0.936159,6.579211,7.440143,0.077752,0.043479,-0.006528,-0.930847,2.385173,10.336013,-0.216974,0.209624,1,0,,38.990708,-76.937730,10.937000,,,
2026-09-11T16:21:34.631,8.286638,1.873708,10.287606,17.349147,0.000000,-5.770369,1.985219,1.872583,0.014491,0.030507,0.936535,6.616541,7.491168,0.074965,0.014162,0.031990,-0.821111,3.862839,11.219102,-0.272785,0.448016,1,0,,38.990708,-76.937730,10.937000,,,
2026-09-11T16:21:34.665,8.320049,1.845157,10.349646,17.084789,0.000000,-5.702392,1.961832,1.844076,0.020352,0.042846,0.937761,6.652835,7.541548,-0.059451,-0.037800,0.044330,-0.957129,3.575701,11.115838,-0.335624,0.663856,1,0,,38.990708,-76.937730,10.937000,,,
2026-09-11T16:21:34.697,8.353462,1.826175,10.410074,16.909026,0.000000,-5.687285,1.956635,1.825110,0.028818,0.060669,0.939490,6.688394,7.591485,-0.057605,-0.033083,0.062152,2.000164,-3.879511,9.578940,-0.208903,0.392919,1,0,,38.990708,-76.937730,10.937000,,,
2026-09-11T16:21:34.730,8.386872,1.787571,10.468999,16.551583,0.000000,-5.825988,2.004354,1.786477,0.007725,0.016262,0.940775,6.723478,7.640572,-0.053821,-0.080454,0.017746,0.974683,6.214768,10.564410,-0.151098,0.783335,1,0,,38.990708,-76.937730,10.937000,,,
2026-09-11T16:21:34.764,8.420281,1.768745,10.528060,16.377271,0.000000,-5.701705,1.961596,1.767709,0.017339,0.036504,0.941656,6.758098,7.688807,-0.078047,-0.166002,0.037987,2.498734,-0.844647,4.577352,0.002932,0.710415,1,0,,38.990708,-76.937730,10.937000,,,
2026-09-11T16:21:34.797,8.453681,1.788493,10.588300,16.560121,0.000000,-5.972930,2.054907,1.787343,0.018464,0.038872,0.942915,6.792519,7.737182,-0.112128,-0.011282,0.040356,4.068191,5.475445,8.962886,0.257507,1.046794,1,0,,38.990708,-76.937730,10.937000,,,
2026-09-11T16:21:34.832,8.487096,1.818162,10.649714,16.834833,0.000000,-6.256514,2.152471,1.816879,0.038691,0.081454,0.944926,6.827070,7.786511,0.013267,-0.003213,0.082938,0.148277,-1.310168,13.146599,0.256374,0.935407,1,0,,38.990708,-76.937730,10.937000,,,
2026-09-11T16:21:34.865,8.520517,1.818823,10.710359,16.840953,0.000000,-6.492034,2.233498,1.817441,0.039893,0.083986,0.947690,6.861513,7.836547,-0.037295,-0.001452,0.085470,0.627037,-4.893420,9.461652,0.281131,0.593038,1,0,,38.990708,-76.937730,10.937000,,,
2026-09-11T16:21:34.897,8.553924,1.799912,10.770628,16.665852,0.000000,-6.623870,2.278854,1.798489,0.043761,0.092129,0.950632,6.895551,7.886460,0.036311,0.008388,0.093613,0.217904,3.118613,9.943551,0.275873,0.772073,1,0,,38.990708,-76.937730,10.937000,,,
2026-09-11T16:21:34.931,8.587327,1.839145,10.831865,17.029123,0.000000,-6.664382,2.292792,1.837673,0.045711,0.096233,0.953778,6.929549,7.936803,0.042793,0.024555,0.097717,-0.395796,0.330876,10.712000,0.230957,0.768065,1,0,,38.990708,-76.937730,10.937000,,,
2026-09-11T16:21:34.965,8.620729,1.839506,10.893102,17.032459,0.000000,-6.577865,2.263027,1.838071,0.037969,0.079935,0.956720,6.963854,7.987731,-0.007896,0.000710,0.081418,1.067552,-0.569080,9.556581,0.278046,0.707826,1,0,,38.990708,-76.937730,10.937000,,,
2026-09-11T16:21:34.999,8.654151,1.849308,10.955223,17.123219,0.000000,-6.359511,2.187905,1.847960,0.028186,0.059339,0.959047,6.998384,8.038752,-0.046204,-0.019090,0.060822,1.022637,-1.639672,8.978773,0.319850,0.581345,1,0,,38.990708,-76.937730,10.937000,,,
2026-09-11T16:21:35.032,8.687566,1.858866,11.017514,17.211724,0.000000,-5.981856,2.057978,1.857667,0.022442,0.047247,0.960828,7.033202,8.089953,0.023824,-0.027643,0.048730,0.660380,2.199043,10.178224,0.339010,0.706093,1,0,,38.990708,-76.937730,10.937000,,,
2026-09-11T16:21:35.065,8.720971,1.849383,11.079115,17.123918,0.000000,-5.625487,1.935374,1.848328,0.017661,0.037181,0.962238,7.068075,8.141098,0.021475,-0.000513,0.038664,0.242028,0.277136,9.342796,0.335281,0.706334,1,1,8.700385,38.990700,-76.937712,10.904000,8.341259,-6.193372,5.026741
2026-09-11T16:21:35.099,8.754377,1.849577,11.142432,17.125715,0.000000,-5.434600,1.869702,1.848592,0.013830,0.029116,0.963346,7.102917,8.192083,-0.074506,-0.024882,0.030599,-0.218002,-0.496609,8.797154,0.305613,0.657482,1,0,,38.990700,-76.937712,10.904000,,,
2026-09-11T16:21:35.132,8.787779,1.869246,11.203994,17.307838,0.000000,-4.977981,1.712608,1.868411,0.012646,0.026624,0.964277,7.137962,8.243323,0.007995,-0.008175,0.028108,-0.148963,2.648776,8.066264,0.279544,0.812889,1,0,,38.990700,-76.937712,10.904000,,,
2026-09-11T16:21:35.165,8.821195,1.830666,11.265601,16.950612,0.000000,-3.783904,1.301802,1.830194,-0.005061,-0.010654,0.964543,7.173076,8.294174,-0.021071,0.215711,-0.009170,0.242813,-0.450910,8.422736,0.281685,0.770543,1,0,,38.990700,-76.937712,10.904000,,,
2026-09-11T16:21:35.198,8.854601,1.821529,11.326582,16.866009,0.000000,-3.806563,1.309597,1.821053,-0.002131,-0.004486,0.964291,7.207931,8.344219,-0.079944,-0.021177,-0.003002,-4.549599,2.068517,-2.249253,-0.023121,0.890934,1,0,,38.990700,-76.937712,10.904000,,,
2026-09-11T16:21:35.231,8.888004,1.822289,11.387506,16.873049,0.000000,-3.942519,1.356371,1.821779,0.003953,0.008323,0.964355,7.242584,8.394228,0.007765,-0.001368,0.009806,-1.089421,-1.787458,9.479696,-0.101267,0.759038,1,0,,38.990700,-76.937712,10.904000,,,
2026-09-11T16:21:35.265,8.921405,1.793573,11.447542,16.607153,0.000000,-4.764434,1.639140,1.792839,0.020347,0.042837,0.965209,7.276634,8.444075,0.039049,0.024179,0.044320,-0.566334,0.025497,11.600483,-0.143475,0.741894,1,0,,38.990700,-76.937712,10.904000,,,
2026-09-11T16:21:35.300,8.954827,1.803929,11.508671,16.703044,0.000000,-5.733291,1.972462,1.802860,0.016962,0.035709,0.966522,7.310294,8.493855,0.051390,0.014224,0.037193,-0.752072,1.274570,9.449688,-0.197905,0.806576,1,0,,38.990700,-76.937712,10.904000,,,
2026-09-11T16:21:35.332,8.988245,1.775036,11.568148,16.435518,0.000000,-6.016875,2.070026,1.773878,0.022539,0.047451,0.967911,7.343672,8.543432,0.036390,-0.025887,0.048934,-0.227122,-0.501904,9.900892,-0.219636,0.754290,1,0,,38.990700,-76.937712,10.904000,,,
2026-09-11T16:21:35.365,9.021648,1.775462,11.627129,16.439459,0.000000,-6.119185,2.105224,1.774263,0.027961,0.058864,0.969687,7.376535,8.592753,-0.010153,-0.010752,0.060348,0.990079,-1.747251,9.823420,-0.158652,0.620738,1,0,,38.990700,-76.937712,10.904000,,,
2026-09-11T16:21:35.398,9.055058,1.775301,11.686213,16.437974,0.000000,-6.119185,2.105224,1.774103,0.026820,0.056463,0.971613,7.409256,8.642186,-0.061031,0.036176,0.057946,0.419430,-0.540150,7.667427,-0.134658,0.567016,1,0,,38.990700,-76.937712,10.904000,,,
2026-09-11T16:21:35.433,9.088465,1.755840,11.745320,16.257777,0.000000,-6.163131,2.120343,1.754638,0.017758,0.037385,0.973181,7.441845,8.691306,-0.123271,0.051802,0.038868,-0.616054,-0.770116,10.494979,-0.181048,0.501254,1,0,,38.990700,-76.937712,10.904000,,,
2026-09-11T16:21:35.467,9.121881,1.765820,11.804187,16.350185,0.000000,-6.097213,2.097665,1.764637,0.034136,0.071865,0.975006,7.474168,8.740432,-0.078653,-0.038746,0.073349,1.587402,0.549467,11.777983,-0.085552,0.517626,1,0,,38.990700,-76.937712,10.904000,,,
2026-09-11T16:21:35.499,9.155307,1.775701,11.863402,16.441678,0.000000,-6.121245,2.105933,1.774502,0.012596,0.026518,0.976650,7.506674,8.789856,-0.079048,-0.019842,0.028002,1.422160,0.906331,6.720693,-0.003034,0.562082,1,0,,38.990700,-76.937712,10.904000,,,
2026-09-11T16:21:35.532,9.188710,1.766339,11.921506,16.354990,0.000000,-6.077987,2.091050,1.765163,0.023637,0.049763,0.977924,7.539235,8.839202,-0.015691,-0.024346,0.051246,0.762761,-4.001996,8.637207,0.035845,0.285911,1,0,,38.990700,-76.937712,10.904000,,,
2026-09-11T16:21:35.566,9.222115,1.785978,11.981536,16.536834,0.000000,-6.184417,2.127666,1.784747,0.031121,0.065519,0.979850,7.571557,8.888917,0.027545,-0.025878,0.067002,0.467287,-1.619470,10.724258,0.053894,0.165018,1,0,,38.990700,-76.937712,10.904000,,,
2026-09-11T16:21:35.600,9.255521,1.786655,12.041047,16.543102,0.000000,-6.360198,2.188141,1.785352,0.032700,0.068842,0.982094,7.603840,8.939067,0.072703,-0.057009,0.070325,-0.815815,-1.558375,11.615291,-0.012576,0.049024,1,0,,38.990700,-76.937712,10.904000,,,
2026-09-11T16:21:35.633,9.288937,1.748334,12.100029,16.188278,0.000000,-6.218749,2.139478,1.747115,0.033487,0.070499,0.984422,7.635635,8.988801,0.117391,0.114685,0.071982,0.290375,2.566695,6.468368,-0.005499,0.201147,1,0,,38.990700,-76.937712,10.904000,,,
2026-09-11T16:21:35.666,9.322442,1.758917,12.158896,16.286271,0.000000,-6.102706,2.099555,1.757736,0.032523,0.068469,0.986750,7.667146,9.038357,0.036738,0.010947,0.069953,-2.085384,-1.534152,3.635521,-0.153247,0.086148,1,0,,38.990700,-76.937712,10.904000,,,
2026-09-11T16:21:35.699,9.355846,1.749280,12.217314,16.197036,0.000000,-6.048461,2.080892,1.748126,0.017022,0.035836,0.988492,7.698701,9.087690,0.035696,0.097049,0.037320,-1.708907,1.802070,10.042500,-0.275137,0.192274,1,0,,38.990700,-76.937712,10.904000,,,
2026-09-11T16:21:35.732,9.389251,1.769082,12.276671,16.380385,0.000000,-5.698958,1.960651,1.768046,0.019091,0.040191,0.989762,7.730463,9.137092,0.005689,-0.024555,0.041674,-0.431689,0.401288,8.926013,-0.312432,0.206083,1,0,,38.990700,-76.937712,10.904000,,,
2026-09-11T16:21:35.767,9.422664,1.740262,12.335259,16.113537,0.000000,-5.260192,1.809699,1.739394,0.015445,0.032515,0.990977,7.762114,9.186409,0.041651,-0.037703,0.033998,0.853767,0.079630,9.026335,-0.266186,0.199871,1,0,,38.990700,-76.937712,10.904000,,,
2026-09-11T16:21:35.801,9.456082,1.749921,12.393910,16.202974,0.000000,-4.355880,1.498582,1.749323,0.012115,0.025506,0.991946,7.793642,9.235442,0.078543,0.052812,0.026989,0.949284,3.326318,8.586801,-0.212421,0.404577,1,0,,38.990700,-76.937712,10.904000,,,
2026-09-11T16:21:35.833,9.489490,1.740456,12.452465,16.115332,0.000000,-1.999999,0.688073,1.740330,0.003230,0.006800,0.992486,7.825304,9.284386,0.010761,-0.060215,0.008284,-0.844255,0.828760,9.875493,-0.273427,0.447519,1,0,,38.990700,-76.937712,10.904000,,,
2026-09-11T16:21:35.866,9.522890,1.740893,12.509965,16.119381,0.000000,0.502137,-0.172754,1.740885,-0.014248,-0.029996,0.992099,7.857244,9.332961,-0.072613,-0.041787,-0.028512,0.512299,-0.642434,9.462241,-0.244701,0.398974,1,0,,38.990700,-76.937712,10.904000,,,
2026-09-11T16:21:35.900,9.556289,1.721818,12.567596,15.942757,0.000000,4.473008,-1.538879,1.721197,-0.031722,-0.066784,0.990482,7.889547,9.380918,-0.036625,0.036927,-0.065300,-0.167498,0.457284,8.100587,-0.261465,0.426144,1,0,,38.990700,-76.937712,10.904000,,,
2026-09-11T16:21:35.935,9.589686,1.732021,12.625512,16.037234,0.000000,6.681947,-2.298835,1.730627,-0.040341,-0.084929,0.987949,7.922217,9.428420,-0.102681,0.002971,-0.083446,0.741089,0.659988,9.271403,-0.221750,0.468190,1,0,,38.990700,-76.937712,10.904000,,,
2026-09-11T16:21:35.967,9.623098,1.722498,12.683993,15.949059,0.000000,7.096681,-2.441519,1.720935,-0.043619,-0.091830,0.984996,7.955195,9.475742,-0.082069,-0.001697,-0.090347,-0.386970,0.032656,9.297685,-0.257941,0.469919,1,0,,38.990700,-76.937712,10.904000,,,
2026-09-11T16:21:36.000,9.656499,1.742443,12.741322,16.133728,0.000000,7.047929,-2.424746,1.740883,-0.048492,-0.102089,0.981758,7.988517,9.523011,-0.110458,0.014623,-0.100605,1.110701,-2.574638,9.535202,-0.201850,0.304281,1,0,,38.990700,-76.937712,10.904000,,,
2026-09-11T16:21:36.033,9.689900,1.723538,12.798697,15.958682,0.000000,6.942186,-2.388367,1.722040,-0.043611,-0.091813,0.978519,8.022002,9.570189,-0.035920,0.004254,-0.090329,-0.678522,1.606035,8.518645,-0.269635,0.409584,1,0,,38.990700,-76.937712,10.904000,,,
2026-09-11T16:21:36.067,9.723302,1.724100,12.855981,15.963887,0.000000,6.908540,-2.376791,1.722617,-0.051628,-0.108690,0.975171,8.055516,9.616976,-0.106934,0.021039,-0.107206,0.630862,0.495726,11.035423,-0.261345,0.443800,1,0,,38.990700,-76.937712,10.904000,,,
2026-09-11T16:21:36.101,9.756706,1.714735,12.912929,15.877180,0.000000,7.080201,-2.435849,1.713186,-0.036476,-0.076791,0.972073,8.089000,9.663601,-0.045942,-0.015405,-0.075308,0.365592,4.455357,6.197411,-0.279640,0.730157,1,1,9.736237,38.990693,-76.937695,10.870000,9.868838,-7.026407,5.109844
2026-09-11T16:21:36.134,9.790120,1.666494,12.968635,15.430502,0.000000,7.350740,-2.528924,1.664871,-0.036274,-0.076367,0.969514,8.121869,9.709495,-0.053439,-0.018477,-0.074884,-0.976350,3.675631,6.563983,-0.394610,0.962717,1,0,,38.990693,-76.937695,10.870000,,,
2026-09-11T16:21:36.167,9.823536,1.705747,13.025953,15.793953,0.000000,7.046556,-2.424274,1.704220,-0.049686,-0.104601,0.966490,8.154967,9.755050,-0.090708,0.040730,-0.103118,-2.068615,-1.955642,14.429407,-0.587253,0.831604,1,0,,38.990693,-76.937695,10.870000,,,
2026-09-11T16:21:36.200,9.856937,1.705691,13.082359,15.793439,0.000000,7.108354,-2.445535,1.704138,-0.053741,-0.113140,0.962854,8.188813,9.800846,-0.106729,0.018965,-0.111656,-0.931436,-0.592812,7.327725,-0.710473,0.791102,1,0,,38.990693,-76.937695,10.870000,,,
2026-09-11T16:21:36.234,9.890339,1.754675,13.140993,16.246989,0.000000,7.015657,-2.413643,1.753118,-0.054381,-0.114486,0.959052,8.223365,9.847143,-0.042605,0.034418,-0.113002,0.827093,0.886521,9.539027,-0.722402,0.847248,1,0,,38.990693,-76.937695,10.870000,,,
2026-09-11T16:21:36.268,9.923750,1.774461,13.200385,16.430191,0.000000,6.812410,-2.343719,1.772976,-0.053473,-0.112575,0.955259,8.258758,9.894263,0.021476,0.078566,-0.111091,1.748820,2.514033,9.074191,-0.674590,1.008023,1,0,,38.990693,-76.937695,10.870000,,,
2026-09-11T16:21:36.302,9.957161,1.852478,13.262551,17.152574,0.000000,6.867341,-2.362617,1.850903,-0.042354,-0.089166,0.951889,8.295104,9.942705,0.019691,-0.010253,-0.087683,1.477666,0.181717,11.224300,-0.641671,1.013872,1,0,,38.990693,-76.937695,10.870000,,,
2026-09-11T16:21:36.334,9.990565,1.920816,13.326539,17.785332,0.000000,6.999177,-2.407974,1.919120,-0.052392,-0.110299,0.948558,8.333009,9.993010,0.008296,0.014096,-0.108815,1.393623,2.303582,10.996197,-0.610758,1.159949,1,0,,38.990693,-76.937695,10.870000,,,
2026-09-11T16:21:36.367,10.023966,1.989171,13.393114,18.418252,0.000000,7.508668,-2.583257,1.987150,-0.055898,-0.117680,0.944750,8.372601,10.044888,-0.051041,-0.071091,-0.116196,1.386072,-1.615155,8.258474,-0.581946,1.052325,1,0,,38.990693,-76.937695,10.870000,,,
2026-09-11T16:21:36.402,10.057369,2.057755,13.462195,19.053285,0.000000,7.591752,-2.611841,2.055617,-0.053108,-0.111807,0.940918,8.413744,10.098456,-0.046133,-0.025694,-0.110323,2.984752,0.152101,12.617040,-0.448790,1.059957,1,0,,38.990693,-76.937695,10.870000,,,
2026-09-11T16:21:36.436,10.090782,2.106707,13.532598,19.506545,0.000000,7.148866,-2.459472,2.104766,-0.056487,-0.118920,0.937063,8.456273,10.153462,0.001197,-0.061689,-0.117436,1.406470,-0.356766,9.149310,-0.414801,1.035902,1,0,,38.990693,-76.937695,10.870000,,,
2026-09-11T16:21:36.468,10.124199,2.155696,13.604625,19.960152,0.000000,7.108354,-2.445535,2.153733,-0.050839,-0.107030,0.933288,8.499960,10.209654,0.054805,-0.033918,-0.105546,-0.888384,0.294886,7.855715,-0.524100,1.053004,1,0,,38.990693,-76.937695,10.870000,,,
2026-09-11T16:21:36.501,10.157600,2.175498,13.676503,20.143501,0.000000,6.049546,-2.081266,2.174063,-0.037016,-0.077929,0.930199,8.544246,10.266792,0.029442,-0.066978,-0.076446,0.205155,-0.567707,11.760625,-0.553298,1.010157,1,0,,38.990693,-76.937695,10.870000,,,
2026-09-11T16:21:36.534,10.191004,2.156156,13.748039,19.964405,0.000000,4.895982,-1.684397,2.155224,-0.019223,-0.040470,0.928221,8.588272,10.324159,0.049156,-0.006841,-0.038986,0.015495,-0.791593,8.581898,-0.584427,0.947980,1,0,,38.990693,-76.937695,10.870000,,,
2026-09-11T16:21:36.569,10.224405,2.107483,13.818750,19.513730,0.000000,5.109529,-1.757865,2.106491,-0.016372,-0.034468,0.926970,8.631434,10.380754,0.069741,0.004126,-0.032985,-0.102578,-2.667017,10.788590,-0.612216,0.764244,1,0,,38.990693,-76.937695,10.870000,,,
2026-09-11T16:21:36.602,10.257817,2.088291,13.889096,19.336028,0.000000,5.042924,-1.734951,2.087334,-0.017694,-0.037250,0.925772,8.673978,10.436424,0.003318,-0.032551,-0.035767,-0.957717,-0.968505,8.886296,-0.684403,0.692722,1,0,,38.990693,-76.937695,10.870000,,,
2026-09-11T16:21:36.635,10.291229,2.069386,13.957778,19.160981,0.000000,5.241365,-1.803222,2.068361,-0.020233,-0.042595,0.924438,8.716261,10.491491,0.027349,0.027286,-0.041112,-0.138568,-0.050897,9.507057,-0.693390,0.682033,1,0,,38.990693,-76.937695,10.870000,,,
2026-09-11T16:21:36.668,10.324632,2.060018,14.025937,19.074238,0.000000,5.118455,-1.760936,2.059045,-0.009663,-0.020343,0.923387,8.758206,10.546197,0.031415,0.040161,-0.018860,-0.634392,-1.403234,9.914327,-0.726819,0.581004,1,0,,38.990693,-76.937695,10.870000,,,
2026-09-11T16:21:36.701,10.358033,2.040857,14.094357,18.896826,0.000000,5.101976,-1.755267,2.039900,-0.020806,-0.043801,0.922315,8.799927,10.600471,0.099059,0.033629,-0.042318,-1.257801,2.309466,12.632534,-0.793336,0.724303,1,0,,38.990693,-76.937695,10.870000,,,
2026-09-11T16:21:36.736,10.391438,2.022332,14.161166,18.725297,0.000000,5.109529,-1.757865,2.021380,-0.022248,-0.046838,0.920801,8.841511,10.654069,0.021255,-0.020763,-0.045354,-0.032166,1.750683,11.371105,-0.776611,0.830235,1,0,,38.990693,-76.937695,10.870000,,,
2026-09-11T16:21:36.769,10.424854,1.984059,14.228339,18.370916,0.000000,5.570954,-1.916613,1.982949,-0.022431,-0.047223,0.919230,8.882634,10.706845,0.014100,0.030570,-0.045739,-1.010771,-0.362650,9.467536,-0.824499,0.798207,1,0,,38.990693,-76.937695,10.870000,,,
2026-09-11T16:21:36.802,10.458265,1.965324,14.294458,18.197446,0.000000,6.123704,-2.106779,1.963996,-0.029192,-0.061457,0.917414,8.923353,10.758714,-0.027225,-0.012187,-0.059973,-0.678718,-1.484138,13.728722,-0.856035,0.695726,1,0,,38.990693,-76.937695,10.870000,,,
2026-09-11T16:21:36.835,10.491669,1.965779,14.359751,18.201662,0.000000,6.221208,-2.140324,1.964408,-0.044928,-0.094586,0.914808,8.964287,10.810006,-0.065880,-0.010046,-0.093102,-0.356668,-1.135316,12.459545,-0.871448,0.621182,1,0,,38.990693,-76.937695,10.870000,,,
2026-09-11T16:21:36.869,10.525070,1.936871,14.424110,17.933990,0.000000,5.960969,-2.050792,1.935630,-0.039187,-0.082499,0.911851,9.005202,10.860704,0.042118,0.037614,-0.081015,0.868869,3.288072,12.086794,-0.810599,0.831888,1,0,,38.990693,-76.937695,10.870000,,,
2026-09-11T16:21:36.903,10.558487,1.956220,14.489637,18.113145,0.000000,5.275010,-1.814797,1.955238,-0.029935,-0.063021,0.909419,9.045982,10.911347,-0.104489,-0.329757,-0.061538,1.979570,0.492196,19.198675,-0.681681,0.857074,1,0,,38.990693,-76.937695,10.870000,,,
2026-09-11T16:21:36.937,10.591905,1.937051,14.554166,17.935661,0.000000,3.225373,-1.109647,1.936688,-0.008029,-0.016903,0.908084,9.086458,10.962248,0.031347,0.000070,-0.015420,4.420151,1.544744,16.397209,-0.400634,0.944244,1,0,,38.990693,-76.937695,10.870000,,,
2026-09-11T16:21:36.969,10.625309,1.947202,14.618571,18.029645,0.000000,-1.796065,0.617912,1.947088,-0.001116,-0.002350,0.907762,9.126496,11.013284,0.001807,0.057156,-0.000866,2.018895,3.803607,12.072281,-0.281189,1.174737,1,0,,38.990693,-76.937695,10.870000,,,
2026-09-11T16:21:37.002,10.658715,1.957206,14.683727,18.122274,0.000000,-6.524993,2.244837,1.955704,0.024770,0.052148,0.908594,9.166288,11.064921,-0.006418,0.004207,0.053631,-0.361277,-0.100322,9.181476,-0.317593,1.143213,1,0,,38.990693,-76.937695,10.870000,,,
2026-09-11T16:21:37.036,10.692134,1.967195,14.750046,18.214772,0.000000,-6.121245,2.105933,1.965867,0.027117,0.057088,0.910419,9.205846,11.117167,0.056336,0.033912,0.058572,0.072471,2.909535,10.554996,-0.326789,1.306187,1,0,,38.990693,-76.937695,10.870000,,,
2026-09-11T16:21:37.069,10.725534,1.977292,14.815305,18.308260,0.000000,-6.155578,2.117745,1.975942,0.022225,0.046790,0.912154,9.245529,11.169696,0.004736,0.016007,0.048273,0.570453,0.062763,11.515165,-0.304927,1.284378,1,1,10.714230,38.990684,-76.937676,10.787000,11.433581,-8.031054,5.109996
2026-09-11T16:21:37.102,10.758939,1.977730,14.881242,18.312312,0.000000,-5.880233,2.023016,1.976497,0.028000,0.058947,0.913920,9.285224,11.222451,0.010622,-0.044753,0.060430,1.613194,1.100208,8.405574,-0.219581,1.328380,1,0,,38.990684,-76.937676,10.787000,,,
2026-09-11T16:21:37.136,10.792343,1.988115,14.948005,18.408471,0.000000,-5.943404,2.044749,1.986849,0.025140,0.052927,0.915789,9.324894,11.275451,-0.034473,0.005302,0.054410,0.193976,-1.911316,5.698939,-0.226377,1.177774,1,0,,38.990684,-76.937676,10.787000,,,
2026-09-11T16:21:37.170,10.825752,1.998363,15.016117,18.503357,0.000000,-6.129485,2.108768,1.997009,0.024755,0.052115,0.917543,9.364725,11.328770,0.096344,-0.041329,0.053599,-0.674796,2.091366,7.043430,-0.284318,1.287903,1,0,,38.990684,-76.937676,10.787000,,,
2026-09-11T16:21:37.203,10.859177,2.027697,15.083940,18.774971,0.000000,-6.340285,2.181291,2.026228,0.017275,0.036368,0.919022,9.404992,11.382621,0.109250,-0.035725,0.037851,-1.532877,1.017734,9.532554,-0.395922,1.329324,1,0,,38.990684,-76.937676,10.787000,,,
2026-09-11T16:21:37.236,10.892581,2.008434,15.149928,18.596608,0.000000,-6.514693,2.241294,2.006897,0.025594,0.053883,0.920529,9.445244,11.436638,0.107789,-0.063232,0.055366,-0.644003,5.074353,9.423210,-0.448826,1.630543,1,0,,38.990684,-76.937676,10.787000,,,
2026-09-11T16:21:37.269,10.925981,1.979620,15.215831,18.329815,0.000000,-6.958953,2.394135,1.977892,0.039962,0.084130,0.922834,9.484598,11.490312,0.059106,0.243635,0.085613,-1.951818,-1.576027,-5.447202,-0.584564,1.494315,1,0,,38.990684,-76.937676,10.787000,,,
2026-09-11T16:21:37.304,10.959385,1.970552,15.281568,18.245856,0.000000,-6.824370,2.347834,1.968898,0.012809,0.026967,0.924690,9.523633,11.543438,0.056572,0.384637,0.028450,1.852574,10.956186,1.849926,-0.469583,2.178041,1,0,,38.990684,-76.937676,10.787000,,,
2026-09-11T16:21:37.337,10.992802,1.980382,15.348570,18.336869,0.000000,-6.517440,2.242238,1.978866,0.033350,0.070210,0.926313,9.562687,11.596599,-0.002104,0.086352,0.071693,0.537699,6.852691,3.515586,-0.437081,2.583367,1,0,,38.990684,-76.937676,10.787000,,,
2026-09-11T16:21:37.371,11.026211,1.999960,15.415794,18.518152,0.000000,-6.682235,2.298934,1.998351,0.036094,0.075986,0.928756,9.601608,11.650455,0.072736,0.237697,0.077470,0.836017,-1.618882,8.166292,-0.383076,2.434616,1,0,,38.990684,-76.937676,10.787000,,,
2026-09-11T16:21:37.407,11.059619,1.961598,15.482158,18.162947,0.000000,-6.284667,2.162156,1.960202,0.025596,0.053885,0.930925,9.640322,11.704070,-0.028743,0.060885,0.055369,-2.617395,-0.077473,4.661885,-0.551184,2.390348,1,0,,38.990684,-76.937676,10.787000,,,
2026-09-11T16:21:37.438,11.093027,1.923178,15.546512,17.807207,0.000000,-5.529357,1.902302,1.922118,0.018366,0.038665,0.932471,9.678415,11.756559,-0.081787,-0.275767,0.040148,-3.752220,-1.672132,6.256447,-0.785213,2.245336,1,0,,38.990684,-76.937676,10.787000,,,
2026-09-11T16:21:37.471,11.126430,1.933519,15.610090,17.902952,0.000000,-5.285598,1.818440,1.932545,0.004576,0.009633,0.933277,9.716446,11.808505,0.095319,-0.068877,0.011117,-0.249873,1.024305,14.963967,-0.787006,2.280144,1,0,,38.990684,-76.937676,10.787000,,,
2026-09-11T16:21:37.505,11.159850,1.943679,15.675503,17.997028,0.000000,-5.152388,1.772611,1.942749,0.012222,0.025730,0.933868,9.754748,11.860719,0.049031,0.061567,0.027214,-0.291258,-1.003711,7.180625,-0.793368,2.181185,1,0,,38.990684,-76.937676,10.787000,,,
2026-09-11T16:21:37.537,11.193268,1.934406,15.740585,17.911164,0.000000,-5.328856,1.833322,1.933416,-0.001350,-0.002843,0.934251,9.793111,11.912904,0.096464,0.145339,-0.001359,-1.765883,2.463332,8.927386,-0.894419,2.311492,1,0,,38.990684,-76.937676,10.787000,,,
2026-09-11T16:21:37.570,11.226670,1.915299,15.804671,17.734250,0.000000,-5.903579,2.031048,1.914096,0.026804,0.056429,0.935146,9.830943,11.964846,0.041143,-0.054939,0.057913,-2.877860,3.470770,10.815264,-1.066188,2.498194,1,0,,38.990684,-76.937676,10.787000,,,
2026-09-11T16:21:37.604,11.260072,1.885880,15.867714,17.461849,0.000000,-5.854827,2.014275,1.884714,0.022704,0.047798,0.936886,9.867899,12.016420,0.017652,0.193181,0.049281,-0.230358,-0.867692,8.519625,-1.066120,2.403068,1,0,,38.990684,-76.937676,10.787000,,,
2026-09-11T16:21:37.637,11.293470,1.886255,15.930278,17.465328,0.000000,-5.635787,1.938918,1.885176,0.014588,0.030713,0.938198,9.904651,12.067537,-0.133495,0.028770,0.032196,-0.154847,-1.161598,8.879039,-1.064291,2.292067,1,0,,38.990684,-76.937676,10.787000,,,
2026-09-11T16:21:37.672,11.326884,1.876964,15.993817,17.379301,0.000000,-5.635787,1.938918,1.875890,0.016018,0.033722,0.939274,9.941363,12.118536,-0.188801,0.059653,0.035205,-1.105504,2.129612,11.056410,-1.130221,2.395070,1,0,,38.990684,-76.937676,10.787000,,,
2026-09-11T16:21:37.704,11.360298,1.838541,16.055373,17.023526,0.000000,-5.297957,1.822692,1.837611,-0.010425,-0.021948,0.939471,9.977911,12.168670,-0.215338,0.110646,-0.020464,0.152493,-2.692906,6.353729,-1.116496,2.191295,1,0,,38.990684,-76.937676,10.787000,,,
2026-09-11T16:21:37.737,11.393701,1.838893,16.116126,17.026788,0.000000,-5.552016,1.910097,1.837871,0.019545,0.041148,0.939791,10.014010,12.218319,-0.063750,-0.247589,0.042632,-1.300656,-1.998007,8.563461,-1.198086,2.027355,1,0,,38.990684,-76.937676,10.787000,,,
2026-09-11T16:21:37.770,11.427102,1.819829,16.176532,16.850272,0.000000,-5.650893,1.944115,1.818782,0.012509,0.026335,0.940918,10.049578,12.267963,-0.028275,-0.057978,0.027819,-3.556774,-0.144942,7.186117,-1.428393,1.986989,1,0,,38.990684,-76.937676,10.787000,,,
2026-09-11T16:21:37.804,11.460502,1.790911,16.236351,16.582510,0.000000,-5.837661,2.008370,1.789811,0.031972,0.067309,0.942482,10.084437,12.317126,-0.046365,0.033085,0.068792,-1.386955,-4.278936,7.352046,-1.518975,1.674841,1,0,,38.990684,-76.937676,10.787000,,,
2026-09-11T16:21:37.839,11.493910,1.820689,16.298317,16.858229,0.000000,-6.207076,2.135462,1.819424,0.033680,0.070906,0.944791,10.118929,12.366587,0.083385,0.025810,0.072390,0.509652,3.183043,12.062180,-1.488467,1.848549,1,0,,38.990684,-76.937676,10.787000,,,
2026-09-11T16:21:37.871,11.527323,1.840592,16.359662,17.042514,0.000000,-6.482421,2.230191,1.839197,0.039858,0.083912,0.947378,10.153680,12.416884,0.064942,-0.039185,0.085395,0.532305,-3.609730,12.439442,-1.457464,1.578967,1,0,,38.990684,-76.937676,10.787000,,,
2026-09-11T16:21:37.904,11.560725,1.850572,16.421105,17.134924,0.000000,-6.693221,2.302714,1.849077,0.027563,0.058028,0.949748,10.188668,12.467593,0.148402,0.120483,0.059512,-3.631304,2.717227,19.745102,-1.696054,1.724950,1,0,,38.990684,-76.937676,10.787000,,,
2026-09-11T16:21:37.937,11.594127,1.861015,16.483470,17.231617,0.000000,-6.597777,2.269877,1.859554,0.020622,0.043414,0.951442,10.224011,12.518464,-0.001540,-0.057757,0.044898,-2.011834,-0.360983,5.231063,-1.831032,1.671833,1,0,,38.990684,-76.937676,10.787000,,,
2026-09-11T16:21:37.971,11.627530,1.861017,16.545579,17.231637,0.000000,-6.606704,2.272949,1.859553,0.023951,0.050423,0.953009,10.259423,12.569501,-0.044151,-0.061346,0.051907,1.024599,2.377328,10.146353,-1.769431,1.795679,1,0,,38.990684,-76.937676,10.787000,,,
2026-09-11T16:21:38.006,11.660932,1.899908,16.609288,17.591737,0.000000,-6.343718,2.182472,1.898529,0.025036,0.052708,0.954732,10.295066,12.621168,0.027090,-0.052752,0.054192,1.278689,2.123042,7.297030,-1.690246,1.901293,1,0,,38.990684,-76.937676,10.787000,,,
2026-09-11T16:21:38.039,11.694357,1.919693,16.674131,17.774938,0.000000,-6.611510,2.274602,1.918181,0.037370,0.078675,0.956928,10.331014,12.673871,0.050585,-0.031368,0.080158,-0.128369,2.026937,10.159003,-1.705482,1.996299,1,0,,38.990684,-76.937676,10.787000,,,
2026-09-11T16:21:38.071,11.727763,1.920174,16.737778,17.779390,0.000000,-6.667815,2.293973,1.918635,0.028707,0.060436,0.959251,10.366966,12.726933,-0.050953,0.024108,0.061920,-0.596342,-1.241522,9.818614,-1.752081,1.880884,1,1,11.708959,38.990675,-76.937658,10.739000,13.022522,-9.005306,4.216412
2026-09-11T16:21:38.105,11.761161,1.910709,16.801026,17.691749,0.000000,-6.657515,2.290430,1.909182,0.059561,0.125391,0.962354,10.402375,12.780170,-0.048039,-0.011063,0.126874,-0.307635,-2.898846,5.391892,-1.776957,1.651550,1,0,,38.990675,-76.937658,10.739000,,,
2026-09-11T16:21:38.138,11.794568,1.901192,16.864155,17.603628,0.000000,-6.831923,2.350432,1.899592,0.034628,0.072902,0.965666,10.437362,12.833330,-0.006258,-0.043922,0.074385,-0.910646,1.947012,9.366626,-1.838057,1.744885,1,0,,38.990675,-76.937658,10.739000,,,
2026-09-11T16:21:38.171,11.827971,1.901645,16.927785,17.607825,0.000000,-6.623870,2.278854,1.900141,0.036120,0.076043,0.968154,10.472426,12.886239,-0.041802,-0.019493,0.077526,-0.634588,-1.016165,9.920702,-1.878733,1.645018,1,0,,38.990675,-76.937658,10.739000,,,
2026-09-11T16:21:38.206,11.861372,1.911772,16.991335,17.701591,0.000000,-6.623870,2.278854,1.910260,0.034069,0.071724,0.970622,10.507464,12.939372,0.048308,-0.000213,0.073208,0.575356,0.948303,9.136562,-1.838185,1.673873,1,0,,38.990675,-76.937658,10.739000,,,
2026-09-11T16:21:38.239,11.894794,1.883389,17.054315,17.438786,0.000000,-6.588164,2.266570,1.881915,0.031966,0.067298,0.972945,10.542283,12.992331,0.022812,-0.032799,0.068781,-0.657242,1.523561,11.065726,-1.873449,1.740348,1,0,,38.990675,-76.937658,10.739000,,,
2026-09-11T16:21:38.271,11.928198,1.864403,17.116401,17.262988,0.000000,-6.417876,2.207985,1.863018,0.028406,0.059803,0.975068,10.576601,13.044634,0.075634,-0.017115,0.061287,0.317441,1.506890,9.174906,-1.843413,1.805963,1,0,,38.990675,-76.937658,10.739000,,,
2026-09-11T16:21:38.305,11.961600,1.874406,17.178595,17.355615,0.000000,-5.900145,2.029867,1.873230,0.015364,0.032344,0.976607,10.610968,13.096721,-0.008998,0.010102,0.033828,0.052269,-1.246916,10.434276,-1.830231,1.695917,1,0,,38.990675,-76.937658,10.739000,,,
2026-09-11T16:21:38.338,11.995008,1.884309,17.241348,17.447309,0.000000,-5.247832,1.805447,1.883374,0.010871,0.022887,0.977529,10.645711,13.148977,0.021131,-0.003789,0.024370,1.227498,-1.005672,10.995412,-1.741183,1.603823,1,0,,38.990675,-76.937658,10.739000,,,
2026-09-11T16:21:38.373,12.028428,1.884329,17.304898,17.447492,0.000000,-5.129729,1.764815,1.883435,0.011398,0.023996,0.978313,10.680572,13.201387,0.028931,0.001841,0.025479,0.395208,0.530344,9.695541,-1.708211,1.612034,1,0,,38.990675,-76.937658,10.739000,,,
2026-09-11T16:21:38.406,12.061838,1.875046,17.367439,17.361534,0.000000,-5.143462,1.769540,1.874151,0.012122,0.025521,0.979140,10.715277,13.253692,0.009235,0.005818,0.027004,0.680189,2.372229,11.490354,-1.655928,1.739205,1,0,,38.990675,-76.937658,10.739000,,,
2026-09-11T16:21:38.439,12.095259,1.875511,17.429958,17.365839,0.000000,-5.384475,1.852457,1.874530,0.015771,0.033202,0.980121,10.749802,13.305963,0.048066,0.007542,0.034685,0.933985,2.363599,12.312740,-1.586530,1.863527,1,0,,38.990675,-76.937658,10.739000,,,
2026-09-11T16:21:38.472,12.128663,1.846511,17.491760,17.097325,0.000000,-5.657073,1.946241,1.845446,0.014336,0.030182,0.981180,10.783959,13.357864,-0.069740,0.003035,0.031666,-0.349705,1.207983,6.550352,-1.602173,1.912041,1,0,,38.990675,-76.937658,10.739000,,,
2026-09-11T16:21:38.506,12.162062,1.847008,17.554005,17.101927,0.000000,-5.859633,2.015929,1.845865,0.019473,0.040996,0.982369,10.817736,13.409434,-0.040661,0.264313,0.042480,-2.385370,0.142294,-2.459606,-1.750484,1.889748,1,0,,38.990675,-76.937658,10.739000,,,
2026-09-11T16:21:38.540,12.195486,1.876574,17.617185,17.375683,0.000000,-6.091720,2.095775,1.875318,0.022138,0.046607,0.983833,10.851636,13.461573,-0.030575,-0.039409,0.048091,-1.663208,2.238074,9.128716,-1.850509,2.002665,1,0,,38.990675,-76.937658,10.739000,,,
2026-09-11T16:21:38.574,12.228908,1.857637,17.679180,17.200346,0.000000,-6.508513,2.239167,1.856219,0.035481,0.074697,0.985860,10.885318,13.514062,0.024871,-0.039332,0.076180,-1.292909,2.843536,7.515424,-1.921694,2.150238,1,0,,38.990675,-76.937658,10.739000,,,
2026-09-11T16:21:38.606,12.262318,1.867908,17.742200,17.295446,0.000000,-6.799651,2.339329,1.866351,0.034978,0.073638,0.988338,10.918607,13.566600,0.126748,-0.006956,0.075121,-0.206724,2.021053,11.884875,-1.918075,2.242953,1,0,,38.990675,-76.937658,10.739000,,,
2026-09-11T16:21:38.639,12.295728,1.858746,17.803255,17.210608,0.000000,-7.502776,2.581230,1.856860,0.043077,0.090689,0.991083,10.951658,13.619303,0.081123,0.061814,0.092173,-1.200726,-0.035892,10.277467,-1.979447,2.199441,1,0,,38.990675,-76.937658,10.739000,,,
2026-09-11T16:21:38.672,12.329132,1.839759,17.864583,17.034810,0.000000,-7.537108,2.593042,1.837876,0.044273,0.093206,0.994154,10.984161,13.671780,0.061185,0.015645,0.094689,-0.484252,0.050602,9.958261,-1.994418,2.161830,1,0,,38.990675,-76.937658,10.739000,,,
2026-09-11T16:21:38.706,12.362531,1.849825,17.926362,17.128006,0.000000,-7.238418,2.490281,1.848078,0.039424,0.082998,0.997097,11.016472,13.724190,-0.010963,-0.029737,0.084482,-0.263505,-1.388229,11.793674,-1.997492,2.032671,1,0,,38.990675,-76.937658,10.739000,,,
2026-09-11T16:21:38.741,12.395952,1.840046,17.988351,17.037467,0.000000,-6.608764,2.273657,1.838598,0.028462,0.059921,0.999485,11.048893,13.776587,0.017393,-0.026846,0.061404,-0.145040,3.026038,11.955876,-1.996047,2.193572,1,0,,38.990675,-76.937658,10.739000,,,
2026-09-11T16:21:38.773,12.429373,1.820746,18.049001,16.858756,0.000000,-6.045028,2.079711,1.819546,0.020886,0.043970,1.001221,11.081210,13.828482,0.050086,0.031293,0.045454,-0.216531,1.108151,8.547672,-1.999258,2.230425,1,0,,38.990675,-76.937658,10.739000,,,
2026-09-11T16:21:38.806,12.462783,1.830832,18.110415,16.952152,0.000000,-6.075240,2.090106,1.829614,0.015267,0.032142,1.002492,11.113541,13.880164,-0.038483,0.003390,0.033625,0.251835,-0.068843,11.850846,-1.971511,2.192014,1,0,,38.990675,-76.937658,10.739000,,,
2026-09-11T16:21:38.839,12.496189,1.782870,18.169254,16.508053,0.000000,-6.401397,2.202315,1.781553,0.033185,0.069864,1.004196,11.145279,13.931462,0.157344,0.072327,0.071347,-1.968979,5.291963,8.854032,-2.087665,2.496916,1,0,,38.990675,-76.937658,10.739000,,,
2026-09-11T16:21:38.873,12.529593,1.783343,18.228686,16.512432,0.000000,-6.370498,2.191685,1.782038,0.021060,0.044338,1.006104,11.176414,13.982196,0.040584,0.081528,0.045821,1.524542,1.522482,8.387039,-1.977166,2.557298,1,0,,38.990675,-76.937658,10.739000,,,
2026-09-11T16:21:38.908,12.563000,1.783817,18.288710,16.516828,0.000000,-6.441222,2.216017,1.782483,0.018910,0.039811,1.007509,11.207678,14.032873,-0.159620,0.022928,0.041295,-2.984654,-3.443997,9.969539,-2.161393,2.295893,1,0,,38.990675,-76.937658,10.739000,,,
2026-09-11T16:21:38.940,12.596422,1.784235,18.348528,16.520695,0.000000,-6.542846,2.250979,1.782858,0.044488,0.093659,1.009740,11.238539,14.083847,-0.050764,-0.016417,0.095143,-0.137685,-2.365168,8.160212,-2.160056,2.100987,1,0,,38.990675,-76.937658,10.739000,,,
2026-09-11T16:21:38.973,12.629826,1.794522,18.407624,16.615943,0.000000,-6.338912,2.180818,1.793222,0.023385,0.049232,1.012126,11.269298,14.135059,-0.065928,0.104080,0.050715,-1.929262,-3.074777,11.954699,-2.273368,1.867531,1,0,,38.990675,-76.937658,10.739000,,,
2026-09-11T16:21:39.006,12.663226,1.804761,18.467984,16.710753,0.000000,-6.560012,2.256885,1.803361,0.025215,0.053085,1.013835,11.300403,14.186447,-0.040127,-0.018662,0.054568,0.272821,-0.419528,6.433261,-2.243645,1.808075,1,0,,38.990675,-76.937658,10.739000,,,
2026-09-11T16:21:39.041,12.696633,1.824712,18.528748,16.895478,0.000000,-6.446029,2.217670,1.823345,0.023894,0.050304,1.015562,11.331684,14.238331,0.030681,0.003100,0.051788,0.054819,1.210239,9.285819,-2.228978,1.855020,1,0,,38.990675,-76.937658,10.739000,,,
2026-09-11T16:21:39.074,12.730057,1.805474,18.589592,16.717353,0.000000,-6.663009,2.292319,1.804029,0.027490,0.057873,1.017370,11.362863,14.290326,0.022334,0.009693,0.059357,-0.444437,2.432638,7.955057,-2.249912,1.979822,1,0,,38.990675,-76.937658,10.739000,,,
2026-09-11T16:21:39.107,12.763457,1.815116,18.649719,16.806627,0.000000,-6.646529,2.286650,1.813670,0.036280,0.076380,1.019612,11.393653,14.342317,0.004011,0.042150,0.077863,0.989001,-0.372947,8.502954,-2.182286,1.919362,1,1,12.734997,38.990667,-76.937639,10.680000,14.655829,-9.828890,3.226955
2026-09-11T16:21:39.140,12.796864,1.815137,18.710295,16.806828,0.000000,-6.739913,2.318777,1.813651,0.025638,0.053974,1.021789,11.424446,14.394509,0.057267,0.036985,0.055458,-0.310577,-0.782080,10.406131,-2.198202,1.835707,1,0,,38.990667,-76.937639,10.680000,,,
2026-09-11T16:21:39.174,12.830266,1.815476,18.771196,16.809962,0.000000,-6.866256,2.362244,1.813933,0.026549,0.055893,1.023624,11.455270,14.446673,0.047432,0.001012,0.057376,0.480232,-0.127094,11.864576,-2.162169,1.795160,1,0,,38.990667,-76.937639,10.680000,,,
2026-09-11T16:21:39.208,12.863674,1.816030,18.831910,16.815093,0.000000,-6.821624,2.346889,1.814507,0.029791,0.062718,1.025605,11.485948,14.498954,0.067555,0.005105,0.064202,-0.181325,-1.127961,9.450375,-2.169287,1.689469,1,0,,38.990667,-76.937639,10.680000,,,
2026-09-11T16:21:39.241,12.897094,1.796921,18.892184,16.638161,0.000000,-6.739226,2.318541,1.795450,0.024823,0.052259,1.027526,11.516400,14.551032,0.075871,0.049875,0.053743,0.070314,0.282824,9.827931,-2.159364,1.677556,1,0,,38.990667,-76.937639,10.680000,,,
2026-09-11T16:21:39.274,12.930501,1.797204,18.951946,16.640780,0.000000,-6.396590,2.200662,1.795879,0.018145,0.038199,1.029037,11.546756,14.602777,-0.030985,-0.023027,0.039683,1.062551,1.801678,7.353713,-2.085959,1.765720,1,0,,38.990667,-76.937639,10.680000,,,
2026-09-11T16:21:39.307,12.963899,1.797487,19.011941,16.643399,0.000000,-6.200896,2.133336,1.796241,0.020361,0.042865,1.030391,11.577101,14.654525,-0.085687,-0.001741,0.044348,-0.165340,-0.233889,7.626926,-2.092789,1.720623,1,0,,38.990667,-76.937639,10.680000,,,
2026-09-11T16:21:39.341,12.997304,1.807647,19.072284,16.737475,0.000000,-6.085540,2.093649,1.806441,0.021626,0.045528,1.031868,11.607420,14.706508,-0.041483,-0.030080,0.047012,0.530344,2.690062,10.049855,-2.054615,1.864931,1,0,,38.990667,-76.937639,10.680000,,,
2026-09-11T16:21:39.375,13.030722,1.817889,19.133083,16.832303,0.000000,-6.139098,2.112075,1.816654,0.032617,0.068667,1.033776,11.637661,14.758959,-0.070789,-0.010102,0.070150,0.652535,-0.402857,8.515605,-2.008365,1.804672,1,0,,38.990667,-76.937639,10.680000,,,
2026-09-11T16:21:39.408,13.064132,1.789249,19.193209,16.567123,0.000000,-6.296340,2.166172,1.787971,0.022869,0.048145,1.035727,11.667619,14.811201,0.001010,0.063611,0.049628,0.730399,-0.752660,11.131529,-1.958230,1.724957,1,0,,38.990667,-76.937639,10.680000,,,
2026-09-11T16:21:39.441,13.097540,1.809164,19.253034,16.751517,0.000000,-6.549025,2.253105,1.807765,0.032010,0.067390,1.037657,11.697406,14.863365,0.056338,0.009791,0.068873,-0.452969,1.508949,11.948815,-1.987060,1.790208,1,0,,38.990667,-76.937639,10.680000,,,
2026-09-11T16:21:39.474,13.130944,1.799693,19.312967,16.663821,0.000000,-6.788665,2.335550,1.798198,0.039994,0.084199,1.040189,11.726914,14.915883,0.054140,-0.014678,0.085682,1.344198,-0.273311,11.171049,-1.899337,1.737462,1,0,,38.990667,-76.937639,10.680000,,,
2026-09-11T16:21:39.508,13.164343,1.819162,19.373845,16.844090,0.000000,-6.702147,2.305785,1.817689,0.029757,0.062646,1.042641,11.756401,14.968589,0.047800,-0.011502,0.064130,0.436396,1.428927,8.981813,-1.872580,1.797893,1,0,,38.990667,-76.937639,10.680000,,,
2026-09-11T16:21:39.542,13.197763,1.838866,19.435498,17.026540,0.000000,-6.741286,2.319250,1.837360,0.027917,0.058773,1.044670,11.786294,15.021859,0.057942,0.002439,0.060256,1.128942,-0.988805,12.127394,-1.801298,1.701519,1,0,,38.990667,-76.937639,10.680000,,,
2026-09-11T16:21:39.575,13.231186,1.819856,19.496473,16.850523,0.000000,-6.681548,2.298698,1.818392,0.031915,0.067189,1.046775,11.816053,15.075223,0.055001,-0.000534,0.068673,0.498178,-2.311329,8.961905,-1.769107,1.519660,1,0,,38.990667,-76.937639,10.680000,,,
2026-09-11T16:21:39.608,13.264592,1.830199,19.557266,16.946284,0.000000,-6.690474,2.301769,1.828722,0.027882,0.058699,1.048878,11.845614,15.128498,0.003294,0.008099,0.060182,-0.027851,1.445696,10.746716,-1.770031,1.584016,1,0,,38.990667,-76.937639,10.680000,,,
2026-09-11T16:21:39.641,13.297999,1.820466,19.617672,16.856170,0.000000,-6.634169,2.282398,1.819022,0.032119,0.067618,1.050987,11.875065,15.181846,-0.007000,-0.011647,0.069101,0.376477,1.017048,8.927974,-1.744741,1.618907,1,0,,38.990667,-76.937639,10.680000,,,
2026-09-11T16:21:39.676,13.331403,1.840206,19.679501,17.038949,0.000000,-6.695968,2.303659,1.838719,0.037492,0.078930,1.053435,11.904335,15.235482,-0.063640,0.014413,0.080413,-0.291552,-1.782751,6.500338,-1.761017,1.470793,1,0,,38.990667,-76.937639,10.680000,,,
2026-09-11T16:21:39.709,13.364810,1.850242,19.741240,17.131873,0.000000,-6.623870,2.278854,1.848779,0.026482,0.055751,1.055685,11.933809,15.289576,-0.090978,-0.121242,0.057234,-0.525440,1.464525,12.184959,-1.789740,1.537183,1,0,,38.990667,-76.937639,10.680000,,,
2026-09-11T16:21:39.742,13.398233,1.821721,19.802107,16.867789,0.000000,-6.704894,2.306730,1.820245,0.041350,0.087053,1.058071,11.962964,15.343527,-0.055462,-0.086282,0.088537,0.229966,-0.141902,9.293272,-1.768716,1.495273,1,0,,38.990667,-76.937639,10.680000,,,
2026-09-11T16:21:39.775,13.431637,1.851396,19.863583,17.142554,0.000000,-6.544906,2.251688,1.849966,0.030182,0.063540,1.060586,11.991926,15.397569,0.048994,-0.036402,0.065024,3.268851,1.845513,21.317598,-1.549579,1.585109,1,0,,38.990667,-76.937639,10.680000,,,
2026-09-11T16:21:39.808,13.465035,1.822604,19.923721,16.875961,0.000000,-6.646529,2.286650,1.821152,0.044770,0.094253,1.063221,12.020701,15.451714,0.042473,-0.054796,0.095737,1.687332,-0.042267,11.947834,-1.435209,1.548291,1,0,,38.990667,-76.937639,10.680000,,,
2026-09-11T16:21:39.843,13.498440,1.823173,19.984884,16.881236,0.000000,-6.842910,2.354212,1.821635,0.028054,0.059061,1.065782,12.049143,15.505514,0.062544,0.075154,0.060544,-0.723927,-0.096497,6.490237,-1.478677,1.512509,1,0,,38.990667,-76.937639,10.680000,,,
2026-09-11T16:21:39.877,13.531858,1.823267,20.046150,16.882099,0.000000,-6.824370,2.347834,1.821736,0.035123,0.073944,1.068004,12.077612,15.559334,0.175671,-0.032919,0.075427,2.936013,3.854406,21.314166,-1.283684,1.731142,1,0,,38.990667,-76.937639,10.680000,,,
2026-09-11T16:21:39.909,13.565267,1.803863,20.106208,16.702432,0.000000,-6.824370,2.347834,1.802348,0.037888,0.079763,1.070572,12.105647,15.613003,0.099708,0.169326,0.081247,2.457645,-2.143930,7.175526,-1.120665,1.558464,1,0,,38.990667,-76.937639,10.680000,,,
2026-09-11T16:21:39.942,13.598670,1.784481,20.165907,16.522970,0.000000,-6.561385,2.257357,1.783096,0.014702,0.030951,1.072421,12.133549,15.665997,0.026126,0.064132,0.032434,0.379223,1.498946,8.938369,-1.090802,1.629209,1,0,,38.990667,-76.937639,10.680000,,,
2026-09-11T16:21:39.977,13.632073,1.775039,20.225629,16.435546,0.000000,-6.163131,2.120343,1.773824,0.013332,0.028067,1.073407,12.161508,15.718414,0.017093,-0.001997,0.029550,0.629097,0.521518,11.523598,-1.044481,1.636266,1,0,,38.990667,-76.937639,10.680000,,,
2026-09-11T16:21:40.010,13.665482,1.785391,20.285534,16.531399,0.000000,-5.808822,1.998448,1.784305,0.010230,0.021538,1.074235,12.189499,15.770848,0.053573,-0.007992,0.023021,1.173856,1.920240,10.447613,-0.963384,1.734518,1,0,,38.990667,-76.937639,10.680000,,,
2026-09-11T16:21:40.042,13.698904,1.785747,20.345216,16.534698,0.000000,-5.393401,1.855528,1.784811,0.004855,0.010220,1.074766,12.217679,15.823416,0.050638,0.013551,0.011704,-0.079826,1.500123,11.360710,-0.963603,1.805828,1,0,,38.990667,-76.937639,10.680000,,,
2026-09-11T16:21:40.076,13.732346,1.786303,20.404613,16.539845,0.000000,-4.944335,1.701033,1.785516,0.007266,0.015297,1.075193,12.245902,15.876023,-0.004853,-0.003575,0.016780,-0.455421,-0.688721,9.729178,-0.986840,1.733975,1,1,13.714228,38.990661,-76.937620,10.604000,16.273291,-10.546283,3.226955
2026-09-11T16:21:40.109,13.765745,1.786921,20.464096,16.545565,0.000000,-4.625045,1.591185,1.786232,0.007770,0.016358,1.075721,12.274033,15.928620,-0.057156,0.015688,0.017841,1.285848,-2.032821,8.999073,-0.896553,1.575916,1,0,,38.990661,-76.937620,10.604000,,,
2026-09-11T16:21:40.144,13.799167,1.767913,20.523795,16.369567,0.000000,-3.688460,1.268966,1.767480,-0.002648,-0.005575,1.075902,12.302167,15.980918,0.005737,0.006408,-0.004092,0.324110,1.874835,8.654663,-0.872612,1.675055,1,0,,38.990661,-76.937620,10.604000,,,
2026-09-11T16:21:40.176,13.832582,1.778517,20.583084,16.467746,0.000000,-3.796950,1.306290,1.778054,0.005805,0.012221,1.076013,12.330252,16.033075,0.022614,0.054429,0.013705,0.071883,1.072946,9.751243,-0.867783,1.719124,1,0,,38.990661,-76.937620,10.604000,,,
2026-09-11T16:21:40.209,13.865981,1.749817,20.640949,16.202013,0.000000,-3.855315,1.326370,1.749349,-0.006240,-0.013136,1.075997,12.358229,16.084912,0.033188,0.075310,-0.011653,0.353922,2.940034,10.875869,-0.847285,1.886406,1,0,,38.990661,-76.937620,10.604000,,,
2026-09-11T16:21:40.243,13.899388,1.750372,20.699719,16.207145,0.000000,-4.143020,1.425351,1.749830,-0.003057,-0.006435,1.075671,12.386129,16.136272,0.017612,0.100798,-0.004951,-0.669696,0.219767,7.776870,-0.895108,1.875035,1,0,,38.990661,-76.937620,10.604000,,,
2026-09-11T16:21:40.277,13.932795,1.750342,20.758576,16.206873,0.000000,-4.158812,1.430784,1.749797,0.017023,0.035837,1.076162,12.413686,16.187826,0.087400,0.007067,0.037321,-2.112254,-1.361555,11.122310,-1.035709,1.756644,1,0,,38.990661,-76.937620,10.604000,,,
2026-09-11T16:21:40.311,13.966205,1.740778,20.816646,16.118315,0.000000,-4.302321,1.480156,1.740197,-0.001207,-0.002541,1.076718,12.441115,16.239271,-0.027502,0.056890,-0.001058,-1.301342,0.902898,8.422638,-1.122945,1.790489,1,0,,38.990661,-76.937620,10.604000,,,
2026-09-11T16:21:40.344,13.999628,1.702071,20.873684,15.759918,0.000000,-4.471923,1.538506,1.701458,0.001416,0.002981,1.076725,12.468387,16.289911,0.036619,0.008206,0.004464,-0.116209,-1.232598,9.530887,-1.131936,1.685066,1,0,,38.990661,-76.937620,10.604000,,,
2026-09-11T16:21:40.376,14.033035,1.731603,20.931208,16.033365,0.000000,-4.513122,1.552679,1.730968,0.020700,0.043580,1.077503,12.495229,16.340572,0.058099,-0.029182,0.045064,2.124022,-1.761765,8.705363,-0.997127,1.542071,1,0,,38.990661,-76.937620,10.604000,,,
2026-09-11T16:21:40.411,14.066434,1.731892,20.989397,16.036039,0.000000,-4.567366,1.571342,1.731241,-0.016103,-0.033901,1.077665,12.522536,16.391536,0.038883,0.176513,-0.032418,0.501022,2.582483,12.174662,-0.972382,1.690470,1,0,,38.990661,-76.937620,10.604000,,,
2026-09-11T16:21:40.445,14.099856,1.732076,21.047422,16.037743,0.000000,-4.412185,1.517953,1.731468,0.003480,0.007326,1.077220,12.550126,16.442401,0.148346,-0.020465,0.008810,1.139042,1.184251,9.519610,-0.908329,1.742171,1,0,,38.990661,-76.937620,10.604000,,,
2026-09-11T16:21:40.477,14.133276,1.742254,21.105475,16.131983,0.000000,-4.229537,1.455116,1.741692,0.016933,0.035649,1.077939,12.577304,16.493681,0.023074,-0.052187,0.037132,1.820016,-2.007617,8.589253,-0.801498,1.583428,1,0,,38.990661,-76.937620,10.604000,,,
2026-09-11T16:21:40.510,14.166676,1.762416,21.164108,16.318668,0.000000,-3.875228,1.333221,1.761939,0.007008,0.014754,1.078780,12.604613,16.545429,0.055756,-0.024480,0.016237,0.490234,0.887012,9.139700,-0.780049,1.616180,1,0,,38.990661,-76.937620,10.604000,,,
2026-09-11T16:21:40.547,14.200081,1.753054,21.222327,16.231979,0.000000,-3.253814,1.119431,1.752719,-0.007912,-0.016658,1.078748,12.632359,16.597162,0.039269,-0.018966,-0.015174,0.793162,-1.655853,8.857857,-0.738026,1.487583,1,0,,38.990661,-76.937620,10.604000,,,
2026-09-11T16:21:40.579,14.233493,1.773122,21.281866,16.417801,0.000000,-1.867476,0.642480,1.773011,-0.009486,-0.019970,1.078137,12.660458,16.648929,0.075755,-0.056224,-0.018487,-0.430610,2.692906,8.212579,-0.778809,1.642276,1,0,,38.990661,-76.937620,10.604000,,,
2026-09-11T16:21:40.611,14.266904,1.744526,21.340267,16.153020,0.000000,0.724610,-0.249293,1.744510,-0.015825,-0.033315,1.077246,12.688646,16.700491,0.026824,0.003250,-0.031832,-0.283314,0.095615,9.507645,-0.812139,1.628606,1,0,,38.990661,-76.937620,10.604000,,,
2026-09-11T16:21:40.645,14.300326,1.774149,21.399556,16.427310,0.000000,4.352845,-1.497539,1.773544,-0.032929,-0.069324,1.075531,12.717260,16.751853,-0.032697,-0.011088,-0.067841,0.815717,3.177747,8.925425,-0.772734,1.818859,1,0,,38.990661,-76.937620,10.604000,,,
2026-09-11T16:21:40.678,14.333742,1.793514,21.459340,16.606609,0.000000,6.751985,-2.322931,1.792040,-0.045156,-0.095065,1.072785,12.746793,16.803608,-0.039438,-0.024738,-0.093582,0.098361,0.865633,9.240806,-0.778980,1.860355,1,0,,38.990661,-76.937620,10.604000,,,
2026-09-11T16:21:40.711,14.367144,1.783807,21.518578,16.516731,0.000000,7.349366,-2.528452,1.782070,-0.050903,-0.107164,1.069407,12.776802,16.855231,-0.041871,-0.079825,-0.105681,0.835919,1.331351,11.167323,-0.735614,1.932851,1,0,,38.990661,-76.937620,10.604000,,,
2026-09-11T16:21:40.746,14.400549,1.774326,21.577998,16.428942,0.000000,7.148866,-2.459472,1.772691,-0.045743,-0.096301,1.066009,12.806842,16.906470,-0.094526,0.008285,-0.094817,-0.273213,-0.201527,8.692811,-0.762569,1.904017,1,0,,38.990661,-76.937620,10.604000,,,
2026-09-11T16:21:40.779,14.433958,1.755417,21.637139,16.253859,0.000000,7.432450,-2.557036,1.753669,-0.066080,-0.139117,1.062076,12.837064,16.957066,0.040192,0.129985,-0.137633,-1.034896,1.876699,4.270110,-0.838427,2.014785,1,0,,38.990661,-76.937620,10.604000,,,
2026-09-11T16:21:40.812,14.467364,1.745722,21.695631,16.164095,0.000000,6.798677,-2.338994,1.744268,-0.044164,-0.092977,1.058199,12.867227,17.007140,-0.127247,-0.059399,-0.091494,-3.154407,3.542849,-2.059985,-1.049146,2.226912,1,0,,38.990661,-76.937620,10.604000,,,
2026-09-11T16:21:40.844,14.500767,1.756107,21.754675,16.260254,0.000000,6.955918,-2.393091,1.754576,-0.049443,-0.104090,1.054908,12.897331,17.057248,-0.040178,0.008480,-0.102606,0.569374,-0.002157,7.460017,-1.017190,2.208496,1,0,,38.990661,-76.937620,10.604000,,,
2026-09-11T16:21:40.878,14.534168,1.775826,21.813696,16.442833,0.000000,7.087068,-2.438211,1.774218,-0.033604,-0.070746,1.051988,12.927683,17.107783,0.005061,-0.004993,-0.069263,0.218688,1.271923,7.780792,-1.008871,2.269071,1,0,,38.990661,-76.937620,10.604000,,,
2026-09-11T16:21:40.912,14.567575,1.766446,21.872569,16.355982,0.000000,6.917466,-2.379862,1.764922,-0.048286,-0.101655,1.049109,12.958257,17.158398,0.025261,-0.021898,-0.100171,0.022457,-0.596244,10.256187,-1.010320,2.211508,1,0,,38.990661,-76.937620,10.604000,,,
2026-09-11T16:21:40.945,14.600993,1.757499,21.931397,16.273142,0.000000,6.823396,-2.347499,1.756024,-0.055127,-0.116057,1.045471,12.989163,17.208485,0.032359,0.012984,-0.114574,-0.171518,0.432375,8.745865,-1.023201,2.222771,1,0,,38.990661,-76.937620,10.604000,,,
2026-09-11T16:21:40.978,14.634391,1.748323,21.989051,16.188174,0.000000,6.844682,-2.354822,1.746846,-0.042355,-0.089168,1.042044,13.019992,17.258224,0.033541,-0.056099,-0.087684,-0.749032,-0.260857,10.472620,-1.073333,2.185918,1,0,,38.990661,-76.937620,10.604000,,,
2026-09-11T16:21:41.012,14.667798,1.758647,22.047366,16.283769,0.000000,6.885194,-2.368759,1.757144,-0.040236,-0.084708,1.039140,13.050781,17.308020,0.120760,0.018269,-0.083224,0.831212,1.559257,5.307457,-1.024471,2.266868,1,0,,38.990661,-76.937620,10.604000,,,
2026-09-11T16:21:41.046,14.701204,1.758817,22.106626,16.285344,0.000000,8.033952,-2.763974,1.756771,-0.066749,-0.140525,1.035377,13.082169,17.357645,0.057413,0.196279,-0.139041,0.753641,5.650298,11.996475,-0.982433,2.618222,1,0,,38.990661,-76.937620,10.604000,,,
2026-09-11T16:21:41.080,14.734616,1.748984,22.165916,16.194296,0.000000,8.332643,-2.866735,1.746795,-0.057239,-0.120503,1.031017,13.113920,17.406859,0.000644,0.107172,-0.119020,-3.745454,3.043004,-0.669304,-1.228161,2.794550,1,1,14.735343,38.990655,-76.937602,10.574000,17.844083,-11.252927,3.226955
2026-09-11T16:21:41.112,14.768051,1.758879,22.224555,16.285916,0.000000,8.721971,-3.000678,1.756467,-0.059707,-0.125699,1.026901,13.145798,17.456027,-0.005441,-0.008996,-0.124216,-0.631941,1.051371,5.895758,-1.265434,2.840598,1,0,,38.990655,-76.937602,10.574000,,,
2026-09-11T16:21:41.145,14.801457,1.759140,22.282916,16.288336,0.000000,8.809175,-3.030679,1.756680,-0.055170,-0.116147,1.022861,13.177905,17.505183,0.020488,-0.023430,-0.114664,1.126980,2.729387,10.067899,-1.184118,2.993737,1,0,,38.990655,-76.937602,10.574000,,,
2026-09-11T16:21:41.179,14.834877,1.759528,22.341909,16.291926,0.000000,8.470658,-2.914217,1.757253,-0.061188,-0.128817,1.018768,13.210253,17.554225,-0.064118,-0.009165,-0.127333,-0.493765,-0.677051,8.503935,-1.209083,2.925889,1,0,,38.990655,-76.937602,10.574000,,,
2026-09-11T16:21:41.212,14.868293,1.750304,22.400360,16.206522,0.000000,8.240632,-2.835080,1.748162,-0.052959,-0.111493,1.014753,13.242688,17.603028,-0.019939,-0.029204,-0.110010,0.623409,0.185248,9.372117,-1.162448,2.912650,1,0,,38.990655,-76.937602,10.574000,,,
2026-09-11T16:21:41.245,14.901716,1.740781,22.458470,16.118346,0.000000,7.987260,-2.747911,1.738780,-0.056165,-0.118243,1.010914,13.275088,17.651498,-0.005523,-0.022998,-0.116759,0.922217,1.323800,7.778929,-1.094625,2.974056,1,0,,38.990655,-76.937602,10.574000,,,
2026-09-11T16:21:41.278,14.935117,1.779932,22.517303,16.480848,0.000000,7.771653,-2.673734,1.777994,-0.039715,-0.083610,1.007543,13.307719,17.700356,0.022699,-0.116289,-0.082126,-2.560811,3.116063,13.463060,-1.250730,3.147177,1,0,,38.990655,-76.937602,10.574000,,,
2026-09-11T16:21:41.312,14.968522,1.731835,22.574866,16.035508,0.000000,7.749681,-2.666175,1.729960,-0.047083,-0.099121,1.004491,13.340303,17.749073,-0.044149,-0.048095,-0.097638,-1.757254,-0.900839,5.983822,-1.353829,3.059591,1,0,,38.990655,-76.937602,10.574000,,,
2026-09-11T16:21:41.347,15.001937,1.722774,22.632737,15.951609,0.000000,7.488755,-2.576407,1.721032,-0.028510,-0.060021,1.001832,13.372367,17.797010,0.034617,-0.020702,-0.058537,-0.858082,3.667099,9.613655,-1.397714,3.264638,1,0,,38.990655,-76.937602,10.574000,,,
2026-09-11T16:21:41.380,15.035347,1.694247,22.688836,15.687470,0.000000,7.502488,-2.581131,1.692528,-0.037029,-0.077956,0.999527,13.404066,17.844424,0.087480,-0.005149,-0.076472,-1.931420,0.861612,9.385847,-1.509351,3.287407,1,0,,38.990655,-76.937602,10.574000,,,
2026-09-11T16:21:41.412,15.068756,1.665366,22.744263,15.420054,0.000000,7.972154,-2.742713,1.663458,-0.048921,-0.102991,0.996504,13.435654,17.890758,0.081054,-0.003835,-0.101507,0.041874,-2.996520,9.305040,-1.490862,3.062415,1,0,,38.990655,-76.937602,10.574000,,,
2026-09-11T16:21:41.446,15.102162,1.685201,22.800766,15.603713,0.000000,8.986329,-3.091627,1.682748,-0.060628,-0.127638,0.992652,13.467642,17.936628,-0.006454,0.030211,-0.126155,0.368632,-0.106794,7.277809,-1.452658,3.030030,1,0,,38.990655,-76.937602,10.574000,,,
2026-09-11T16:21:41.479,15.135563,1.665839,22.856558,15.424436,0.000000,13.711824,-4.717370,1.660196,-0.067876,-0.142897,0.988134,13.500050,17.982137,-0.039759,-0.176096,-0.141413,2.560418,-0.203586,20.917487,-1.275660,2.993194,1,0,,38.990655,-76.937602,10.574000,,,
2026-09-11T16:21:41.513,15.168968,1.656115,22.910982,15.334394,0.000000,17.086687,-5.878447,1.647406,-0.078656,-0.165592,0.982981,13.532606,18.026836,-0.069356,-0.045584,-0.164108,0.167007,1.985847,11.491138,-1.251023,3.100933,1,0,,38.990655,-76.937602,10.574000,,,
2026-09-11T16:21:41.547,15.202386,1.646558,22.966500,15.245907,0.000000,17.448549,-6.002941,1.637529,-0.083256,-0.175276,0.977286,13.565421,18.070918,-0.040604,-0.092795,-0.173793,0.756387,9.192558,9.434488,-1.187932,3.675824,1,0,,38.990655,-76.937602,10.574000,,,
