timestamp,time_s,speed_mps,distance_m,wheel_omega_rad_s,motor_current_A,steer_motor_deg,steer_column_deg,vx_mps,vy_mps,yaw_rate_rad_s,heading_rad,x_m,y_m,gyro_x_rad_s,gyro_y_rad_s,gyro_z_rad_s,accel_x_mps2,accel_y_mps2,accel_z_mps2,grade_deg,bank_deg,moving,gps_new_fix,gps_time_s,gps_latitude_deg,gps_longitude_deg,gps_altitude_m,gps_east_m,gps_north_m,gps_sigma_m
2026-09-11T16:26:44.880,0.000007,0.675015,0.002620,6.250138,0.000000,119.918922,-41.256510,0.507453,-0.227833,-0.479648,0.000000,0.000000,0.000000,0.028375,0.002477,-0.478164,-0.542700,1.298204,8.890317,-4.066274,10.493439,1,0,,,,,,,
2026-09-11T16:26:44.914,0.033423,0.665381,0.025338,6.160937,0.000000,119.650444,-41.164143,0.500917,-0.217331,-0.457538,-0.015659,0.016790,-0.007569,0.060024,-0.008438,-0.456055,-0.428354,0.477486,9.852055,-4.058866,10.438747,1,0,,,,,,,
2026-09-11T16:26:44.948,0.066840,0.665652,0.047964,6.163448,0.000000,119.544700,-41.127764,0.501399,-0.232795,-0.490095,-0.031492,0.033353,-0.015482,0.054961,-0.025763,-0.488611,-0.089142,0.369711,10.194797,-4.030032,10.378694,1,0,,,,,,,
2026-09-11T16:26:44.981,0.100244,0.675638,0.070636,6.255908,0.000000,119.500755,-41.112645,0.509038,-0.230755,-0.485800,-0.047792,0.049909,-0.023888,0.039521,-0.029833,-0.484316,-0.332053,0.811206,8.953275,-4.018245,10.348339,1,0,,,,,,,
2026-09-11T16:26:45.015,0.133651,0.666272,0.092989,6.169181,0.000000,119.655250,-41.165797,0.501575,-0.224474,-0.472577,-0.063800,0.066339,-0.032420,0.061357,-0.032473,-0.471094,0.163281,0.946734,10.227257,-3.975495,10.326521,1,0,,,,,,,
2026-09-11T16:26:45.048,0.167070,0.666715,0.115434,6.173284,0.000000,119.655250,-41.165797,0.501908,-0.223080,-0.469642,-0.079544,0.082528,-0.041079,0.062908,-0.041951,-0.468159,0.599186,0.436298,9.636701,-3.905903,10.271429,1,0,,,,,,,
2026-09-11T16:26:45.081,0.200487,0.666992,0.137695,6.175848,0.000000,119.676536,-41.173120,0.502060,-0.224476,-0.472581,-0.095287,0.098585,-0.049993,0.041444,-0.048641,-0.471097,0.206626,0.676267,10.077412,-3.862513,10.232769,1,1,0.182657,38.990804,-76.937902,-7.106000,0.000000,0.000000,3.355485
2026-09-11T16:26:45.115,0.233894,0.676875,0.160185,6.267357,0.000000,119.632591,-41.158001,0.509617,-0.224852,-0.473373,-0.111088,0.114621,-0.059200,0.031038,-0.035334,-0.471890,-0.026968,-0.533580,9.670044,-3.834754,10.115649,1,0,,38.990804,-76.937902,-7.106000,,,
2026-09-11T16:26:45.148,0.267314,0.677252,0.182766,6.270855,0.000000,119.632591,-41.158001,0.509902,-0.225267,-0.474247,-0.126922,0.130642,-0.068690,-0.007593,-0.035562,-0.472764,0.192210,-0.118170,9.397517,-3.794059,10.027040,1,0,,38.990804,-76.937902,-7.106000,,,
2026-09-11T16:26:45.181,0.300733,0.677514,0.205370,6.273273,0.000000,119.699196,-41.180916,0.509920,-0.225389,-0.474503,-0.142776,0.146516,-0.078443,-0.002757,-0.011368,-0.473019,0.345488,0.359512,10.212449,-3.742957,9.970692,1,0,,38.990804,-76.937902,-7.106000,,,
2026-09-11T16:26:45.216,0.334157,0.687434,0.228292,6.365129,0.000000,119.769920,-41.205248,0.517194,-0.228374,-0.480787,-0.158740,0.162346,-0.088519,-0.025123,-0.032555,-0.479303,0.179560,-0.077865,9.943943,-3.700832,9.886794,1,0,,38.990804,-76.937902,-7.106000,,,
2026-09-11T16:26:45.249,0.367579,0.697317,0.251443,6.456638,0.000000,119.588646,-41.142883,0.525129,-0.236123,-0.497101,-0.175082,0.178231,-0.099068,-0.024356,-0.021747,-0.495618,0.595068,-0.336466,8.936800,-3.631311,9.787747,1,0,,38.990804,-76.937902,-7.106000,,,
2026-09-11T16:26:45.282,0.400998,0.707413,0.274935,6.550125,0.000000,119.654564,-41.165561,0.532548,-0.236325,-0.497526,-0.191701,0.194167,-0.110053,-0.036769,-0.054417,-0.496043,-0.079336,-0.378537,11.913119,-3.605787,9.687335,1,0,,38.990804,-76.937902,-7.106000,,,
2026-09-11T16:26:45.316,0.434423,0.717581,0.299271,6.644270,0.000000,119.831031,-41.226272,0.539702,-0.240601,-0.506528,-0.208482,0.210145,-0.121427,-0.069450,0.000826,-0.505044,0.134253,-0.061684,10.896365,-3.566293,9.609305,1,0,,38.990804,-76.937902,-7.106000,,,
2026-09-11T16:26:45.349,0.467846,0.708215,0.323014,6.557543,0.000000,119.924415,-41.258400,0.532395,-0.235097,-0.494941,-0.225218,0.225931,-0.133044,-0.095147,-0.026381,-0.493458,0.600952,-0.292630,8.666431,-3.495595,9.516423,1,0,,38.990804,-76.937902,-7.106000,,,
2026-09-11T16:26:45.382,0.501263,0.718280,0.347098,6.650736,0.000000,119.973167,-41.275172,0.539823,-0.234546,-0.493781,-0.241738,0.241544,-0.144824,-0.100088,-0.027057,-0.492297,-0.094046,0.450321,10.517338,-3.468825,9.473344,1,0,,38.990804,-76.937902,-7.106000,,,
2026-09-11T16:26:45.416,0.534687,0.718758,0.370887,6.655168,0.000000,119.749321,-41.198161,0.540820,-0.236792,-0.498508,-0.258321,0.257092,-0.156924,-0.101828,-0.017574,-0.497025,-0.234869,0.761879,11.166146,-3.448216,9.451296,1,0,,38.990804,-76.937902,-7.106000,,,
2026-09-11T16:26:45.450,0.568119,0.690209,0.393901,6.390828,0.000000,119.733528,-41.192727,0.519382,-0.226005,-0.475800,-0.274608,0.272154,-0.169051,-0.086631,-0.007115,-0.474317,-0.605757,-1.078535,8.277205,-3.447629,9.307750,1,0,,38.990804,-76.937902,-7.106000,,,
2026-09-11T16:26:45.484,0.601543,0.681120,0.416892,6.306666,0.000000,119.632591,-41.158001,0.512813,-0.222150,-0.467684,-0.290375,0.286633,-0.181051,-0.055781,-0.016481,-0.466200,-1.498848,-0.985568,9.632484,-3.502976,9.171473,1,0,,38.990804,-76.937902,-7.106000,,,
2026-09-11T16:26:45.517,0.634978,0.671918,0.439268,6.221459,0.000000,120.017112,-41.290291,0.504863,-0.220994,-0.465250,-0.305971,0.300718,-0.193129,-0.045642,-0.011042,-0.463766,-0.523185,0.014612,9.273659,-3.493041,9.101702,1,0,,38.990804,-76.937902,-7.106000,,,
2026-09-11T16:26:45.549,0.668389,0.662577,0.460755,6.134969,0.000000,119.787086,-41.211153,0.498448,-0.216630,-0.456064,-0.321362,0.314406,-0.205254,-0.019679,0.008599,-0.454580,0.677051,-0.286452,7.892588,-3.403169,9.012624,1,0,,38.990804,-76.937902,-7.106000,,,
2026-09-11T16:26:45.584,0.701807,0.662894,0.482561,6.137903,0.000000,119.666237,-41.169577,0.499003,-0.211122,-0.444467,-0.336410,0.327871,-0.217401,-0.027364,-0.011429,-0.442984,-0.027851,-0.038736,9.731433,-3.358056,8.940335,1,0,,38.990804,-76.937902,-7.106000,,,
2026-09-11T16:26:45.618,0.735232,0.644049,0.503478,5.963419,0.000000,119.883903,-41.244462,0.484263,-0.203589,-0.428608,-0.351001,0.341008,-0.229462,-0.024064,0.016092,-0.427125,-0.194466,0.707844,10.506845,-3.322817,8.916640,1,0,,38.990804,-76.937902,-7.106000,,,
2026-09-11T16:26:45.650,0.768639,0.634885,0.523621,5.878563,0.000000,119.743141,-41.196035,0.477726,-0.204571,-0.430675,-0.365354,0.353667,-0.241479,-0.027870,0.017919,-0.429192,-0.317637,-0.175441,8.372722,-3.294480,8.835492,1,0,,38.990804,-76.937902,-7.106000,,,
2026-09-11T16:26:45.684,0.802044,0.576863,0.542761,5.341324,0.000000,119.699882,-41.181152,0.434165,-0.191364,-0.402871,-0.379276,0.365452,-0.253175,-0.000396,-0.007737,-0.401388,0.495726,1.232304,12.079832,-3.214216,8.845051,1,0,,38.990804,-76.937902,-7.106000,,,
2026-09-11T16:26:45.718,0.835600,0.557509,0.561924,5.162119,0.000000,119.720482,-41.188239,0.419553,-0.190724,-0.401524,-0.392772,0.376308,-0.264506,-0.014292,0.001492,-0.400040,-0.855238,1.187683,8.183748,-3.221786,8.851200,1,0,,38.990804,-76.937902,-7.106000,,,
2026-09-11T16:26:45.751,0.869023,0.557691,0.580746,5.163804,0.000000,119.787086,-41.211153,0.419543,-0.188912,-0.397709,-0.406128,0.386759,-0.275804,0.037324,0.016954,-0.396225,-0.081101,0.135430,11.672463,-3.179060,8.788496,1,0,,38.990804,-76.937902,-7.106000,,,
2026-09-11T16:26:45.785,0.902431,0.548073,0.598838,5.074749,0.000000,119.787086,-41.211153,0.412308,-0.181108,-0.381279,-0.419141,0.397011,-0.287037,0.019306,0.011181,-0.379796,-0.169949,-0.151317,9.612773,-3.143517,8.707196,1,0,,38.990804,-76.937902,-7.106000,,,
2026-09-11T16:26:45.817,0.935841,0.528703,0.616200,4.895398,0.000000,119.676536,-41.173120,0.397967,-0.177746,-0.374202,-0.431761,0.406866,-0.298083,-0.005483,-0.000325,-0.372719,-0.280568,-0.406388,9.620814,-3.114519,8.609636,1,0,,38.990804,-76.937902,-7.106000,,,
2026-09-11T16:26:45.851,0.969249,0.509265,0.633313,4.715421,0.000000,119.793953,-41.213516,0.383100,-0.172830,-0.363852,-0.444089,0.416199,-0.308918,-0.030434,0.003158,-0.362368,0.128075,1.101581,10.461931,-3.060338,8.610854,1,0,,38.990804,-76.937902,-7.106000,,,
2026-09-11T16:26:45.885,1.002666,0.499798,0.650334,4.627760,0.000000,119.622978,-41.154694,0.376316,-0.164729,-0.346799,-0.455963,0.425172,-0.319515,-0.047727,-0.003246,-0.345315,-0.302633,-0.241832,10.678265,-3.034632,8.523889,1,0,,38.990804,-76.937902,-7.106000,,,
2026-09-11T16:26:45.918,1.036087,0.489994,0.666740,4.536984,0.000000,119.752067,-41.199106,0.368684,-0.163307,-0.343803,-0.467504,0.433876,-0.329968,-0.046150,-0.004847,-0.342320,-0.360689,0.804930,9.059678,-3.014817,8.505892,1,0,,38.990804,-76.937902,-7.106000,,,
2026-09-11T16:26:45.951,1.069495,0.480469,0.682485,4.448790,0.000000,119.764427,-41.203358,0.361494,-0.157755,-0.332116,-0.478794,0.442290,-0.340299,-0.036054,-0.012093,-0.330632,-0.326169,1.092461,10.298258,-2.995339,8.506403,1,0,,38.990804,-76.937902,-7.106000,,,
2026-09-11T16:26:45.985,1.102900,0.441543,0.697091,4.088363,0.000000,119.728721,-41.191074,0.332269,-0.153466,-0.323087,-0.489738,0.450127,-0.350292,-0.031011,0.005422,-0.321603,-0.017848,0.380204,10.251382,-2.956629,8.459667,1,0,,38.990804,-76.937902,-7.106000,,,
2026-09-11T16:26:46.018,1.136325,0.461072,0.712562,4.269181,0.000000,119.769233,-41.205011,0.346891,-0.148782,-0.313226,-0.500372,0.457714,-0.360131,-0.025181,-0.023949,-0.311743,-0.044620,0.254286,10.060937,-2.920087,8.405302,1,0,,38.990804,-76.937902,-7.106000,,,
2026-09-11T16:26:46.052,1.169744,0.441828,0.727168,4.090999,0.000000,119.715675,-41.186585,0.332506,-0.151310,-0.318547,-0.510929,0.465217,-0.370015,-0.001382,-0.016372,-0.317063,0.093163,-0.606737,9.480383,-2.875043,8.295267,1,1,1.173465,38.990799,-76.937901,-7.100000,0.092620,-0.514462,3.172414
2026-09-11T16:26:46.085,1.203151,0.432537,0.741979,4.004968,0.000000,119.758934,-41.201468,0.325440,-0.150058,-0.315913,-0.521526,0.472291,-0.379817,0.007274,-0.008440,-0.314429,0.035990,1.104327,9.776250,-2.834238,8.297760,1,0,,38.990799,-76.937901,-7.100000,,,
2026-09-11T16:26:46.118,1.236558,0.442499,0.756288,4.097211,0.000000,119.782280,-41.209500,0.332894,-0.139951,-0.294634,-0.531725,0.479363,-0.389533,0.019718,-0.019135,-0.293151,0.036677,-0.020986,9.609242,-2.793806,8.226615,1,0,,38.990799,-76.937901,-7.100000,,,
2026-09-11T16:26:46.152,1.269964,0.404011,0.769641,3.740846,0.000000,119.669670,-41.170758,0.304120,-0.138955,-0.292538,-0.541532,0.486127,-0.398974,0.021412,-0.000008,-0.291054,0.175441,0.189268,10.322578,-2.744376,8.169372,1,0,,38.990799,-76.937901,-7.100000,,,
2026-09-11T16:26:46.186,1.303379,0.414033,0.783085,3.833635,0.000000,119.787086,-41.211153,0.311471,-0.128890,-0.271347,-0.550953,0.492591,-0.408142,0.034421,-0.007142,-0.269864,0.094242,0.422961,9.849505,-2.699870,8.127685,1,0,,38.990799,-76.937901,-7.100000,,,
2026-09-11T16:26:46.219,1.336801,0.375378,0.795503,3.475719,0.000000,119.831031,-41.226272,0.282326,-0.129868,-0.273406,-0.560057,0.498742,-0.417047,0.022746,-0.010752,-0.271923,-0.440221,0.419627,9.108711,-2.691444,8.085760,1,0,,38.990799,-76.937901,-7.100000,,,
2026-09-11T16:26:46.252,1.370221,0.404789,0.809084,3.748046,0.000000,119.720482,-41.188239,0.304624,-0.126357,-0.266014,-0.569070,0.504737,-0.425913,0.016836,0.010444,-0.264531,0.117189,0.118759,10.212155,-2.644737,8.024960,1,0,,38.990799,-76.937901,-7.100000,,,
2026-09-11T16:26:46.285,1.403626,0.366205,0.820887,3.390784,0.000000,119.831031,-41.226272,0.275427,-0.121112,-0.254972,-0.577772,0.510634,-0.434639,0.003056,-0.000736,-0.253489,0.495824,0.869948,9.477147,-2.572799,8.013064,1,0,,38.990799,-76.937901,-7.100000,,,
2026-09-11T16:26:46.319,1.437034,0.376024,0.833487,3.481706,0.000000,119.579719,-41.139812,0.283186,-0.122400,-0.257684,-0.586336,0.516192,-0.443167,-0.012693,-0.008267,-0.256201,-0.334113,0.709413,9.226979,-2.553301,7.991026,1,0,,38.990799,-76.937901,-7.100000,,,
2026-09-11T16:26:46.353,1.470451,0.327564,0.844219,3.032997,0.000000,119.611305,-41.150678,0.246649,-0.112991,-0.237876,-0.594616,0.521358,-0.451361,-0.012774,0.001796,-0.236393,-0.358727,0.611739,10.641588,-2.532376,7.961936,1,0,,38.990799,-76.937901,-7.100000,,,
2026-09-11T16:26:46.386,1.503873,0.347171,0.855909,3.214548,0.000000,119.924415,-41.258400,0.260984,-0.106371,-0.223940,-0.602333,0.526301,-0.459170,-0.004978,0.008408,-0.222456,0.301554,1.189449,9.791254,-2.471083,7.970774,1,0,,38.990799,-76.937901,-7.100000,,,
2026-09-11T16:26:46.419,1.537280,0.298965,0.865410,2.768193,0.000000,119.775413,-41.207138,0.224921,-0.103945,-0.218831,-0.609729,0.530973,-0.466679,-0.002525,-0.002787,-0.217348,-0.326954,0.489254,9.839404,-2.448805,7.933330,0,0,,38.990799,-76.937901,-7.100000,,,
2026-09-11T16:26:46.452,1.570685,0.308784,0.875641,2.859115,0.000000,119.449943,-41.095164,0.232706,-0.094143,-0.198196,-0.616694,0.535320,-0.473784,0.004380,-0.011688,-0.196713,-0.303124,0.218786,10.055151,-2.422662,7.878501,0,0,,38.990799,-76.937901,-7.100000,,,
2026-09-11T16:26:46.486,1.604092,0.270211,0.884551,2.501949,0.000000,119.217857,-41.015318,0.203883,-0.083659,-0.176123,-0.622947,0.539532,-0.480437,-0.007382,-0.009865,-0.174640,-0.278999,0.650867,10.090357,-2.396016,7.851737,0,0,,38.990799,-76.937901,-7.100000,,,
2026-09-11T16:26:46.519,1.637498,0.241037,0.892435,2.231823,0.000000,118.351310,-40.717194,0.182691,-0.073739,-0.155240,-0.628482,0.543227,-0.486349,-0.008311,-0.003791,-0.153756,-0.288708,0.629293,9.385455,-2.369161,7.823376,0,0,,38.990799,-76.937901,-7.100000,,,
2026-09-11T16:26:46.553,1.670920,0.241037,0.900501,2.231823,0.000000,116.454795,-40.064723,0.184470,-0.058875,-0.123948,-0.633147,0.546875,-0.491758,-0.012777,-0.004238,-0.122464,-0.510338,0.387951,9.653568,-2.356613,7.779247,0,0,,38.990799,-76.937901,-7.100000,,,
2026-09-11T16:26:46.586,1.704339,0.164062,0.905742,1.519091,0.000000,110.371803,-37.971951,0.129332,-0.045796,-0.096413,-0.636829,0.550060,-0.496275,-0.019971,-0.008482,-0.094930,-0.123368,0.527598,9.613851,-2.321050,7.744028,0,0,,38.990799,-76.937901,-7.100000,,,
2026-09-11T16:26:46.619,1.737748,0.164062,0.911210,1.519091,0.000000,101.105522,-34.784010,0.134745,-0.027213,-0.057290,-0.639397,0.552877,-0.499883,-0.016488,-0.001362,-0.055807,-0.117876,1.504929,9.866471,-2.293792,7.772501,0,0,,38.990799,-76.937901,-7.100000,,,
2026-09-11T16:26:46.653,1.771158,0.164062,0.916679,1.519091,0.000000,88.811134,-30.554289,0.141282,-0.010382,-0.021857,-0.640719,0.556200,-0.503140,-0.021254,-0.001301,-0.020373,-0.351274,0.628018,9.918152,-2.290150,7.743292,0,0,,38.990799,-76.937901,-7.100000,,,
2026-09-11T16:26:46.687,1.804564,0.085505,0.919664,0.791715,0.000000,75.393394,-25.938094,0.076892,0.001454,0.003061,-0.641033,0.559032,-0.505439,-0.035314,-0.004358,0.004544,-0.186621,0.834938,9.661708,-2.270243,7.727658,0,0,,38.990799,-76.937901,-7.100000,,,
2026-09-11T16:26:46.720,1.837985,0.085505,0.922535,0.791715,0.000000,61.971534,-21.320482,0.079653,0.012974,0.027315,-0.640525,0.561274,-0.506809,-0.012699,-0.001540,0.028798,-0.247912,0.346469,9.763991,-2.245894,7.680270,0,0,,38.990799,-76.937901,-7.100000,,,
2026-09-11T16:26:46.753,1.871404,0.085505,0.925383,0.791715,0.000000,48.130134,-16.558532,0.081959,0.020244,0.042618,-0.639357,0.563771,-0.507976,-0.029184,-0.001966,0.044102,-0.091986,0.018731,9.684852,-2.212031,7.611998,0,0,,38.990799,-76.937901,-7.100000,,,
2026-09-11T16:26:46.787,1.904816,0.056575,0.927365,0.523840,0.000000,38.104423,-13.109320,0.055100,0.017522,0.036888,-0.638028,0.565985,-0.508835,-0.030673,0.000618,0.038372,0.174460,0.117288,9.575900,-2.162759,7.551013,0,0,,38.990799,-76.937901,-7.100000,,,
2026-09-11T16:26:46.820,1.938226,0.056575,0.929257,0.523840,0.000000,33.858207,-11.648466,0.055410,0.006356,0.013381,-0.637189,0.567706,-0.509614,-0.037006,0.000580,0.014864,0.526715,-0.084729,9.926978,-2.095314,7.477657,0,0,,38.990799,-76.937901,-7.100000,,,
2026-09-11T16:26:46.854,1.971646,0.056575,0.931148,0.523840,0.000000,29.533714,-10.160681,0.055687,-0.003653,-0.007691,-0.637094,0.569225,-0.510682,-0.029725,-0.002042,-0.006208,0.222611,0.265760,9.601201,-2.051491,7.427979,0,0,,38.990799,-76.937901,-7.100000,,,
2026-09-11T16:26:46.887,2.005063,0.163545,0.935865,1.514303,0.000000,28.446067,-9.786491,0.161165,-0.004092,-0.008615,-0.637366,0.572060,-0.512942,-0.000810,-0.003521,-0.007131,0.056486,0.032068,9.704759,-2.014399,7.363724,0,0,,38.990799,-76.937901,-7.100000,,,
2026-09-11T16:26:46.920,2.038486,0.163545,0.941288,1.514303,0.000000,28.446067,-9.786491,0.161165,-0.008220,-0.017306,-0.637799,0.576266,-0.516313,0.020312,-0.002898,-0.015822,-0.180246,0.249481,9.786056,-1.993023,7.314409,0,0,,38.990799,-76.937901,-7.100000,,,
2026-09-11T16:26:46.954,2.071895,0.045899,0.942655,0.424995,0.000000,28.446067,-9.786491,0.045231,-0.007324,-0.015418,-0.638346,0.578881,-0.518575,0.044101,-0.002039,-0.013935,-0.257032,0.281941,9.716037,-1.980836,7.267639,0,0,,38.990799,-76.937901,-7.100000,,,
2026-09-11T16:26:46.987,2.105303,0.006684,0.942609,0.061892,0.000000,28.446067,-9.786491,0.006587,-0.008521,-0.017939,-0.638903,0.579419,-0.519303,0.056110,0.001155,-0.016456,-0.122093,0.277822,9.743397,-1.959736,7.221086,0,0,,38.990799,-76.937901,-7.100000,,,
2026-09-11T16:26:47.021,2.138726,-0.000000,0.942564,-0.000000,0.000000,28.446067,-9.786491,-0.000000,-0.007462,-0.015710,-0.639465,0.579348,-0.519583,0.067229,-0.001047,-0.014227,-0.113267,0.644983,9.786645,-1.939890,7.198903,0,0,,38.990799,-76.937901,-7.100000,,,
2026-09-11T16:26:47.054,2.172145,0.009804,0.943065,0.090776,0.000000,28.512672,-9.809406,0.009660,-0.002982,-0.006278,-0.639833,0.579373,-0.519820,0.048171,-0.000229,-0.004794,-0.146413,0.474936,9.703680,-1.925992,7.165916,0,1,2.177677,38.990797,-76.937901,-7.086000,0.093052,-0.738520,3.300302
2026-09-11T16:26:47.087,2.205596,0.009804,0.943384,0.090776,0.000000,28.512672,-9.809406,0.009660,-0.000179,-0.000378,-0.639944,0.579601,-0.520055,0.025051,0.001359,0.001106,-0.157495,0.480232,9.677300,-1.916022,7.133606,0,0,,38.990797,-76.937901,-7.086000,,,
2026-09-11T16:26:47.121,2.239007,0.009804,0.943703,0.090776,0.000000,28.512672,-9.809406,0.009660,0.000710,0.001495,-0.639926,0.579865,-0.520241,-0.001656,0.000417,0.002979,-0.131703,0.394914,9.770758,-1.898919,7.096148,0,0,,38.990797,-76.937901,-7.086000,,,
2026-09-11T16:26:47.154,2.272415,-0.049019,0.942222,-0.453878,0.000000,28.512672,-9.809406,-0.048302,0.002906,0.006117,-0.639798,0.579383,-0.519807,-0.033254,0.005413,0.007601,0.050210,0.380596,9.739377,-1.863430,7.058198,0,0,,38.990797,-76.937901,-7.086000,,,
2026-09-11T16:26:47.188,2.305822,-0.049019,0.940581,-0.453878,0.000000,28.512672,-9.809406,-0.048302,-0.001106,-0.002328,-0.639735,0.578107,-0.518820,-0.022240,0.005374,-0.000845,0.190837,-0.061193,9.719763,-1.826721,6.991938,0,0,,38.990797,-76.937901,-7.086000,,,
2026-09-11T16:26:47.221,2.339246,-0.049019,0.938941,-0.453878,0.000000,29.339393,-10.093828,-0.048260,-0.003837,-0.008077,-0.639909,0.576763,-0.517922,0.008724,0.001653,-0.006594,0.319305,0.298220,9.693089,-1.792071,6.949733,0,0,,38.990797,-76.937901,-7.086000,,,
2026-09-11T16:26:47.254,2.372654,-0.049019,0.937323,-0.453878,0.000000,30.258812,-10.410142,-0.048212,-0.003934,-0.008282,-0.640182,0.575393,-0.517064,0.046475,0.003483,-0.006799,0.274978,0.182109,9.727118,-1.763607,6.900474,0,0,,38.990797,-76.937901,-7.086000,,,
2026-09-11T16:26:47.288,2.406062,-0.049019,0.935682,-0.453878,0.000000,32.809013,-11.287504,-0.048071,-0.007155,-0.015064,-0.640572,0.573992,-0.516252,0.041538,0.004056,-0.013580,0.287629,0.333132,9.724372,-1.734441,6.861554,0,0,,38.990797,-76.937901,-7.086000,,,
2026-09-11T16:26:47.321,2.439485,-0.019845,0.934908,-0.183752,0.000000,38.303550,-13.177827,-0.019323,-0.009301,-0.019580,-0.641151,0.572925,-0.515799,0.022513,0.001868,-0.018097,0.320579,0.412468,9.725059,-1.702829,6.828229,0,0,,38.990797,-76.937901,-7.086000,,,
2026-09-11T16:26:47.355,2.472904,-0.000000,0.934999,-0.000000,0.000000,40.967735,-14.094404,-0.000000,-0.003458,-0.007281,-0.641600,0.572539,-0.515776,-0.002959,0.002686,-0.005797,0.331857,0.517987,9.756734,-1.670842,6.802161,0,0,,38.990797,-76.937901,-7.086000,,,
2026-09-11T16:26:47.388,2.506322,-0.000000,0.934999,-0.000000,0.000000,40.970482,-14.095349,-0.000000,0.000478,0.001006,-0.641705,0.572509,-0.515816,-0.016809,0.002397,0.002489,0.369122,0.485233,9.747908,-1.640542,6.774256,0,0,,38.990797,-76.937901,-7.086000,,,
2026-09-11T16:26:47.421,2.539730,-0.000000,0.934999,-0.000000,0.000000,40.970482,-14.095349,-0.000000,0.003664,0.007714,-0.641559,0.572550,-0.515761,-0.025594,0.002698,0.009198,0.382852,0.371966,9.669063,-1.613438,6.739311,0,0,,38.990797,-76.937901,-7.086000,,,
2026-09-11T16:26:47.455,2.573149,-0.000000,0.934999,-0.000000,0.000000,40.970482,-14.095349,-0.000000,0.001500,0.003158,-0.641378,0.572602,-0.515692,-0.028626,0.002297,0.004642,0.515241,0.316755,9.679360,-1.578055,6.701157,0,0,,38.990797,-76.937901,-7.086000,,,
2026-09-11T16:26:47.488,2.606567,-0.000000,0.934999,-0.000000,0.000000,40.970482,-14.095349,-0.000000,0.004126,0.008687,-0.641180,0.572658,-0.515616,-0.024939,0.001247,0.010170,0.552212,0.534561,9.721332,-1.540668,6.677580,0,0,,38.990797,-76.937901,-7.086000,,,
2026-09-11T16:26:47.522,2.639976,-0.000000,0.934999,-0.000000,0.000000,40.223411,-13.838330,-0.000000,0.003577,0.007530,-0.640909,0.572735,-0.515513,-0.034737,0.001655,0.009014,0.394325,0.073452,9.668082,-1.513907,6.624322,0,0,,38.990797,-76.937901,-7.086000,,,
2026-09-11T16:26:47.555,2.673385,-0.000000,0.934999,-0.000000,0.000000,40.091575,-13.792973,-0.000000,-0.000529,-0.001114,-0.640802,0.572766,-0.515473,-0.054273,0.000338,0.000370,0.360689,0.347842,9.702700,-1.487755,6.589479,0,0,,38.990797,-76.937901,-7.086000,,,
2026-09-11T16:26:47.588,2.706788,-0.000000,0.934999,-0.000000,0.000000,40.091575,-13.792973,-0.000000,-0.001534,-0.003230,-0.640874,0.572745,-0.515500,-0.067643,-0.000076,-0.001747,0.221434,0.312342,9.730452,-1.467801,6.552723,0,0,,38.990797,-76.937901,-7.086000,,,
2026-09-11T16:26:47.622,2.740201,-0.000000,0.934999,-0.000000,0.000000,40.091575,-13.792973,-0.000000,-0.001350,-0.002842,-0.640976,0.572716,-0.515539,-0.068115,0.004417,-0.001359,0.192308,0.287433,9.728197,-1.452385,6.514750,0,0,,38.990797,-76.937901,-7.086000,,,
2026-09-11T16:26:47.656,2.773620,-0.000000,0.934999,-0.000000,0.000000,40.091575,-13.792973,-0.000000,0.000094,0.000197,-0.641020,0.572704,-0.515556,-0.064870,0.003151,0.001680,0.124643,0.191720,9.742711,-1.455797,6.470975,0,0,,38.990797,-76.937901,-7.086000,,,
2026-09-11T16:26:47.689,2.807038,-0.000000,0.934999,-0.000000,0.000000,40.091575,-13.792973,-0.000000,0.000648,0.001364,-0.640994,0.572711,-0.515546,-0.059035,0.002947,0.002848,0.116013,0.232614,9.719077,-1.458864,6.430345,0,0,,38.990797,-76.937901,-7.086000,,,
2026-09-11T16:26:47.722,2.840445,-0.000000,0.934999,-0.000000,0.000000,40.091575,-13.792973,-0.000000,-0.000327,-0.000688,-0.640982,0.572714,-0.515541,-0.044463,0.006068,0.000795,0.125427,0.181815,9.723490,-1.447424,6.386884,0,0,,38.990797,-76.937901,-7.086000,,,
2026-09-11T16:26:47.756,2.873854,-0.000000,0.934999,-0.000000,0.000000,40.091575,-13.792973,-0.000000,0.000444,0.000935,-0.640978,0.572715,-0.515540,-0.030870,0.002338,0.002418,0.200154,0.205253,9.704563,-1.428454,6.345425,0,0,,38.990797,-76.937901,-7.086000,,,
2026-09-11T16:26:47.789,2.907263,-0.000000,0.934999,-0.000000,0.000000,40.091575,-13.792973,-0.000000,0.000826,0.001738,-0.640934,0.572728,-0.515523,-0.015940,0.002605,0.003222,0.198585,0.146806,9.721823,-1.409384,6.300634,0,0,,38.990797,-76.937901,-7.086000,,,
2026-09-11T16:26:47.822,2.940674,-0.000000,0.934999,-0.000000,0.000000,40.091575,-13.792973,-0.000000,-0.001239,-0.002609,-0.640948,0.572724,-0.515528,-0.005450,0.001635,-0.001126,0.206822,0.140922,9.720254,-1.389991,6.255958,0,0,,38.990797,-76.937901,-7.086000,,,
2026-09-11T16:26:47.856,2.974097,-0.000000,0.934999,-0.000000,0.000000,40.091575,-13.792973,-0.000000,0.000378,0.000796,-0.640978,0.572715,-0.515540,0.003244,0.001487,0.002279,0.231731,0.148865,9.687990,-1.369194,6.212277,0,0,,38.990797,-76.937901,-7.086000,,,
2026-09-11T16:26:47.889,3.007503,0.058823,0.934999,0.544654,0.000000,40.091575,-13.792973,0.057126,-0.000746,-0.001571,-0.640991,0.573476,-0.516115,0.014849,0.002291,-0.000088,0.265466,0.134253,9.715743,-1.346457,6.168165,0,0,,38.990797,-76.937901,-7.086000,,,
2026-09-11T16:26:47.922,3.040913,0.227851,0.950470,2.109735,0.000000,40.091575,-13.792973,0.221281,-0.002076,-0.004370,-0.641091,0.577176,-0.518935,0.020844,0.000783,-0.002887,0.265858,0.215158,9.721725,-1.323943,6.129845,0,0,,38.990797,-76.937901,-7.086000,,,
2026-09-11T16:26:47.957,3.074336,0.045036,0.950379,0.416998,0.000000,40.091575,-13.792973,0.043737,0.000484,0.001018,-0.641147,0.580709,-0.521605,0.035165,0.002279,0.002502,0.338526,0.141118,9.737023,-1.296968,6.087065,0,0,,38.990797,-76.937901,-7.086000,,,
2026-09-11T16:26:47.990,3.107758,0.006548,0.950334,0.060632,0.000000,38.789009,-13.344842,0.006371,0.000322,0.000677,-0.641118,0.581388,-0.522095,0.058327,0.000755,0.002161,0.438357,0.172499,9.687009,-1.263833,6.046804,0,0,,38.990797,-76.937901,-7.086000,,,
2026-09-11T16:26:48.023,3.141182,-0.000000,0.950288,-0.000000,0.000000,37.082695,-12.757808,-0.000000,0.001559,0.003283,-0.641052,0.581492,-0.522133,0.070406,-0.003509,0.004766,0.358139,0.150434,9.767620,-1.236866,6.005555,0,0,,38.990797,-76.937901,-7.086000,,,
2026-09-11T16:26:48.057,3.174589,-0.000000,0.950288,-0.000000,0.000000,35.438865,-12.192270,-0.000000,0.000083,0.000175,-0.640994,0.581509,-0.522111,0.072181,-0.002564,0.001658,0.309890,0.259092,9.683871,-1.213943,5.971836,0,1,3.174992,38.990797,-76.937900,-7.134000,0.130935,-0.760759,3.355485
2026-09-11T16:26:48.090,3.208009,-0.000000,0.950288,-0.000000,0.000000,33.648094,-11.576179,-0.000000,-0.000425,-0.000894,-0.641006,0.581505,-0.522116,0.072078,-0.001347,0.000590,0.249579,0.267820,9.774092,-1.195168,5.939046,0,0,,38.990797,-76.937900,-7.134000,,,
2026-09-11T16:26:48.124,3.241432,-0.000000,0.950288,-0.000000,0.000000,31.199516,-10.733778,-0.000000,-0.000078,-0.000165,-0.641024,0.581500,-0.522123,0.065281,-0.000504,0.001319,0.268212,0.334701,9.771738,-1.171706,5.910958,0,0,,38.990797,-76.937900,-7.134000,,,
2026-09-11T16:26:48.157,3.274852,-0.000000,0.950288,-0.000000,0.000000,29.237083,-10.058629,-0.000000,0.001894,0.003986,-0.640960,0.581519,-0.522098,0.064642,0.002248,0.005470,0.076296,0.213295,9.674947,-1.146635,5.875306,0,0,,38.990797,-76.937900,-7.134000,,,
2026-09-11T16:26:48.190,3.308256,-0.000000,0.950288,-0.000000,0.000000,28.689140,-9.870117,-0.000000,-0.001209,-0.002546,-0.640936,0.581525,-0.522089,0.036162,-0.000052,-0.001062,0.139058,0.319206,9.741142,-1.136575,5.846937,0,0,,38.990797,-76.937900,-7.134000,,,
2026-09-11T16:26:48.223,3.341664,-0.000000,0.950288,-0.000000,0.000000,28.665794,-9.862085,-0.000000,-0.003284,-0.006914,-0.641094,0.581480,-0.522149,0.011976,0.003661,-0.005430,0.261151,0.357550,9.708584,-1.137410,5.821367,0,0,,38.990797,-76.937900,-7.134000,,,
2026-09-11T16:26:48.257,3.375074,-0.000000,0.950288,-0.000000,0.000000,28.665794,-9.862085,-0.000000,-0.004605,-0.009695,-0.641372,0.581402,-0.522255,0.010249,0.002080,-0.008211,0.277430,0.186424,9.684950,-1.122524,5.784980,0,0,,38.990797,-76.937900,-7.134000,,,
2026-09-11T16:26:48.290,3.408493,0.009622,0.950561,0.089091,0.000000,28.665794,-9.862085,0.009480,-0.006604,-0.013903,-0.641766,0.581416,-0.522500,0.012445,0.002838,-0.012420,0.426589,0.364415,9.741926,-1.094186,5.760544,0,0,,38.990797,-76.937900,-7.134000,,,
2026-09-11T16:26:48.323,3.441900,0.009622,0.950880,0.089091,0.000000,28.665794,-9.862085,0.009480,-0.004942,-0.010405,-0.642172,0.581555,-0.522844,0.017589,0.003342,-0.008922,0.585849,0.410997,9.712997,-1.055872,5.739408,0,0,,38.990797,-76.937900,-7.134000,,,
2026-09-11T16:26:48.356,3.475311,0.009622,0.951199,0.089091,0.000000,28.665794,-9.862085,0.009480,-0.003992,-0.008404,-0.642486,0.581719,-0.523153,0.018100,0.000958,-0.006920,0.535541,0.345488,9.709172,-1.021233,5.714253,0,0,,38.990797,-76.937900,-7.134000,,,
2026-09-11T16:26:48.391,3.508726,0.009622,0.951518,0.089091,0.000000,28.665794,-9.862085,0.009480,-0.003957,-0.008330,-0.642766,0.581893,-0.523449,0.017102,-0.001529,-0.006846,0.463070,0.381773,9.695835,-1.009435,5.691728,0,0,,38.990797,-76.937900,-7.134000,,,
2026-09-11T16:26:48.424,3.542151,0.009622,0.951860,0.089091,0.000000,28.665794,-9.862085,0.009480,-0.004843,-0.010195,-0.643075,0.582058,-0.523757,0.011159,-0.000817,-0.008711,0.394325,0.373241,9.711918,-1.008876,5.668895,0,0,,38.990797,-76.937900,-7.134000,,,
2026-09-11T16:26:48.456,3.575572,0.291466,0.963276,2.698758,0.000000,28.665794,-9.862085,0.287159,-0.002691,-0.005666,-0.643340,0.585949,-0.526831,0.004502,-0.003188,-0.004183,0.328915,0.427374,9.741044,-0.995246,5.649929,0,0,,38.990797,-76.937900,-7.134000,,,
2026-09-11T16:26:48.489,3.608979,0.085255,0.965896,0.789394,0.000000,28.665794,-9.862085,0.083995,-0.002766,-0.005822,-0.643532,0.590854,-0.530623,-0.004715,-0.001981,-0.004339,0.358139,0.286746,9.666219,-0.973698,5.621988,0,0,,38.990797,-76.937900,-7.134000,,,
2026-09-11T16:26:48.525,3.642403,0.016517,0.965942,0.152939,0.000000,28.665794,-9.862085,0.016273,-0.006336,-0.013338,-0.643853,0.592103,-0.531750,-0.009907,0.001703,-0.011855,0.295965,0.518968,9.688088,-0.955789,5.609393,0,0,,38.990797,-76.937900,-7.134000,,,
2026-09-11T16:26:48.558,3.675822,0.016517,0.966352,0.152939,0.000000,28.665794,-9.862085,0.016273,-0.005166,-0.010876,-0.644257,0.592423,-0.532231,-0.019048,-0.000521,-0.009393,0.298122,0.299593,9.728001,-0.937330,5.582706,0,0,,38.990797,-76.937900,-7.134000,,,
2026-09-11T16:26:48.591,3.709230,0.016517,0.966922,0.152939,0.000000,28.665794,-9.862085,0.016273,-0.005485,-0.011547,-0.644632,0.592751,-0.532700,-0.027702,-0.001024,-0.010064,0.355981,0.389422,9.663571,-0.931592,5.562149,0,0,,38.990797,-76.937900,-7.134000,,,
2026-09-11T16:26:48.625,3.742640,0.016517,0.967469,0.152939,0.000000,28.665794,-9.862085,0.016273,-0.003521,-0.007413,-0.644948,0.593095,-0.533147,-0.013176,-0.001771,-0.005930,0.306556,0.324110,9.557561,-0.931871,5.537580,0,0,,38.990797,-76.937900,-7.134000,,,
2026-09-11T16:26:48.658,3.776046,0.296179,0.976537,2.742395,0.000000,28.621849,-9.846966,0.291815,-0.005872,-0.012362,-0.645279,0.597112,-0.536367,-0.003636,-0.003304,-0.010878,1.346747,0.648710,10.935298,-0.847697,5.534560,0,0,,38.990797,-76.937900,-7.134000,,,
2026-09-11T16:26:48.691,3.809451,0.121137,0.981277,1.121637,0.000000,27.572654,-9.486005,0.119480,-0.002622,-0.005519,-0.645577,0.602514,-0.540612,-0.010262,0.001862,-0.004036,-0.676757,0.253894,8.455196,-0.874356,5.505783,0,0,,38.990797,-76.937900,-7.134000,,,
2026-09-11T16:26:48.725,3.842878,0.023891,0.981368,0.221215,0.000000,27.083763,-9.317808,0.023576,-0.002538,-0.005344,-0.645759,0.604372,-0.542120,-0.010787,-0.001391,-0.003860,0.023536,0.582809,9.228352,-0.851216,5.498612,0,0,,38.990797,-76.937900,-7.134000,,,
2026-09-11T16:26:48.758,3.876302,0.023891,0.982120,0.221215,0.000000,27.083763,-9.317808,0.023576,-0.003841,-0.008087,-0.645983,0.604937,-0.542679,-0.020046,-0.002402,-0.006603,0.005296,0.200742,9.904815,-0.863744,5.466740,0,0,,38.990797,-76.937900,-7.134000,,,
2026-09-11T16:26:48.791,3.909707,0.023891,0.982918,0.221215,0.000000,27.083763,-9.317808,0.023576,-0.004804,-0.010114,-0.646287,0.605479,-0.543269,-0.026615,0.000399,-0.008631,0.449831,0.336564,9.863823,-0.863456,5.444049,0,0,,38.990797,-76.937900,-7.134000,,,
2026-09-11T16:26:48.825,3.943114,0.023891,0.983715,0.221215,0.000000,26.552299,-9.134965,0.023588,-0.003764,-0.007925,-0.646589,0.606022,-0.543857,-0.018569,0.000820,-0.006442,0.324796,0.448556,9.776740,-0.855596,5.428866,0,0,,38.990797,-76.937900,-7.134000,,,
2026-09-11T16:26:48.859,3.976534,0.278789,0.995495,2.581383,0.000000,25.924018,-8.918814,0.275419,-0.000940,-0.001979,-0.646754,0.609962,-0.546931,-0.010008,0.001210,-0.000495,0.541817,0.151317,9.641898,-0.821875,5.394591,0,0,,38.990797,-76.937900,-7.134000,,,
2026-09-11T16:26:48.892,4.009954,0.067108,0.996999,0.621372,0.000000,25.633567,-8.818888,0.066315,-0.004828,-0.010165,-0.646957,0.614461,-0.550449,-0.005335,0.000169,-0.008681,0.392952,0.235458,9.690637,-0.779114,5.366162,0,0,,38.990797,-76.937900,-7.134000,,,
2026-09-11T16:26:48.925,4.043362,0.009377,0.996976,0.086823,0.000000,25.633567,-8.818888,0.009266,-0.007026,-0.014791,-0.647374,0.615349,-0.551368,-0.001711,-0.001168,-0.013308,0.155043,0.321658,9.825381,-0.745572,5.343612,0,0,,38.990797,-76.937900,-7.134000,,,
2026-09-11T16:26:48.957,4.076771,0.018999,0.997774,0.175915,0.000000,25.633567,-8.818888,0.018774,-0.006840,-0.014400,-0.647862,0.615583,-0.551835,0.003798,0.002069,-0.012916,0.052662,0.340487,9.798315,-0.736336,5.322541,0,0,,38.990797,-76.937900,-7.134000,,,
2026-09-11T16:26:48.991,4.110175,0.018999,0.998412,0.175915,0.000000,25.633567,-8.818888,0.018774,-0.005762,-0.012131,-0.648305,0.615955,-0.552382,0.004062,0.000475,-0.010647,0.190935,0.215550,9.705642,-0.724448,5.293607,0,0,,38.990797,-76.937900,-7.134000,,,
2026-09-11T16:26:49.026,4.143596,0.281405,1.003174,2.605604,0.000000,25.633567,-8.818888,0.278078,-0.007372,-0.015519,-0.648767,0.619776,-0.555554,-0.004436,-0.000831,-0.014036,0.196525,0.428354,9.766933,-0.712325,5.279044,0,0,,38.990797,-76.937900,-7.134000,,,
2026-09-11T16:26:49.059,4.177017,0.202748,1.012585,1.877294,0.000000,25.633567,-8.818888,0.200351,-0.004144,-0.008724,-0.649172,0.626029,-0.560538,-0.006589,0.000630,-0.007240,0.073060,0.382263,9.698483,-0.722470,5.261488,0,1,4.174788,38.990796,-76.937900,-7.100000,0.164065,-0.827290,3.355485
2026-09-11T16:26:49.092,4.210434,0.035815,1.012516,0.331618,0.000000,25.633567,-8.818888,0.035391,-0.004766,-0.010033,-0.649485,0.629077,-0.563038,-0.000879,-0.002103,-0.008550,0.095026,0.287139,9.724274,-0.720283,5.237871,0,0,,38.990796,-76.937900,-7.100000,,,
2026-09-11T16:26:49.126,4.243842,0.016176,1.012790,0.149774,0.000000,25.633567,-8.818888,0.015984,-0.003462,-0.007289,-0.649775,0.629677,-0.563667,0.000566,0.000754,-0.005806,-0.064234,0.338231,9.792627,-0.711408,5.217818,0,0,,38.990796,-76.937900,-7.100000,,,
2026-09-11T16:26:49.159,4.277251,0.016176,1.013337,0.149774,0.000000,25.633567,-8.818888,0.015984,-0.003932,-0.008277,-0.650035,0.630027,-0.564088,0.013840,0.002173,-0.006794,0.098753,0.308713,9.699758,-0.702772,5.196075,0,0,,38.990796,-76.937900,-7.100000,,,
2026-09-11T16:26:49.192,4.310659,0.016176,1.013861,0.149774,0.000000,25.633567,-8.818888,0.015984,-0.005001,-0.010528,-0.650349,0.630362,-0.564530,0.021059,-0.001173,-0.009044,0.035500,0.313715,9.657099,-0.700479,5.174900,0,0,,38.990796,-76.937900,-7.100000,,,
2026-09-11T16:26:49.227,4.344077,0.016176,1.014408,0.149774,0.000000,25.633567,-8.818888,0.015984,-0.003718,-0.007827,-0.650656,0.630699,-0.564970,0.008108,0.001996,-0.006344,0.085318,0.345684,9.708584,-0.694999,5.156025,0,0,,38.990796,-76.937900,-7.100000,,,
2026-09-11T16:26:49.260,4.377494,0.016176,1.014955,0.149774,0.000000,25.633567,-8.818888,0.015984,-0.004358,-0.009174,-0.650940,0.631042,-0.565401,-0.000816,0.000984,-0.007690,0.157691,0.384813,9.735258,-0.668778,5.139897,0,0,,38.990796,-76.937900,-7.100000,,,
2026-09-11T16:26:49.292,4.410898,0.016176,1.015501,0.149774,0.000000,25.633567,-8.818888,0.015984,-0.004387,-0.009235,-0.651247,0.631378,-0.565841,-0.015785,-0.000258,-0.007751,0.228691,0.349019,9.749870,-0.626555,5.121634,0,0,,38.990796,-76.937900,-7.100000,,,
2026-09-11T16:26:49.326,4.444305,0.237976,1.024069,2.203481,0.000000,25.672706,-8.832353,0.235154,-0.003301,-0.006950,-0.651517,0.634636,-0.568486,-0.017483,0.003282,-0.005466,0.271154,0.454636,9.728981,-0.597713,5.110515,0,0,,38.990796,-76.937900,-7.100000,,,
2026-09-11T16:26:49.360,4.477725,0.101832,1.028034,0.942891,0.000000,25.700172,-8.841802,0.100622,-0.002163,-0.004553,-0.651710,0.639042,-0.571962,-0.012256,0.001011,-0.003069,0.354707,0.400111,9.691520,-0.595870,5.095902,0,0,,38.990796,-76.937900,-7.100000,,,
2026-09-11T16:26:49.393,4.511147,0.014311,1.027943,0.132512,0.000000,25.700172,-8.841802,0.014141,0.000530,0.001115,-0.651767,0.640550,-0.573147,0.000394,-0.000389,0.002599,0.360296,0.402955,9.728001,-0.600246,5.081605,0,0,,38.990796,-76.937900,-7.100000,,,
2026-09-11T16:26:49.427,4.544569,-0.000000,1.027943,-0.000000,0.000000,25.700172,-8.841802,-0.000000,0.002076,0.004371,-0.651675,0.640765,-0.573255,0.017027,0.001173,0.005855,0.438848,0.243303,9.720450,-0.579659,5.057116,0,0,,38.990796,-76.937900,-7.100000,,,
2026-09-11T16:26:49.460,4.577976,-0.000000,1.027943,-0.000000,0.000000,23.473381,-8.075704,-0.000000,0.000347,0.000731,-0.651590,0.640789,-0.573223,0.007649,-0.000476,0.002215,0.389814,0.269683,9.690932,-0.556923,5.034620,0,0,,38.990796,-76.937900,-7.100000,,,
2026-09-11T16:26:49.493,4.611391,0.009725,1.028216,0.090042,0.000000,16.451744,-5.660004,0.009677,0.011423,0.024047,-0.651176,0.641037,-0.573165,0.062146,0.002675,0.025531,0.290571,0.789828,9.720254,-0.540463,5.046068,0,0,,38.990796,-76.937900,-7.100000,,,
2026-09-11T16:26:49.527,4.644817,0.009725,1.028535,0.090042,0.000000,12.579063,-4.327659,0.009697,0.015167,0.031931,-0.650241,0.641564,-0.573007,0.058462,0.001724,0.033415,0.365298,0.174951,9.699365,-0.519560,5.017519,0,0,,38.990796,-76.937900,-7.100000,,,
2026-09-11T16:26:49.560,4.678236,0.009725,1.028877,0.090042,0.000000,5.863659,-2.017314,0.009719,0.012687,0.026708,-0.649261,0.642104,-0.572833,0.049663,0.000511,0.028192,0.278215,0.235360,9.571487,-0.508954,4.993212,0,0,,38.990796,-76.937900,-7.100000,,,
2026-09-11T16:26:49.593,4.711639,0.009725,1.029196,0.090042,0.000000,-1.650989,0.568001,0.009724,0.017868,0.037617,-0.648186,0.642671,-0.572622,0.038014,0.002273,0.039101,0.174656,0.469739,9.660629,-0.511064,4.984366,0,0,,38.990796,-76.937900,-7.100000,,,
2026-09-11T16:26:49.627,4.745062,0.323445,1.040999,2.994864,0.000000,-11.804416,4.061152,0.322633,0.020624,0.043418,-0.646832,0.647491,-0.575457,0.039859,0.004350,0.044902,0.276744,0.380008,9.781153,-0.506498,4.968911,0,0,,38.990796,-76.937900,-7.100000,,,
2026-09-11T16:26:49.661,4.778479,0.092520,1.043688,0.856669,0.000000,-18.436039,6.342674,0.091954,0.021245,0.044726,-0.645359,0.653441,-0.579071,0.024340,0.005080,0.046210,0.284001,0.084435,9.910601,-0.500795,4.935113,0,0,,38.990796,-76.937900,-7.100000,,,
2026-09-11T16:26:49.694,4.811898,0.015545,1.043665,0.143938,0.000000,-26.055057,8.963896,0.015355,0.024722,0.052047,-0.643742,0.655335,-0.579535,0.022721,0.010100,0.053531,0.400700,0.616054,10.009256,-0.497338,4.936363,0,0,,38.990796,-76.937900,-7.100000,,,
2026-09-11T16:26:49.727,4.845305,0.005923,1.043756,0.054846,0.000000,-37.605121,12.937542,0.005773,0.021340,0.044926,-0.642123,0.656079,-0.579131,0.007186,0.009564,0.046410,0.217413,0.150532,9.231784,-0.510463,4.907469,0,0,,38.990796,-76.937900,-7.100000,,,
2026-09-11T16:26:49.761,4.878714,0.009622,1.043984,0.089091,0.000000,-42.959583,14.779673,0.009304,0.028572,0.060151,-0.640367,0.656780,-0.578614,0.026497,0.006193,0.061634,0.052073,0.923688,9.777819,-0.533576,4.928975,0,0,,38.990796,-76.937900,-7.100000,,,
2026-09-11T16:26:49.794,4.912134,0.009622,1.044303,0.089091,0.000000,-54.175251,18.638274,0.009117,0.035553,0.074849,-0.638111,0.657666,-0.577937,0.024542,-0.000498,0.076333,0.941242,1.222203,10.518907,-0.499862,4.969593,0,0,,38.990796,-76.937900,-7.100000,,,
2026-09-11T16:26:49.828,4.945582,0.320622,1.049863,2.968724,0.000000,-64.279239,22.114417,0.297035,0.041196,0.086729,-0.635409,0.662549,-0.579944,0.009196,-0.008550,0.088213,0.377262,0.997729,9.712801,-0.505752,4.993605,0,0,,38.990796,-76.937900,-7.100000,,,
2026-09-11T16:26:49.861,4.979000,0.202787,1.059296,1.877658,0.000000,-69.909732,24.051513,0.185181,0.049421,0.104044,-0.632222,0.669936,-0.583498,-0.031184,0.011639,0.105528,0.701666,-0.358139,9.645527,-0.473599,4.929862,0,0,,38.990796,-76.937900,-7.100000,,,
2026-09-11T16:26:49.895,5.012402,0.084952,1.060549,0.786593,0.000000,-80.105732,27.559311,0.075313,0.046974,0.098893,-0.628832,0.674398,-0.584765,-0.053472,0.008919,0.100377,0.646454,1.213769,9.628365,-0.441356,4.969464,0,0,,38.990796,-76.937900,-7.100000,,,
2026-09-11T16:26:49.928,5.045810,0.084952,1.063375,0.786593,0.000000,-87.872379,30.231323,0.073399,0.064051,0.134845,-0.624928,0.677497,-0.584720,-0.044833,0.009379,0.136329,1.510322,0.744129,9.735846,-0.376312,4.978043,0,0,,38.990796,-76.937900,-7.100000,,,
2026-09-11T16:26:49.961,5.079233,0.248891,1.074380,2.304550,0.000000,-91.955860,31.636190,0.211905,0.065392,0.137668,-0.620374,0.682635,-0.585739,-0.019141,0.009204,0.139151,0.624487,1.008320,9.996703,-0.376875,5.002409,0,0,,38.990796,-76.937900,-7.100000,,,
2026-09-11T16:26:49.995,5.112648,0.190544,1.079803,1.764297,0.000000,-102.289188,35.191234,0.155719,0.073276,0.154265,-0.615496,0.688982,-0.587411,0.016271,0.003313,0.155749,0.680582,0.856121,10.305122,-0.376331,5.016969,0,0,,38.990796,-76.937900,-7.100000,,,
2026-09-11T16:26:50.028,5.146056,0.269156,1.090285,2.492186,0.000000,-109.561451,37.693160,0.212982,0.083074,0.174894,-0.609998,0.695523,-0.588814,0.053675,0.012065,0.176377,0.420411,1.472567,9.633955,-0.393204,5.070457,0,0,,38.990796,-76.937900,-7.100000,,,
2026-09-11T16:26:50.061,5.179463,0.221047,1.096665,2.046729,0.000000,-114.659793,39.447177,0.170695,0.092386,0.194497,-0.603828,0.702457,-0.590064,0.094383,0.012596,0.195980,0.927807,0.604874,9.147545,-0.361146,5.067384,0,0,,38.990796,-76.937900,-7.100000,,,
2026-09-11T16:26:50.095,5.212878,0.338378,1.108445,3.133127,0.000000,-119.199207,41.008901,0.255342,0.098539,0.207450,-0.597112,0.710135,-0.591449,0.057290,0.009771,0.208934,0.690486,1.228479,9.492053,-0.332074,5.103486,0,0,,38.990796,-76.937900,-7.100000,,,
2026-09-11T16:26:50.128,5.246300,0.299804,1.118334,2.775960,0.000000,-124.002292,42.661339,0.220467,0.111980,0.235747,-0.589706,0.718692,-0.592980,0.077167,0.012663,0.237231,0.653809,0.732655,9.562170,-0.318282,5.107113,1,0,,38.990796,-76.937900,-7.100000,,,
2026-09-11T16:26:50.161,5.279721,0.378075,1.130639,3.500698,0.000000,-125.976398,43.340504,0.274970,0.119436,0.251445,-0.581565,0.727730,-0.594330,0.070656,0.004309,0.252929,0.995669,0.362846,9.479893,-0.291615,5.085610,1,0,,38.990796,-76.937900,-7.100000,,,
2026-09-11T16:26:50.195,5.313125,0.368454,1.142852,3.411607,0.000000,-127.671726,43.923759,0.265384,0.132763,0.279501,-0.572697,0.737591,-0.595725,0.063244,0.007098,0.280985,0.629783,0.919373,9.676614,-0.280573,5.100094,1,0,,38.990796,-76.937900,-7.100000,,,
2026-09-11T16:26:50.228,5.346532,0.427371,1.156911,3.957140,0.000000,-128.458622,44.194480,0.306416,0.147119,0.309725,-0.562855,0.748158,-0.596916,0.056962,0.017288,0.311208,0.879755,0.944184,9.478127,-0.250113,5.114683,1,0,,38.990796,-76.937900,-7.100000,,,
2026-09-11T16:26:50.262,5.379955,0.417647,1.170970,3.867097,0.000000,-129.058063,44.400710,0.298393,0.153245,0.322621,-0.552288,0.759389,-0.598005,0.064767,0.018498,0.324105,0.788749,0.568492,10.046030,-0.228244,5.104669,1,0,,38.990796,-76.937900,-7.100000,,,
2026-09-11T16:26:50.295,5.413373,0.447240,1.186396,4.141109,0.000000,-129.493396,44.550480,0.318718,0.154434,0.325125,-0.541465,0.770871,-0.598974,0.047324,0.013522,0.326608,0.030106,0.811108,10.351802,-0.255507,5.110020,1,0,,38.990796,-76.937900,-7.100000,,,
2026-09-11T16:26:50.328,5.446778,0.476799,1.201845,4.414809,0.000000,-129.715870,44.627019,0.339336,0.159082,0.334909,-0.530440,0.782995,-0.600083,0.028842,0.029111,0.336392,0.320776,-0.565353,10.664536,-0.263095,5.025460,1,0,,38.990796,-76.937900,-7.100000,,,
2026-09-11T16:26:50.362,5.480185,0.418695,1.215858,3.876808,0.000000,-129.757068,44.641193,0.297910,0.160033,0.336911,-0.519219,0.794875,-0.600807,-0.021347,0.020597,0.338394,-0.128173,0.814540,9.217074,-0.299642,5.032119,1,0,,38.990796,-76.937900,-7.100000,,,
2026-09-11T16:26:50.396,5.513599,0.438849,1.231239,4.063413,0.000000,-129.514682,44.557804,0.312698,0.154572,0.325414,-0.508153,0.806344,-0.601241,-0.056980,0.025712,0.326898,-0.040501,0.397464,9.028296,-0.332417,5.011582,1,0,,38.990796,-76.937900,-7.100000,,,
2026-09-11T16:26:50.429,5.547020,0.458488,1.246278,4.245257,0.000000,-129.426792,44.527566,0.326862,0.159275,0.335316,-0.497112,0.818236,-0.601792,-0.060756,0.026406,0.336800,0.481408,0.042071,9.555404,-0.330631,4.967721,1,0,,38.990796,-76.937900,-7.100000,,,
2026-09-11T16:26:50.462,5.580424,0.448682,1.261476,4.154464,0.000000,-129.432972,44.529692,0.319860,0.163679,0.344587,-0.485756,0.830304,-0.602134,-0.055810,0.012605,0.346071,0.761781,1.567397,10.017983,-0.310420,5.023161,1,0,,38.990796,-76.937900,-7.100000,,,
2026-09-11T16:26:50.496,5.613830,0.507141,1.278337,4.695750,0.000000,-131.505954,45.242874,0.357080,0.177249,0.373155,-0.473768,0.842963,-0.602297,0.010138,0.006461,0.374639,0.625566,0.828270,10.236966,-0.298543,5.028605,1,0,,38.990796,-76.937900,-7.100000,,,
2026-09-11T16:26:50.529,5.647240,0.526881,1.295677,4.878528,0.000000,-137.270343,47.226036,0.357809,0.192346,0.404940,-0.460769,0.856404,-0.602164,0.055698,0.023630,0.406423,0.672932,1.517677,8.808137,-0.284443,5.077916,1,1,5.646799,38.990796,-76.937899,-7.102000,0.260286,-0.887521,3.356006
2026-09-11T16:26:50.563,5.680658,0.546168,1.314202,5.057111,0.000000,-138.116977,47.517309,0.368864,0.205258,0.432121,-0.446783,0.870229,-0.601513,0.101912,0.031450,0.433605,0.901918,-0.016475,10.002391,-0.256573,5.026299,1,0,,38.990796,-76.937899,-7.102000,,,
2026-09-11T16:26:50.597,5.714074,0.584837,1.334231,5.415161,0.000000,-139.497135,47.992134,0.391392,0.217129,0.457114,-0.431926,0.884726,-0.600526,0.112983,0.029875,0.458598,0.532403,2.490007,9.311316,-0.256801,5.136472,1,0,,38.990796,-76.937899,-7.102000,,,
2026-09-11T16:26:50.629,5.747483,0.633569,1.355103,5.866381,0.000000,-141.334598,48.624288,0.418785,0.240347,0.505993,-0.415838,0.900203,-0.599122,0.139107,0.025248,0.507476,1.143652,2.679961,9.766443,-0.221363,5.255588,1,0,,38.990796,-76.937899,-7.102000,,,
2026-09-11T16:26:50.662,5.780891,0.691955,1.377365,6.406989,0.000000,-144.746540,49.798121,0.446645,0.257681,0.542486,-0.398324,0.916770,-0.597202,0.176386,0.031899,0.543970,0.369907,2.095975,8.260141,-0.236653,5.333570,1,0,,38.990796,-76.937899,-7.102000,,,
2026-09-11T16:26:50.696,5.814298,0.730962,1.402361,6.768167,0.000000,-149.136951,51.308584,0.456943,0.292672,0.616151,-0.378970,0.934216,-0.594411,0.244168,0.022056,0.617635,0.443261,0.326463,10.451634,-0.248212,5.293434,1,0,,38.990796,-76.937899,-7.102000,,,
2026-09-11T16:26:50.730,5.847722,0.769910,1.428292,7.128799,0.000000,-151.378162,52.079643,0.473160,0.305312,0.642761,-0.357932,0.952314,-0.590683,0.296941,0.019231,0.644245,0.643807,0.417861,10.086238,-0.247880,5.258188,1,0,,38.990796,-76.937899,-7.102000,,,
2026-09-11T16:26:50.763,5.881140,0.779825,1.454769,7.220601,0.000000,-151.402881,52.088147,0.479162,0.299563,0.630659,-0.336654,0.970716,-0.586595,0.368991,0.039860,0.632143,0.665283,2.436070,9.504998,-0.245883,5.354335,1,0,,38.990796,-76.937899,-7.102000,,,
2026-09-11T16:26:50.797,5.914549,0.790113,1.481110,7.315861,0.000000,-148.422153,51.062667,0.496562,0.290576,0.611738,-0.315900,0.989317,-0.582479,0.325440,0.053583,0.613222,0.427374,-0.098851,9.571879,-0.260810,5.284953,1,0,,38.990796,-76.937899,-7.102000,,,
2026-09-11T16:26:50.832,5.947958,0.780628,1.506766,7.228037,0.000000,-136.157291,46.843105,0.533948,0.266885,0.561863,-0.296296,1.008541,-0.578783,0.258973,0.030130,0.563346,0.879657,0.469444,10.109970,-0.247540,5.253428,1,0,,38.990796,-76.937899,-7.102000,,,
2026-09-11T16:26:50.863,5.981366,0.742144,1.531034,6.871707,0.000000,-127.255619,43.780603,0.535824,0.227956,0.479907,-0.278894,1.028026,-0.575926,0.116293,0.003743,0.481391,1.115408,0.954972,8.952687,-0.219701,5.256504,1,0,,38.990796,-76.937899,-7.102000,,,
2026-09-11T16:26:50.897,6.014786,0.722937,1.554845,6.693857,0.000000,-111.333683,38.302872,0.567321,0.199938,0.420923,-0.263841,1.047706,-0.573976,0.006709,0.031006,0.422406,0.742167,-0.788455,9.506861,-0.216745,5.147691,1,0,,38.990796,-76.937899,-7.102000,,,
2026-09-11T16:26:50.930,6.048209,0.703991,1.577676,6.518439,0.000000,-104.782398,36.048990,0.569187,0.186011,0.391603,-0.250263,1.067715,-0.572567,-0.019713,0.040377,0.393087,0.790220,0.151022,9.121852,-0.211369,5.102032,1,0,,38.990796,-76.937899,-7.102000,,,
2026-09-11T16:26:50.963,6.081615,0.704152,1.600964,6.519924,0.000000,-94.867923,32.638047,0.592962,0.177314,0.373292,-0.237487,1.088019,-0.571363,0.004716,0.036324,0.374776,1.828156,4.193520,10.058877,-0.142456,5.319011,1,0,,38.990796,-76.937899,-7.102000,,,
2026-09-11T16:26:50.997,6.115021,0.714169,1.624524,6.612677,0.000000,-87.331989,30.045409,0.618205,0.163271,0.343729,-0.225510,1.109016,-0.570465,-0.054709,0.017723,0.345213,0.344802,-0.779433,8.879628,-0.176317,5.211831,1,0,,38.990796,-76.937899,-7.102000,,,
2026-09-11T16:26:51.030,6.148440,0.714410,1.648131,6.614912,0.000000,-83.506000,28.729128,0.626468,0.151170,0.318253,-0.214449,1.130460,-0.569876,-0.055194,0.024910,0.319737,0.251541,0.566040,9.540596,-0.216634,5.193897,1,0,,38.990796,-76.937899,-7.102000,,,
2026-09-11T16:26:51.064,6.181858,0.734050,1.672625,6.796756,0.000000,-78.825138,27.118740,0.653351,0.147524,0.310577,-0.203942,1.152416,-0.569432,-0.094688,0.031429,0.312060,0.517105,1.664090,9.736533,-0.234459,5.247130,1,1,6.173092,38.990794,-76.937894,-7.083000,0.634798,-1.147717,5.117780
2026-09-11T16:26:51.097,6.215272,0.753978,1.697530,6.981276,0.000000,-74.888599,25.764426,0.679024,0.154061,0.324339,-0.193334,1.175232,-0.568883,-0.122585,0.025077,0.325822,0.602815,0.895739,9.105279,-0.242916,5.248829,1,0,,38.990794,-76.937894,-7.083000,,,
2026-09-11T16:26:51.130,6.248682,0.783537,1.723415,7.254976,0.000000,-71.907871,24.738946,0.711627,0.158233,0.333121,-0.182352,1.199027,-0.568093,-0.172387,-0.003719,0.334605,2.376838,-0.077865,10.861159,-0.133126,5.186308,1,0,,38.990794,-76.937894,-7.083000,,,
2026-09-11T16:26:51.164,6.282087,0.813136,1.751146,7.529040,0.000000,-70.625217,24.297666,0.741109,0.161920,0.340884,-0.171094,1.223854,-0.567092,-0.187665,0.049839,0.342368,0.318618,2.204143,7.429322,-0.153808,5.271386,1,0,,38.990794,-76.937894,-7.083000,,,
2026-09-11T16:26:51.197,6.315575,0.833128,1.779264,7.714144,0.000000,-70.381458,24.213804,0.759830,0.162173,0.341417,-0.159669,1.249536,-0.565875,-0.197316,0.001583,0.342901,2.835495,0.841607,16.305811,-0.007007,5.266756,1,0,,38.990794,-76.937894,-7.083000,,,
2026-09-11T16:26:51.231,6.348999,0.902084,1.810002,8.352630,0.000000,-70.590198,24.285619,0.822255,0.189634,0.399229,-0.147292,1.276561,-0.564100,-0.219796,0.140151,0.400712,1.045291,1.844925,4.740339,0.027080,5.322793,1,0,,38.990794,-76.937894,-7.083000,,,
2026-09-11T16:26:51.265,6.382416,0.970208,1.842631,8.983407,0.000000,-73.919056,25.430868,0.876199,0.219723,0.462574,-0.132892,1.305614,-0.561283,-0.115133,0.073425,0.464058,1.032836,2.414201,10.165770,0.063509,5.410124,1,0,,38.990794,-76.937894,-7.083000,,,
2026-09-11T16:26:51.297,6.415823,0.970683,1.874372,8.987805,0.000000,-81.062915,27.888618,0.857946,0.234418,0.493512,-0.116922,1.335296,-0.557368,-0.041348,0.089744,0.494996,-0.066587,1.683606,10.934219,0.028866,5.447926,1,0,,38.990794,-76.937894,-7.083000,,,
2026-09-11T16:26:51.331,6.449231,1.000130,1.908369,9.260462,0.000000,-90.645740,31.185461,0.855607,0.258454,0.544113,-0.099590,1.364637,-0.552276,-0.044448,0.058803,0.545596,-1.044408,1.677133,8.714189,-0.068475,5.482160,1,0,,38.990794,-76.937894,-7.083000,,,
2026-09-11T16:26:51.365,6.482638,0.990751,1.941454,9.173624,0.000000,-92.769535,31.916124,0.840973,0.278137,0.585552,-0.080720,1.393663,-0.545903,-0.044761,0.060384,0.587035,-0.576141,0.204469,7.240446,-0.131542,5.418790,1,0,,38.990794,-76.937894,-7.083000,,,
2026-09-11T16:26:51.398,6.516053,1.010549,1.975451,9.356936,0.000000,-99.260395,34.149218,0.836309,0.284527,0.599004,-0.060930,1.422278,-0.538510,-0.079529,0.039475,0.600488,-0.367063,-0.576827,10.705920,-0.177193,5.304900,1,0,,38.990794,-76.937894,-7.083000,,,
2026-09-11T16:26:51.432,6.549477,0.981203,2.008604,9.085217,0.000000,-98.445346,33.868812,0.814709,0.274109,0.577071,-0.041275,1.450311,-0.530599,-0.098908,0.027029,0.578555,-0.503768,0.544563,9.932862,-0.228675,5.266977,1,0,,38.990794,-76.937894,-7.083000,,,
2026-09-11T16:26:51.465,6.582889,0.961665,2.040732,8.904306,0.000000,-98.409641,33.856528,0.798601,0.256920,0.540885,-0.022598,1.477534,-0.522596,-0.164768,0.043182,0.542369,-0.350588,0.739716,9.272188,-0.264445,5.244616,1,0,,38.990794,-76.937894,-7.083000,,,
2026-09-11T16:26:51.498,6.616297,0.942481,2.072086,8.726673,0.000000,-97.672870,33.603052,0.784984,0.262441,0.552507,-0.004334,1.504099,-0.514280,-0.119494,0.004095,0.553990,-0.815031,0.600853,10.700330,-0.324021,5.213391,1,0,,38.990794,-76.937894,-7.083000,,,
2026-09-11T16:26:51.531,6.649706,0.932993,2.103325,8.638827,0.000000,-97.596653,33.576830,0.777319,0.255031,0.536907,0.013864,1.530155,-0.505513,-0.138314,0.040311,0.538390,-0.026674,-0.515928,8.523450,-0.331730,5.111186,1,0,,38.990794,-76.937894,-7.083000,,,
2026-09-11T16:26:51.565,6.683126,0.982060,2.136228,9.093144,0.000000,-99.190357,34.125123,0.812963,0.268148,0.564523,0.032269,1.556516,-0.496155,0.056805,-0.006529,0.566006,0.704117,1.769316,8.519920,-0.292081,5.155554,1,0,,38.990794,-76.937894,-7.083000,,,
2026-09-11T16:26:51.598,6.716546,1.021093,2.170362,9.454562,0.000000,-104.328525,35.892841,0.827202,0.311273,0.655312,0.052652,1.583479,-0.485317,0.224797,-0.027729,0.656796,1.572496,1.947797,9.319064,-0.194579,5.205615,1,0,,38.990794,-76.937894,-7.083000,,,
2026-09-11T16:26:51.632,6.749972,1.079883,2.206546,9.998921,0.000000,-116.491077,40.077205,0.826303,0.341225,0.718369,0.075611,1.610351,-0.472664,0.357157,-0.031626,0.719853,-1.200334,-0.975958,10.294139,-0.277644,5.062185,1,0,,38.990794,-76.937894,-7.083000,,,
2026-09-11T16:26:51.665,6.783378,1.109075,2.243413,10.269214,0.000000,-118.557880,40.788261,0.839713,0.367699,0.774102,0.100539,1.637021,-0.458420,0.374693,0.044972,0.775586,0.328621,3.093410,10.830170,-0.264904,5.180504,1,0,,38.990794,-76.937894,-7.083000,,,
2026-09-11T16:26:51.698,6.816783,1.128884,2.281238,10.452632,0.000000,-122.850101,42.264943,0.835423,0.366871,0.772359,0.126369,1.663429,-0.443065,0.322704,0.085592,0.773843,-0.184855,0.955462,9.682498,-0.290552,5.159266,1,0,,38.990794,-76.937894,-7.083000,,,
2026-09-11T16:26:51.732,6.850192,1.119363,2.318334,10.364475,0.000000,-120.247715,41.369627,0.840039,0.352270,0.741621,0.151659,1.689483,-0.427290,0.291532,0.076537,0.743104,1.129922,-0.876028,9.350837,-0.234082,5.021003,1,0,,38.990794,-76.937894,-7.083000,,,
2026-09-11T16:26:51.766,6.883612,1.090634,2.354996,10.098466,0.000000,-109.967945,37.833009,0.861385,0.321205,0.676220,0.175351,1.715707,-0.411554,0.159066,0.047739,0.677704,2.339867,0.608895,9.250221,-0.105621,4.983129,1,0,,38.990794,-76.937894,-7.083000,,,
2026-09-11T16:26:51.799,6.917030,1.052325,2.389585,9.743753,0.000000,-98.829868,34.001101,0.872406,0.271641,0.571875,0.196206,1.742355,-0.396465,0.051024,0.100291,0.573359,-1.320858,-6.039720,8.171195,-0.220622,4.520229,1,0,,38.990794,-76.937894,-7.083000,,,
2026-09-11T16:26:51.832,6.950439,0.965772,2.421372,8.942335,0.000000,-85.614002,29.454358,0.840944,0.212925,0.448264,0.213247,1.768741,-0.382724,0.010396,-0.056556,0.449748,-0.723240,-0.524656,19.551813,-0.297956,4.427821,1,0,,38.990794,-76.937894,-7.083000,,,
2026-09-11T16:26:51.865,6.983844,0.898263,2.451290,8.317253,0.000000,-68.717029,23.641180,0.822876,0.144630,0.304484,0.225820,1.794570,-0.370844,-0.105813,0.007586,0.305968,1.106680,-1.865813,11.426120,-0.263788,4.257793,1,0,,38.990794,-76.937894,-7.083000,,,
2026-09-11T16:26:51.899,7.017250,0.869618,2.480934,8.052018,0.000000,-55.126255,18.965455,0.822410,0.129536,0.272708,0.235460,1.820277,-0.360103,-0.154554,0.046135,0.274191,1.112172,-2.047040,10.429471,-0.239376,4.079641,1,0,,38.990794,-76.937894,-7.083000,,,
2026-09-11T16:26:51.933,7.050671,0.879789,2.510875,8.146198,0.000000,-35.821903,12.324049,0.859516,0.082768,0.174248,0.242929,1.846745,-0.349995,-0.259822,0.105390,0.175732,-2.556398,-4.278543,9.606006,-0.458942,3.763710,1,0,,38.990794,-76.937894,-7.083000,,,
2026-09-11T16:26:51.966,7.084093,0.870463,2.539426,8.059840,0.000000,-22.171390,7.627772,0.862760,0.043824,0.092261,0.247383,1.874153,-0.340957,-0.311049,0.085044,0.093745,1.156694,-1.463937,10.786335,-0.441557,3.638135,1,0,,38.990794,-76.937894,-7.083000,,,
2026-09-11T16:26:51.999,7.117511,0.880417,2.569139,8.152010,0.000000,-7.429798,2.556123,0.879541,0.004846,0.010202,0.249095,1.902173,-0.333015,-0.280727,0.049757,0.011685,-0.113267,1.394506,7.294088,-0.511348,3.703616,1,0,,38.990794,-76.937894,-7.083000,,,
2026-09-11T16:26:52.033,7.150919,0.929750,2.600196,8.608798,0.000000,0.415127,-0.142819,0.929747,-0.011608,-0.024439,0.248857,1.931492,-0.325678,-0.206578,0.106928,-0.022955,1.630159,-0.891032,9.416444,-0.472570,3.622467,1,0,,38.990794,-76.937894,-7.083000,,,
2026-09-11T16:26:52.066,7.184330,0.988231,2.633213,9.150283,0.000000,6.226895,-2.142280,0.987540,-0.025382,-0.053437,0.247556,1.962691,-0.318409,-0.165040,0.096406,-0.051953,0.626645,0.091986,12.951545,-0.503395,3.607789,1,1,7.173111,38.990791,-76.937884,-7.122000,1.526282,-1.377149,5.118362
2026-09-11T16:26:52.100,7.217747,1.017418,2.667164,9.420539,0.000000,11.108944,-3.821885,1.015156,-0.034579,-0.072799,0.245447,1.995386,-0.311216,-0.149050,0.027263,-0.071315,1.940638,-0.779531,7.050099,-0.454357,3.538216,1,0,,38.990791,-76.937884,-7.122000,,,
2026-09-11T16:26:52.133,7.251171,1.124277,2.705171,10.409970,0.000000,13.707211,-4.715784,1.120471,-0.032390,-0.068188,0.243091,2.030289,-0.303672,-0.105834,-0.008051,-0.066705,2.873054,-3.084191,10.675814,-0.350201,3.320343,1,0,,38.990791,-76.937884,-7.122000,,,
2026-09-11T16:26:52.166,7.284578,1.182690,2.744887,10.950831,0.000000,13.790982,-4.744604,1.178637,-0.034799,-0.073260,0.240728,2.067843,-0.295563,-0.112110,0.005977,-0.071777,0.920256,-0.343037,9.932469,-0.372894,3.283036,1,0,,38.990791,-76.937884,-7.122000,,,
2026-09-11T16:26:52.200,7.317983,1.231400,2.786744,11.401851,0.000000,12.668317,-4.358366,1.227839,-0.039090,-0.082295,0.238130,2.107183,-0.287231,-0.122806,-0.019700,-0.080812,1.170031,1.051665,9.965028,-0.375982,3.337345,1,0,,38.990791,-76.937884,-7.122000,,,
2026-09-11T16:26:52.233,7.351392,1.270375,2.828921,11.762736,0.000000,10.173733,-3.500138,1.268006,-0.029767,-0.062667,0.235709,2.147980,-0.278565,-0.179147,-0.043942,-0.061184,1.482177,1.406960,10.444769,-0.356196,3.412655,1,0,,38.990791,-76.937884,-7.122000,,,
2026-09-11T16:26:52.267,7.384811,1.328830,2.874060,12.303981,0.000000,5.057537,-1.739978,1.328217,-0.011361,-0.023918,0.234262,2.190330,-0.269133,-0.138268,-0.002754,-0.022434,0.742952,1.559355,7.836494,-0.381476,3.493940,1,0,,38.990791,-76.937884,-7.122000,,,
2026-09-11T16:26:52.300,7.418215,1.377699,2.920133,12.756468,0.000000,-1.494434,0.514140,1.377643,0.019086,0.040180,0.234533,2.234257,-0.258511,-0.073618,-0.003202,0.041664,1.617215,1.666738,10.825659,-0.345347,3.575600,1,0,,38.990791,-76.937884,-7.122000,,,
2026-09-11T16:26:52.333,7.451622,1.377964,2.966617,12.758922,0.000000,-12.700489,4.369434,1.373959,0.048862,0.102868,0.236923,2.278682,-0.246674,0.057967,0.113689,0.104352,-0.020496,1.029894,6.552215,-0.410439,3.609584,1,0,,38.990791,-76.937884,-7.122000,,,
2026-09-11T16:26:52.367,7.485031,1.426753,3.014536,13.210675,0.000000,-22.838810,7.857389,1.413358,0.108569,0.228566,0.242459,2.323284,-0.233064,0.116796,-0.208884,0.230049,1.145711,-0.714611,18.277635,-0.391552,3.518517,1,0,,38.990791,-76.937884,-7.122000,,,
2026-09-11T16:26:52.401,7.518450,1.446547,3.063070,13.393949,0.000000,-26.795948,9.218789,1.427863,0.104465,0.219926,0.249953,2.368460,-0.218040,0.162303,0.025231,0.221409,1.056568,2.690356,4.739064,-0.370222,3.649471,1,0,,38.990791,-76.937884,-7.122000,,,
2026-09-11T16:26:52.434,7.551870,1.457246,3.111467,13.493020,0.000000,-26.120288,8.986338,1.439359,0.111333,0.234385,0.257545,2.413931,-0.202521,0.018480,0.086701,0.235868,-1.540331,-2.550710,7.676057,-0.511713,3.438123,1,0,,38.990791,-76.937884,-7.122000,,,
2026-09-11T16:26:52.467,7.585276,1.428798,3.159226,13.229612,0.000000,-19.814136,6.816790,1.418698,0.084444,0.177776,0.264429,2.459210,-0.187045,-0.109567,0.011081,0.179260,-1.388720,2.086267,9.067621,-0.636111,3.534814,1,0,,38.990791,-76.937884,-7.122000,,,
2026-09-11T16:26:52.501,7.618681,1.419853,3.205505,13.146785,0.000000,-7.146213,2.458560,1.418546,0.043122,0.090784,0.268915,2.504364,-0.172501,-0.217671,-0.073041,0.092267,2.128730,-3.868625,8.783718,-0.525221,3.253071,1,0,,38.990791,-76.937884,-7.122000,,,
2026-09-11T16:26:52.534,7.652104,1.440002,3.253697,13.333354,0.000000,4.366772,-1.502330,1.439507,-0.009823,-0.020680,0.270086,2.550254,-0.159248,-0.200878,-0.055465,-0.019196,-0.538189,-2.125689,9.916190,-0.581025,3.097428,1,0,,38.990791,-76.937884,-7.122000,,,
2026-09-11T16:26:52.568,7.685655,1.459616,3.302390,13.514965,0.000000,12.619565,-4.341593,1.455428,-0.061406,-0.129276,0.267571,2.597391,-0.147502,-0.048736,-0.085659,-0.127792,-1.890330,2.628280,11.117799,-0.719384,3.262150,1,0,,38.990791,-76.937884,-7.122000,,,
2026-09-11T16:26:52.601,7.719073,1.450590,3.350446,13.431388,0.000000,13.352902,-4.593888,1.445930,-0.047536,-0.100076,0.263738,2.644646,-0.136530,0.131006,-0.093415,-0.098592,1.573771,1.545528,6.487786,-0.627390,3.351505,1,0,,38.990791,-76.937884,-7.122000,,,
2026-09-11T16:26:52.634,7.752482,1.469966,3.399276,13.610796,0.000000,10.205319,-3.511004,1.467207,-0.046167,-0.097194,0.260443,2.692054,-0.125434,0.216563,-0.020500,-0.095710,-0.786199,1.511989,9.913445,-0.685667,3.437547,1,0,,38.990791,-76.937884,-7.122000,,,
2026-09-11T16:26:52.667,7.785890,1.479865,3.448745,13.702451,0.000000,5.066464,-1.743049,1.479180,-0.014949,-0.031472,0.258294,2.739886,-0.113798,0.209394,-0.120221,-0.029989,-0.139254,-2.511385,9.590610,-0.699839,3.256043,1,0,,38.990791,-76.937884,-7.122000,,,
2026-09-11T16:26:52.701,7.819297,1.490139,3.498464,13.797584,0.000000,1.771252,-0.609376,1.490055,-0.013724,-0.028894,0.257286,2.787965,-0.101617,0.217557,-0.048786,-0.027410,1.302029,2.059397,10.629918,-0.619432,3.372114,1,0,,38.990791,-76.937884,-7.122000,,,
2026-09-11T16:26:52.735,7.852720,1.480792,3.548319,13.711040,0.000000,1.050274,-0.361333,1.480763,-0.000399,-0.000839,0.256789,2.836041,-0.089224,0.064730,-0.064241,0.000644,0.449831,-0.768449,9.630130,-0.595205,3.301163,1,0,,38.990791,-76.937884,-7.122000,,,
2026-09-11T16:26:52.768,7.886137,1.491055,3.598471,13.806063,0.000000,0.803769,-0.276526,1.491037,-0.006447,-0.013573,0.256548,2.884098,-0.076730,-0.086604,-0.076562,-0.012089,0.404917,-0.577906,7.716265,-0.570388,3.244576,1,0,,38.990791,-76.937884,-7.122000,,,
2026-09-11T16:26:52.801,7.919553,1.481767,3.648053,13.720069,0.000000,2.459957,-0.846316,1.481606,-0.019047,-0.040098,0.255651,2.932254,-0.064561,-0.103841,-0.052698,-0.038615,0.178481,0.903291,13.291737,-0.555681,3.287029,1,0,,38.990791,-76.937884,-7.122000,,,
2026-09-11T16:26:52.835,7.952961,1.462528,3.696610,13.541923,0.000000,5.361035,-1.844393,1.461770,-0.028410,-0.059810,0.253982,2.980031,-0.052934,-0.105042,-0.015446,-0.058327,-0.229672,1.269667,11.102599,-0.567134,3.354524,1,0,,38.990791,-76.937884,-7.122000,,,
2026-09-11T16:26:52.868,7.986368,1.453341,3.744666,13.456862,0.000000,5.485318,-1.887151,1.452553,-0.032850,-0.069159,0.251828,3.027418,-0.041744,-0.047114,-0.036265,-0.067675,0.546132,0.184169,9.244141,-0.526083,3.351869,1,0,,38.990791,-76.937884,-7.122000,,,
2026-09-11T16:26:52.902,8.019786,1.463501,3.793724,13.550935,0.000000,5.573208,-1.917388,1.462682,-0.039580,-0.083326,0.249280,3.074907,-0.030840,0.006977,-0.000540,-0.081842,-0.167792,2.110195,10.054170,-0.527328,3.475311,1,0,,38.990791,-76.937884,-7.122000,,,
2026-09-11T16:26:52.935,8.053208,1.454320,3.841848,13.465928,0.000000,5.374768,-1.849117,1.453563,-0.030812,-0.064867,0.246804,3.122439,-0.020015,0.071211,0.035153,-0.063383,-1.033621,3.341616,11.335703,-0.581073,3.675369,1,0,,38.990791,-76.937884,-7.122000,,,
2026-09-11T16:26:52.968,8.086617,1.435597,3.889083,13.292562,0.000000,5.240185,-1.802816,1.434886,-0.019879,-0.041850,0.245021,3.169443,-0.009090,0.069999,-0.007578,-0.040367,0.220944,1.692530,10.094377,-0.552953,3.764183,1,0,,38.990791,-76.937884,-7.122000,,,
2026-09-11T16:26:53.002,8.120024,1.436321,3.936432,13.299264,0.000000,5.329449,-1.833526,1.435585,-0.006380,-0.013432,0.244098,3.216069,0.002093,0.037920,-0.023525,-0.011948,0.942713,-1.235638,6.876031,-0.480329,3.659835,1,0,,38.990791,-76.937884,-7.122000,,,
2026-09-11T16:26:53.036,8.153431,1.397988,3.983576,12.944331,0.000000,5.155041,-1.773523,1.397318,-0.018663,-0.039291,0.243217,3.262093,0.013104,0.009641,0.078422,-0.037807,-0.049229,-2.218460,9.631111,-0.472074,3.495344,1,0,,38.990791,-76.937884,-7.122000,,,
2026-09-11T16:26:53.068,8.186841,1.398508,4.029376,12.949149,0.000000,5.106976,-1.756987,1.397851,-0.026927,-0.056688,0.241614,3.307602,0.023573,-0.004646,0.018522,-0.055204,0.842784,-1.069513,9.009075,-0.407026,3.408615,1,1,8.174638,38.990788,-76.937870,-7.117000,2.769375,-1.814145,5.117960
2026-09-11T16:26:53.102,8.220260,1.398586,4.075996,12.949866,0.000000,6.653302,-2.288980,1.397470,-0.031081,-0.065434,0.239573,3.353197,0.033761,-0.055309,-0.004474,-0.063951,1.137964,0.672148,11.017870,-0.326393,3.436368,1,0,,38.990788,-76.937870,-7.117000,,,
2026-09-11T16:26:53.135,8.253683,1.379061,4.122502,12.769086,0.000000,11.905453,-4.095913,1.375539,-0.045496,-0.095781,0.236879,3.398530,0.043453,-0.149287,-0.026949,-0.094298,0.559764,-1.063727,8.854326,-0.285548,3.354036,1,0,,38.990788,-76.937870,-7.117000,,,
2026-09-11T16:26:53.168,8.287089,1.369323,4.167732,12.678914,0.000000,15.386746,-5.293605,1.363483,-0.053543,-0.112723,0.233396,3.443407,0.052504,-0.163090,-0.044232,-0.111239,-0.222415,4.921173,6.880934,-0.300250,3.661402,1,0,,38.990788,-76.937870,-7.117000,,,
2026-09-11T16:26:53.202,8.320508,1.350395,4.212552,12.503661,0.000000,16.215527,-5.578736,1.343999,-0.074859,-0.157598,0.228879,3.487935,0.060780,-0.160402,0.010644,-0.156115,2.246900,-2.724876,11.288435,-0.161264,3.474211,1,0,,38.990788,-76.937870,-7.117000,,,
2026-09-11T16:26:53.236,8.353930,1.370301,4.258079,12.687976,0.000000,16.492932,-5.674174,1.363587,-0.078255,-0.164748,0.223493,3.532602,0.068432,-0.107313,-0.057174,-0.163264,0.660184,0.663714,10.437708,-0.130665,3.509319,1,0,,38.990788,-76.937870,-7.117000,,,
2026-09-11T16:26:53.268,8.387353,1.380584,4.303924,12.783182,0.000000,16.405042,-5.643936,1.373891,-0.078479,-0.165218,0.217979,3.577813,0.075892,-0.022970,-0.014562,-0.163734,0.513378,1.696158,9.066346,-0.118436,3.611043,1,0,,38.990788,-76.937870,-7.117000,,,
2026-09-11T16:26:53.301,8.420758,1.361320,4.348699,12.604819,0.000000,15.745175,-5.416918,1.355241,-0.060971,-0.128361,0.213075,3.622841,0.083367,0.044391,0.016684,-0.126877,-0.014416,2.971415,9.364959,-0.149010,3.790709,1,0,,38.990788,-76.937870,-7.117000,,,
2026-09-11T16:26:53.336,8.454178,1.361447,4.394430,12.605990,0.000000,13.129056,-4.516877,1.357219,-0.036657,-0.077174,0.209640,3.667500,0.091280,0.096338,0.007914,-0.075690,1.039113,0.631548,11.086124,-0.116431,3.812467,1,0,,38.990788,-76.937870,-7.117000,,,
2026-09-11T16:26:53.369,8.487596,1.371624,4.440344,12.700226,0.000000,8.717358,-2.999091,1.369746,-0.025742,-0.054194,0.207445,3.712293,0.099693,0.052168,-0.008567,-0.052710,0.700489,1.054117,8.767243,-0.111744,3.859371,1,0,,38.990788,-76.937870,-7.117000,,,
2026-09-11T16:26:53.402,8.521016,1.381502,4.486918,12.791682,0.000000,3.456967,-1.189323,1.381204,-0.011940,-0.025136,0.206120,3.757412,0.108515,0.119813,-0.093160,-0.023653,0.285766,2.577580,9.095374,-0.138610,4.001869,1,0,,38.990788,-76.937870,-7.117000,,,
2026-09-11T16:26:53.435,8.554428,1.440281,4.534632,13.335931,0.000000,-0.648487,0.223103,1.440270,0.004852,0.010214,0.205871,3.803576,0.118040,0.003696,-0.168093,0.011698,2.901101,1.043231,20.664965,-0.001180,4.040210,1,0,,38.990788,-76.937870,-7.117000,,,
2026-09-11T16:26:53.468,8.587835,1.450745,4.582596,13.432822,0.000000,-4.796512,1.650176,1.450143,0.027784,0.058492,0.207018,3.850718,0.128470,0.033375,0.176955,0.059976,3.933840,4.914210,10.872927,0.199599,4.324235,1,0,,38.990788,-76.937870,-7.117000,,,
2026-09-11T16:26:53.502,8.621241,1.489974,4.632179,13.796054,0.000000,-10.328128,3.553255,1.487109,0.051682,0.108805,0.209813,3.898442,0.139921,-0.042056,0.081409,0.110289,-0.055898,-2.028113,4.668554,0.141859,4.150603,1,0,,38.990788,-76.937870,-7.117000,,,
2026-09-11T16:26:53.537,8.654663,1.548490,4.684290,14.337871,0.000000,-11.699360,4.025009,1.544671,0.071003,0.149480,0.214129,3.947540,0.152586,-0.058459,0.114571,0.150963,2.559241,1.674289,7.636438,0.253008,4.214188,1,0,,38.990788,-76.937870,-7.117000,,,
2026-09-11T16:26:53.570,8.688082,1.587757,4.737427,14.701452,0.000000,-14.781025,5.085215,1.581507,0.080953,0.170428,0.219474,3.998007,0.166304,-0.026171,0.055209,0.171911,1.371362,1.833844,6.032071,0.285142,4.284899,1,0,,38.990788,-76.937870,-7.117000,,,
2026-09-11T16:26:53.602,8.721491,1.636465,4.791726,15.152457,0.000000,-17.281101,5.945333,1.627663,0.099740,0.209980,0.225829,4.049622,0.181087,-0.058855,0.031813,0.211463,0.653711,2.867268,13.252609,0.273613,4.417061,1,0,,38.990788,-76.937870,-7.117000,,,
2026-09-11T16:26:53.636,8.754899,1.655630,4.847369,15.329905,0.000000,-17.696521,6.088253,1.646292,0.101725,0.214157,0.232913,4.102113,0.196799,-0.064140,0.068744,0.215640,0.407662,0.284197,9.419974,0.252692,4.379770,1,0,,38.990788,-76.937870,-7.117000,,,
2026-09-11T16:26:53.669,8.788307,1.675249,4.903491,15.511568,0.000000,-17.629917,6.065338,1.665871,0.105188,0.221448,0.240190,4.155087,0.213126,-0.089230,0.063456,0.222932,0.073746,-0.320285,7.710773,0.218118,4.302689,1,0,,38.990788,-76.937870,-7.117000,,,
2026-09-11T16:26:53.703,8.821727,1.704677,4.960889,15.784044,0.000000,-17.498081,6.019982,1.695276,0.096350,0.202841,0.247280,4.208780,0.229950,-0.074011,-0.015809,0.204325,0.383636,-1.064316,7.120216,0.209110,4.179862,1,0,,38.990788,-76.937870,-7.117000,,,
2026-09-11T16:26:53.736,8.855140,1.704942,5.018013,15.786500,0.000000,-17.416370,5.991870,1.695627,0.095004,0.200008,0.254010,4.262865,0.247098,-0.094636,-0.019265,0.201491,0.932710,0.007943,9.170787,0.239383,4.128181,1,0,,38.990788,-76.937870,-7.117000,,,
2026-09-11T16:26:53.769,8.888545,1.705502,5.074499,15.791685,0.000000,-15.997760,5.503817,1.697639,0.084140,0.177137,0.260309,4.316917,0.264406,-0.067137,0.003252,0.178620,0.591537,0.219963,8.819120,0.252546,4.093299,1,0,,38.990788,-76.937870,-7.117000,,,
2026-09-11T16:26:53.802,8.921953,1.705882,5.131874,15.795201,0.000000,-10.586307,3.642078,1.702436,0.075443,0.158827,0.265921,4.371065,0.281752,-0.060188,-0.009737,0.160310,-0.440319,-0.341566,11.488295,0.204138,4.024408,1,0,,38.990788,-76.937870,-7.117000,,,
2026-09-11T16:26:53.837,8.955358,1.696842,5.188406,15.711499,0.000000,-8.123310,2.794717,1.694824,0.037786,0.079550,0.269903,4.425284,0.298597,-0.084318,-0.022204,0.081034,-1.229558,1.704494,10.997864,0.110782,4.097528,1,0,,38.990788,-76.937870,-7.117000,,,
2026-09-11T16:26:53.870,8.988783,1.668412,5.243753,15.448257,0.000000,-1.565158,0.538472,1.668338,-0.010298,-0.021680,0.270870,4.479327,0.314053,-0.123153,-0.047796,-0.020197,1.173464,-0.829348,14.820496,0.179123,4.016816,1,0,,38.990788,-76.937870,-7.117000,,,
2026-09-11T16:26:53.902,9.022189,1.620275,5.297961,15.002549,0.000000,4.493801,-1.546033,1.619685,-0.017281,-0.036382,0.269900,4.532373,0.328278,-0.244693,0.040133,-0.034898,0.176127,-4.043870,14.322416,0.185278,3.730448,1,0,,38.990788,-76.937870,-7.117000,,,
2026-09-11T16:26:53.936,9.055594,1.620992,5.351531,15.009185,0.000000,7.438824,-2.559228,1.619375,-0.049133,-0.103437,0.267565,4.584826,0.341573,-0.183494,0.013060,-0.101954,0.589772,1.637220,11.068374,0.221059,3.822022,1,0,,38.990788,-76.937870,-7.117000,,,
2026-09-11T16:26:53.971,9.088998,1.611746,5.405716,14.923574,0.000000,9.656689,-3.322255,1.609037,-0.051194,-0.107777,0.264037,4.637293,0.354120,-0.124798,-0.045615,-0.106293,1.126588,0.039325,1.062060,0.294658,3.809537,1,0,,38.990788,-76.937870,-7.117000,,,
2026-09-11T16:26:54.004,9.122409,1.611827,5.459400,14.924327,0.000000,8.914425,-3.066889,1.609519,-0.034550,-0.072736,0.261021,4.689590,0.366691,-0.104958,-0.093266,-0.071252,-0.251050,0.197310,4.412796,0.278877,3.803766,1,0,,38.990788,-76.937870,-7.117000,,,
2026-09-11T16:26:54.037,9.155831,1.621618,5.513699,15.014978,0.000000,2.554715,-0.878916,1.621427,-0.013818,-0.029090,0.259320,4.741975,0.379799,-0.059984,-0.008145,-0.027607,0.834448,1.032052,12.523190,0.333244,3.847591,1,0,,38.990788,-76.937870,-7.117000,,,
2026-09-11T16:26:54.070,9.189237,1.621624,5.567496,15.015033,0.000000,-2.689197,0.925183,1.621412,0.020819,0.043829,0.259566,4.794297,0.393808,-0.006694,-0.029392,0.045313,0.115130,-2.038999,9.965518,0.341665,3.684470,1,1,9.175764,38.990783,-76.937853,-7.045000,4.252299,-2.317117,3.384282
2026-09-11T16:26:54.103,9.222639,1.622138,5.621294,15.019798,0.000000,-11.589496,3.987212,1.618212,0.043454,0.091481,0.261826,4.846296,0.408791,0.046041,-0.007417,0.092965,0.690388,0.785513,10.441238,0.383682,3.700997,1,0,,38.990783,-76.937853,-7.045000,,,
2026-09-11T16:26:54.138,9.256061,1.612803,5.675775,14.933363,0.000000,-15.433338,5.309635,1.605883,0.084658,0.178228,0.266333,4.897745,0.424919,0.045578,-0.057387,0.179711,-0.285962,0.167792,9.490974,0.354724,3.668402,1,0,,38.990783,-76.937853,-7.045000,,,
2026-09-11T16:26:54.171,9.289480,1.622766,5.730028,15.025608,0.000000,-22.451542,7.724154,1.608042,0.110645,0.232936,0.273203,4.948635,0.442377,0.079712,-0.037578,0.234419,0.582809,2.457547,10.665811,0.379767,3.778714,1,0,,38.990783,-76.937853,-7.045000,,,
2026-09-11T16:26:54.204,9.322887,1.632690,5.784282,15.117502,0.000000,-28.177478,9.694087,1.609377,0.150257,0.316330,0.282378,4.999119,0.461305,0.140359,-0.057281,0.317813,1.303108,0.424432,10.431530,0.453031,3.747455,1,0,,38.990783,-76.937853,-7.045000,,,
2026-09-11T16:26:54.237,9.356302,1.623237,5.838626,15.029971,0.000000,-36.858738,12.680758,1.583643,0.169932,0.357752,0.293640,5.048748,0.481584,0.122081,-0.024327,0.359235,1.387249,1.680370,11.721202,0.531673,3.794133,1,0,,38.990783,-76.937853,-7.045000,,,
2026-09-11T16:26:54.270,9.389712,1.643021,5.893153,15.213155,0.000000,-36.735828,12.638473,1.603210,0.188814,0.397502,0.306256,5.097832,0.503040,0.065088,-0.017264,0.398986,0.071589,0.480036,9.123029,0.524365,3.758003,1,0,,38.990783,-76.937853,-7.045000,,,
2026-09-11T16:26:54.303,9.423116,1.633840,5.947292,15.128151,0.000000,-36.515415,12.562643,1.594724,0.177736,0.374180,0.319145,5.146771,0.525295,0.008940,0.048963,0.375664,-0.013533,-0.008041,10.516456,0.509829,3.693316,1,0,,38.990783,-76.937853,-7.045000,,,
2026-09-11T16:26:54.338,9.456532,1.614939,6.001751,14.953141,0.000000,-33.879383,11.655751,1.581638,0.143604,0.302323,0.330448,5.195357,0.547319,-0.010548,0.045626,0.303807,0.495138,-2.235132,8.744590,0.527135,3.492819,1,0,,38.990783,-76.937853,-7.045000,,,
2026-09-11T16:26:54.371,9.489971,1.644582,6.056916,15.227614,0.000000,-31.559894,10.857762,1.615141,0.139034,0.292704,0.340397,5.244269,0.569377,-0.043854,-0.009035,0.294187,0.762075,0.105716,9.931685,0.562279,3.446414,1,0,,38.990783,-76.937853,-7.045000,,,
2026-09-11T16:26:54.404,9.523375,1.644861,6.111488,15.230199,0.000000,-28.877857,9.935042,1.620195,0.128379,0.270272,0.349800,5.293610,0.591860,-0.070929,0.003187,0.271755,0.340487,-0.136803,11.336684,0.570435,3.387134,1,0,,38.990783,-76.937853,-7.045000,,,
2026-09-11T16:26:54.437,9.556782,1.625480,6.165741,15.050738,0.000000,-26.065357,8.967439,1.605612,0.128860,0.271285,0.358846,5.342655,0.614584,-0.051692,0.026756,0.272768,0.827485,-2.365560,8.945724,0.609976,3.184433,1,0,,38.990783,-76.937853,-7.045000,,,
2026-09-11T16:26:54.470,9.590186,1.596316,6.219334,14.780702,0.000000,-23.826892,8.197325,1.580006,0.108923,0.229312,0.367207,5.390984,0.637189,0.031995,0.145186,0.230795,-0.907311,-2.125689,7.920929,0.534247,3.004279,1,0,,38.990783,-76.937853,-7.045000,,,
2026-09-11T16:26:54.504,9.623588,1.596472,6.272471,14.782151,0.000000,-20.397785,7.017587,1.584513,0.091775,0.193210,0.374263,5.439030,0.659461,0.019219,0.109069,0.194693,1.521306,-2.056062,9.283563,0.617867,2.834281,1,0,,38.990783,-76.937853,-7.045000,,,
2026-09-11T16:26:54.539,9.657009,1.596836,6.326610,14.785522,0.000000,-13.613727,4.683622,1.591504,0.078532,0.165331,0.380254,5.487322,0.681658,0.027917,-0.008674,0.166814,-0.022849,-2.238270,7.302424,0.601294,2.657075,1,0,,38.990783,-76.937853,-7.045000,,,
2026-09-11T16:26:54.571,9.690428,1.626562,6.381160,15.060763,0.000000,-8.709018,2.996222,1.624339,0.044183,0.093016,0.384571,5.536412,0.703614,-0.002065,-0.037039,0.094500,-0.234967,-2.855598,9.004760,0.569062,2.449150,1,0,,38.990783,-76.937853,-7.045000,,,
2026-09-11T16:26:54.604,9.723829,1.607541,6.434570,14.884636,0.000000,-2.471531,0.850297,1.607364,0.000980,0.002064,0.386159,5.586142,0.724600,-0.007629,0.034198,0.003547,-0.486900,-1.500516,7.862874,0.522788,2.340851,1,0,,38.990783,-76.937853,-7.045000,,,
2026-09-11T16:26:54.638,9.757237,1.597996,6.487935,14.796262,0.000000,4.221203,-1.452249,1.597483,-0.030164,-0.063503,0.385133,5.635927,0.744286,-0.025861,-0.081251,-0.062020,-0.361963,-1.415002,9.356917,0.485671,2.246039,1,0,,38.990783,-76.937853,-7.045000,,,
2026-09-11T16:26:54.671,9.790643,1.588651,6.541003,14.709735,0.000000,9.261868,-3.186422,1.586195,-0.049671,-0.104570,0.382326,5.685735,0.762957,-0.039366,-0.037186,-0.103086,0.278901,-1.478745,12.400901,0.487872,2.152331,1,0,,38.990783,-76.937853,-7.045000,,,
2026-09-11T16:26:54.706,9.824052,1.608797,6.594915,14.896272,0.000000,15.861905,-5.457077,1.601506,-0.063781,-0.134276,0.378336,5.735883,0.780965,-0.110204,-0.041969,-0.132792,0.700195,-0.858572,13.054711,0.514579,2.102949,1,0,,38.990783,-76.937853,-7.045000,,,
2026-09-11T16:26:54.739,9.857480,1.609260,6.648439,14.900559,0.000000,15.722516,-5.409122,1.602094,-0.083806,-0.176434,0.373143,5.786596,0.798318,-0.043840,0.042701,-0.174950,0.670285,3.703972,10.232847,0.536840,2.353767,1,0,,38.990783,-76.937853,-7.045000,,,
2026-09-11T16:26:54.771,9.890889,1.580801,6.700915,14.637047,0.000000,15.948422,-5.486842,1.573558,-0.082647,-0.173994,0.367289,5.837054,0.814921,0.005696,-0.036401,-0.172511,0.525833,0.183090,10.921568,0.548080,2.373336,1,0,,38.990783,-76.937853,-7.045000,,,
2026-09-11T16:26:54.805,9.924288,1.610797,6.754758,14.914784,0.000000,15.944302,-5.485425,1.603420,-0.079085,-0.166495,0.361603,5.887588,0.831307,0.040474,0.112057,-0.165011,0.106892,0.306948,2.552867,0.534444,2.400253,1,0,,38.990783,-76.937853,-7.045000,,,
2026-09-11T16:26:54.839,9.957696,1.591752,6.807713,14.738440,0.000000,15.651105,-5.384554,1.584728,-0.071470,-0.150463,0.356309,5.938331,0.847661,0.004161,-0.199827,-0.148979,-1.252996,-1.822566,9.548637,0.434480,2.287281,1,0,,38.990783,-76.937853,-7.045000,,,
2026-09-11T16:26:54.873,9.991112,1.601552,6.861533,14.829181,0.000000,15.370267,-5.287936,1.594736,-0.075512,-0.158972,0.351139,5.989015,0.863758,0.046092,-0.082439,-0.157489,-0.791593,1.721754,13.035490,0.364893,2.405835,1,0,,38.990783,-76.937853,-7.045000,,,
2026-09-11T16:26:54.906,10.024522,1.620997,6.915878,15.009232,0.000000,14.990552,-5.157300,1.614435,-0.056613,-0.119185,0.346492,6.040151,0.880006,0.031558,-0.032717,-0.117702,0.720887,-2.653483,13.496304,0.395073,2.236062,1,0,,38.990783,-76.937853,-7.045000,,,
2026-09-11T16:26:54.938,10.057944,1.631080,6.970176,15.102591,0.000000,14.603284,-5.024065,1.624813,-0.057698,-0.121470,0.342470,6.091747,0.896488,0.057552,0.058540,-0.119987,-0.285864,0.215942,11.792203,0.360618,2.254123,1,0,,38.990783,-76.937853,-7.045000,,,
2026-09-11T16:26:54.972,10.091335,1.621523,7.024658,15.014105,0.000000,13.087857,-4.502703,1.616519,-0.053921,-0.113519,0.338547,6.143379,0.912805,0.027008,0.050760,-0.112035,0.511417,-2.629751,13.097664,0.380975,2.087090,1,0,,38.990783,-76.937853,-7.045000,,,
2026-09-11T16:26:55.007,10.124756,1.641268,7.079754,15.196921,0.000000,10.153134,-3.493051,1.638218,-0.041221,-0.086780,0.335200,6.195235,0.929281,0.009335,0.047420,-0.085297,0.285668,2.279164,9.410069,0.387209,2.236735,1,0,,38.990783,-76.937853,-7.045000,,,
2026-09-11T16:26:55.040,10.158172,1.651230,7.134896,15.289166,0.000000,6.678707,-2.297720,1.649902,-0.007262,-0.015288,0.333495,6.247398,0.946544,-0.011652,-0.010232,-0.013804,-0.538483,-1.861204,11.090635,0.340764,2.109254,1,0,,38.990783,-76.937853,-7.045000,,,
2026-09-11T16:26:55.072,10.191584,1.641885,7.189582,15.202639,0.000000,2.923443,-1.005772,1.641632,-0.002471,-0.005201,0.333152,6.299413,0.964382,0.003908,-0.046077,-0.003718,0.144158,3.919718,6.506124,0.341007,2.356106,1,1,10.172075,38.990779,-76.937835,-7.054000,5.790825,-2.727982,3.789738
2026-09-11T16:26:55.105,10.224988,1.642506,7.243995,15.208392,0.000000,-0.562656,0.193574,1.642497,0.025254,0.053166,0.333953,6.351116,0.982700,0.000706,0.014109,0.054649,-1.738131,-2.611903,11.353355,0.218319,2.171515,1,0,,38.990779,-76.937835,-7.054000,,,
2026-09-11T16:26:55.139,10.258392,1.623876,7.298249,15.035890,0.000000,-3.307865,1.138027,1.623556,0.013762,0.028972,0.335325,6.402427,1.001231,-0.040302,-0.006511,0.030456,-1.441872,1.034602,8.964455,0.116224,2.227423,1,0,,38.990779,-76.937835,-7.054000,,,
2026-09-11T16:26:55.174,10.291814,1.604805,7.352616,14.859304,0.000000,-5.766056,1.983735,1.603843,0.031178,0.065638,0.336906,6.453093,1.019727,-0.039733,0.041358,0.067121,-0.809343,0.897799,9.165786,0.056833,2.270119,1,0,,38.990779,-76.937835,-7.054000,,,
2026-09-11T16:26:55.206,10.325227,1.615460,7.407257,14.957959,0.000000,-5.892398,2.027201,1.614449,0.030760,0.064758,0.339085,6.503474,1.038532,-0.101431,0.044886,0.066242,0.215060,2.632497,10.864984,0.063834,2.424610,1,0,,38.990779,-76.937835,-7.054000,,,
2026-09-11T16:26:55.239,10.358631,1.576836,7.459003,14.600336,0.000000,-6.539905,2.249967,1.575621,0.052236,0.109970,0.342003,6.553232,1.057634,-0.032040,0.106956,0.111453,-0.835330,-5.052876,9.359663,0.003626,2.075823,1,0,,38.990779,-76.937835,-7.054000,,,
2026-09-11T16:26:55.273,10.392033,1.577288,7.511548,14.604515,0.000000,-7.344654,2.526830,1.575754,0.034608,0.072860,0.345056,6.602299,1.076726,0.006835,0.041436,0.074343,-0.392854,1.253878,9.639153,-0.024546,2.142584,1,0,,38.990779,-76.937835,-7.054000,,,
2026-09-11T16:26:55.306,10.425433,1.567644,7.563933,14.515225,0.000000,-8.162449,2.808182,1.565762,0.036907,0.077699,0.347571,6.651243,1.095657,0.031078,-0.028702,0.079182,-0.059919,-2.115785,8.350559,-0.030715,1.990248,1,0,,38.990779,-76.937835,-7.054000,,,
2026-09-11T16:26:55.341,10.458843,1.558003,7.616637,14.425954,0.000000,-8.520877,2.931495,1.555964,0.032219,0.067830,0.350002,6.699857,1.114565,0.016055,0.061591,0.069314,-0.374712,0.554174,9.677006,-0.057798,2.013309,1,0,,38.990779,-76.937835,-7.054000,,,
2026-09-11T16:26:55.373,10.492252,1.577355,7.669090,14.605141,0.000000,-8.577182,2.950866,1.575264,0.044422,0.093521,0.352697,6.748526,1.133769,0.044863,-0.013292,0.095004,1.130314,0.808362,6.468957,0.013906,2.049854,1,0,,38.990779,-76.937835,-7.054000,,,
2026-09-11T16:26:55.406,10.525661,1.586942,7.722295,14.693903,0.000000,-9.086673,3.126149,1.584580,0.044846,0.094412,0.355837,6.797515,1.153479,0.051694,-0.127194,0.095896,1.076770,-1.226910,4.399950,0.082512,1.954194,1,0,,38.990779,-76.937835,-7.054000,,,
2026-09-11T16:26:55.439,10.559068,1.596969,7.775523,14.786748,0.000000,-8.874500,3.053154,1.594702,0.049540,0.104295,0.359156,6.846711,1.173539,0.048751,-0.047330,0.105778,0.670088,-1.536800,14.150212,0.125084,1.838478,1,0,,38.990779,-76.937835,-7.054000,,,
2026-09-11T16:26:55.473,10.592473,1.597511,7.828842,14.791770,0.000000,-8.775623,3.019136,1.595294,0.033889,0.071345,0.362089,6.896073,1.193643,0.043455,-0.045016,0.072829,0.654986,2.301523,10.173321,0.163849,1.975692,1,0,,38.990779,-76.937835,-7.054000,,,
2026-09-11T16:26:55.507,10.625880,1.597792,7.882025,14.794373,0.000000,-8.783863,3.021971,1.595570,0.033549,0.070630,0.364461,6.945493,1.213635,0.037912,-0.067187,0.072114,0.698037,-1.538958,8.182767,0.201788,1.863066,1,0,,38.990779,-76.937835,-7.054000,,,
2026-09-11T16:26:55.541,10.659296,1.588323,7.935754,14.706695,0.000000,-8.775623,3.019136,1.586119,0.036397,0.076626,0.366921,6.994720,1.233736,0.040257,-0.062698,0.078110,0.029812,-0.836507,11.610485,0.197401,1.796532,1,0,,38.990779,-76.937835,-7.054000,,,
2026-09-11T16:26:55.574,10.692706,1.598650,7.989369,14.802311,0.000000,-8.604648,2.960315,1.596516,0.026123,0.054997,0.369120,7.043949,1.253838,0.045207,-0.064603,0.056480,0.417371,1.846886,9.743495,0.218692,1.906502,1,0,,38.990779,-76.937835,-7.054000,,,
2026-09-11T16:26:55.606,10.726112,1.589475,8.041093,14.717362,0.000000,-6.546085,2.252093,1.588247,0.019656,0.041381,0.370730,7.093269,1.273783,0.053174,0.027025,0.042864,0.209470,-1.769610,10.746421,0.227319,1.782768,1,0,,38.990779,-76.937835,-7.054000,,,
2026-09-11T16:26:55.640,10.759518,1.561065,8.093068,14.454303,0.000000,-1.933200,0.665092,1.560960,-0.004233,-0.008912,0.371272,7.142200,1.293094,0.068828,0.067291,-0.007428,0.161417,-1.374500,6.603406,0.235782,1.691106,1,0,,38.990779,-76.937835,-7.054000,,,
2026-09-11T16:26:55.673,10.792920,1.532441,8.144655,14.189268,0.000000,5.307476,-1.825967,1.531663,-0.038067,-0.080140,0.369785,7.190599,1.311138,0.032149,0.033017,-0.078657,0.167105,-0.298122,7.513071,0.246649,1.677119,1,0,,38.990779,-76.937835,-7.054000,,,
2026-09-11T16:26:55.707,10.826326,1.542615,8.196334,14.283472,0.000000,15.664151,-5.389043,1.535797,-0.071140,-0.149769,0.365945,7.239061,1.327861,0.029454,0.053515,-0.148285,0.575160,-1.434026,7.385682,0.285066,1.596759,1,0,,38.990779,-76.937835,-7.054000,,,
2026-09-11T16:26:55.742,10.859748,1.552973,8.248947,14.379380,0.000000,21.569989,-7.420868,1.539966,-0.104591,-0.220192,0.359762,7.288155,1.343359,0.027598,0.024222,-0.218709,-0.563294,-1.442656,8.713405,0.248715,1.523747,1,0,,38.990779,-76.937835,-7.054000,,,
2026-09-11T16:26:55.774,10.893155,1.572318,8.300876,14.558496,0.000000,30.266355,-10.412737,1.546424,-0.152944,-0.321988,0.350706,7.337983,1.357254,-0.007273,0.005622,-0.320504,0.120622,-0.559273,9.584039,0.256845,1.518987,1,0,,38.990779,-76.937835,-7.054000,,,
2026-09-11T16:26:55.807,10.926562,1.552865,8.352691,14.378376,0.000000,39.394622,-13.553196,1.509622,-0.178958,-0.376753,0.339034,7.387893,1.369297,-0.014461,-0.032890,-0.375269,0.020496,-0.749620,10.153217,0.259897,1.506549,1,0,,38.990779,-76.937835,-7.054000,,,
2026-09-11T16:26:55.840,10.959964,1.572373,8.405486,14.559012,0.000000,43.910690,-15.106889,1.518034,-0.208291,-0.438508,0.325419,7.437798,1.379672,-0.064501,-0.000079,-0.437025,-0.297436,-1.843454,11.878991,0.243050,1.429782,1,0,,38.990779,-76.937835,-7.054000,,,
2026-09-11T16:26:55.875,10.993364,1.582476,8.458395,14.652552,0.000000,52.913985,-18.204353,1.503270,-0.241412,-0.508236,0.309608,7.488070,1.388290,-0.083925,-0.051885,-0.506753,0.098459,-1.054705,10.823404,0.248507,1.411233,1,0,,38.990779,-76.937835,-7.054000,,,
2026-09-11T16:26:55.908,11.026778,1.582939,8.511327,14.656840,0.000000,54.285217,-18.676107,1.499587,-0.258289,-0.543767,0.292032,7.538456,1.395182,-0.082649,-0.026907,-0.542283,-0.020888,-0.473465,9.249338,0.240641,1.433808,1,0,,38.990779,-76.937835,-7.054000,,,
2026-09-11T16:26:55.941,11.060193,1.573400,8.564555,14.568519,0.000000,54.574294,-18.775560,1.489674,-0.263800,-0.555368,0.273669,7.588844,1.400745,-0.030593,-0.012519,-0.553885,0.223395,-0.191916,10.515867,0.245246,1.475117,1,0,,38.990779,-76.937835,-7.054000,,,
2026-09-11T16:26:55.974,11.093593,1.573517,8.616712,14.569599,0.000000,54.329848,-18.691462,1.490526,-0.247932,-0.521963,0.255677,7.639117,1.405516,0.055162,0.026723,-0.520479,-0.046778,-1.058039,13.933975,0.232508,1.456754,1,0,,38.990779,-76.937835,-7.054000,,,
2026-09-11T16:26:56.007,11.126999,1.583869,8.669461,14.665454,0.000000,54.084716,-18.607127,1.501078,-0.238192,-0.501457,0.238583,7.689554,1.409866,-0.016089,-0.009775,-0.499973,1.713516,-3.112827,13.563676,0.334828,1.304061,1,0,,38.990779,-76.937835,-7.054000,,,
2026-09-11T16:26:56.041,11.160405,1.565024,8.721618,14.490959,0.000000,53.753066,-18.493027,1.484209,-0.241773,-0.508995,0.221705,7.739928,1.413437,0.014176,-0.005179,-0.507512,0.384323,0.359610,9.072720,0.346820,1.377818,1,0,,38.990779,-76.937835,-7.054000,,,
2026-09-11T16:26:56.076,11.193814,1.555659,8.774550,14.404252,0.000000,52.510238,-18.065449,1.478970,-0.236380,-0.497642,0.204890,7.789994,1.416109,-0.024550,0.011023,-0.496159,-0.166713,0.276155,9.661119,0.320668,1.444109,1,1,11.170964,38.990775,-76.937818,-7.132000,7.277062,-3.234846,3.424987
2026-09-11T16:26:56.109,11.227234,1.546558,8.826138,14.319984,0.000000,50.670028,-17.432349,1.475527,-0.221124,-0.465525,0.188796,7.839906,1.418268,-0.009118,-0.019359,-0.464042,-0.206822,-0.398444,8.637697,0.291450,1.462862,1,0,,38.990775,-76.937818,-7.132000,,,
2026-09-11T16:26:56.141,11.260644,1.557084,8.878523,14.417449,0.000000,46.235671,-15.906768,1.497462,-0.210730,-0.443642,0.173608,7.890058,1.420120,0.016473,0.040891,-0.442158,-0.617917,1.696452,9.283073,0.232574,1.615450,1,0,,38.990775,-76.937818,-7.132000,,,
2026-09-11T16:26:56.174,11.294046,1.548001,8.929358,14.333341,0.000000,39.468093,-13.578472,1.504733,-0.191290,-0.402716,0.159473,7.940617,1.421810,0.059861,-0.114715,-0.401232,-0.372653,1.084714,7.863070,0.188270,1.722975,1,0,,38.990775,-76.937818,-7.132000,,,
2026-09-11T16:26:56.208,11.327451,1.567613,8.981264,14.514932,0.000000,38.766341,-13.337044,1.525334,-0.174870,-0.368148,0.146598,7.991569,1.423478,-0.000533,-0.241477,-0.366664,1.675466,1.243189,20.823833,0.277641,1.836697,1,0,,38.990775,-76.937818,-7.132000,,,
2026-09-11T16:26:56.242,11.360857,1.547997,9.032396,14.333307,0.000000,36.884933,-12.689770,1.510185,-0.155075,-0.326474,0.134995,8.042544,1.425139,0.031927,0.020954,-0.324990,2.545120,-0.440122,12.427281,0.425429,1.835861,1,0,,38.990775,-76.937818,-7.132000,,,
2026-09-11T16:26:56.276,11.394267,1.557876,9.085077,14.424780,0.000000,36.922698,-12.702763,1.519746,-0.158680,-0.334063,0.123961,8.093411,1.426475,-0.006592,-0.090575,-0.332579,1.092657,-0.765115,10.960501,0.478951,1.814960,1,0,,38.990775,-76.937818,-7.132000,,,
2026-09-11T16:26:56.309,11.427681,1.568157,9.137211,14.519971,0.000000,37.019515,-12.736072,1.529574,-0.149644,-0.315041,0.113116,8.144608,1.427384,-0.021569,-0.020378,-0.313557,0.319795,-0.670285,10.149098,0.480330,1.798753,1,0,,38.990775,-76.937818,-7.132000,,,
2026-09-11T16:26:56.341,11.461083,1.568335,9.188936,14.521622,0.000000,37.873016,-13.029707,1.527956,-0.157728,-0.332060,0.102309,8.195925,1.427770,-0.003915,-0.016219,-0.330576,-0.074629,-2.456860,8.477457,0.456766,1.668848,1,0,,38.990775,-76.937818,-7.132000,,,
2026-09-11T16:26:56.375,11.494482,1.578141,9.241913,14.612418,0.000000,39.084258,-13.446419,1.534881,-0.167947,-0.353573,0.090859,8.247358,1.427289,-0.071000,-0.034398,-0.352089,-0.026870,1.015577,8.957688,0.441004,1.767211,1,0,,38.990775,-76.937818,-7.132000,,,
2026-09-11T16:26:56.409,11.527885,1.607770,9.295255,14.886761,0.000000,39.813476,-13.697297,1.562046,-0.194999,-0.410525,0.078098,8.299404,1.425610,-0.103132,-0.057367,-0.409042,0.371574,1.010477,9.305432,0.454676,1.870542,1,0,,38.990775,-76.937818,-7.132000,,,
2026-09-11T16:26:56.443,11.561294,1.598661,9.348916,14.802417,0.000000,40.486388,-13.928803,1.551653,-0.197564,-0.415924,0.064292,8.351751,1.422770,-0.038559,-0.009670,-0.414440,-0.288414,-0.509161,10.115952,0.428147,1.874719,1,0,,38.990775,-76.937818,-7.132000,,,
2026-09-11T16:26:56.475,11.594722,1.589380,9.401870,14.716478,0.000000,40.730834,-14.012902,1.542082,-0.195934,-0.412493,0.050446,8.403750,1.419170,-0.051129,-0.062397,-0.411010,0.268408,1.092853,8.991816,0.440199,1.981933,1,0,,38.990775,-76.937818,-7.132000,,,
2026-09-11T16:26:56.509,11.628130,1.560863,9.454255,14.452432,0.000000,40.745940,-14.018099,1.514379,-0.192262,-0.404763,0.036795,8.455039,1.414921,0.028506,-0.001598,-0.403279,-0.518281,1.050783,10.946967,0.401522,2.083683,1,0,,38.990775,-76.937818,-7.132000,,,
2026-09-11T16:26:56.542,11.661534,1.561795,9.506617,14.461062,0.000000,40.747314,-14.018571,1.515280,-0.186303,-0.392217,0.023484,8.505807,1.410126,0.067223,-0.018411,-0.390733,-0.332445,-1.977119,8.277499,0.381401,1.987257,1,0,,38.990775,-76.937818,-7.132000,,,
2026-09-11T16:26:56.576,11.694932,1.562252,9.558524,14.465295,0.000000,40.536514,-13.946048,1.516202,-0.190432,-0.400909,0.010239,8.556528,1.404690,0.082131,-0.017177,-0.399426,0.159946,0.760408,9.375844,0.399636,2.069810,1,0,,38.990775,-76.937818,-7.132000,,,
2026-09-11T16:26:56.610,11.728348,1.543088,9.609952,14.287849,0.000000,40.574966,-13.959277,1.497516,-0.185356,-0.390224,-0.002979,8.606902,1.398596,0.086273,-0.008753,-0.388740,-0.431787,-1.791087,11.842903,0.378783,1.984897,1,0,,38.990775,-76.937818,-7.132000,,,
2026-09-11T16:26:56.643,11.761760,1.514276,9.661106,14.021073,0.000000,42.280593,-14.546076,1.465737,-0.194863,-0.410238,-0.016351,8.656340,1.391770,0.087543,0.025977,-0.408754,-0.512397,-0.559175,9.960517,0.351902,1.981722,1,0,,38.990775,-76.937818,-7.132000,,,
2026-09-11T16:26:56.675,11.795160,1.533543,9.711873,14.199476,0.000000,47.067199,-16.192844,1.472705,-0.223960,-0.471495,-0.031077,8.705229,1.383613,-0.121255,-0.016154,-0.470011,0.035794,2.043019,12.140045,0.362725,2.152883,1,0,,38.990775,-76.937818,-7.132000,,,
2026-09-11T16:26:56.710,11.828563,1.533609,9.763233,14.200081,0.000000,54.396453,-18.714376,1.452527,-0.236676,-0.498266,-0.047273,8.753742,1.374015,-0.108068,0.046592,-0.496782,-0.863868,-3.958945,7.459232,0.316799,1.935894,1,0,,38.990775,-76.937818,-7.132000,,,
2026-09-11T16:26:56.744,11.861980,1.534123,9.814683,14.204846,0.000000,57.612703,-19.820884,1.443238,-0.264533,-0.556912,-0.064903,8.801574,1.362944,-0.106005,-0.007850,-0.555428,-0.246539,-3.473025,8.526784,0.311157,1.757841,1,0,,38.990775,-76.937818,-7.132000,,,
2026-09-11T16:26:56.776,11.895398,1.544279,9.866293,14.298884,0.000000,60.885942,-20.946999,1.442220,-0.270412,-0.569287,-0.083721,8.848987,1.350452,-0.051647,0.286550,-0.567804,-1.371264,-0.886129,2.523153,0.230665,1.750243,1,0,,38.990775,-76.937818,-7.132000,,,
2026-09-11T16:26:56.809,11.928801,1.486235,9.915466,13.761439,0.000000,66.835039,-22.993706,1.368151,-0.282851,-0.595476,-0.103174,8.894855,1.336884,0.011406,-0.119421,-0.593992,-3.127537,3.986992,-1.453247,0.035108,2.057480,1,0,,38.990775,-76.937818,-7.132000,,,
2026-09-11T16:26:56.843,11.962205,1.467011,9.964752,13.583439,0.000000,66.088655,-22.736923,1.353009,-0.284587,-0.599130,-0.123127,8.938941,1.322339,0.121496,0.136128,-0.597646,-1.718714,0.260465,7.630162,-0.068171,2.120052,1,0,,38.990775,-76.937818,-7.132000,,,
2026-09-11T16:26:56.877,11.995654,1.496373,10.015405,13.855308,0.000000,65.315493,-22.470926,1.382759,-0.263011,-0.553708,-0.142407,8.983081,1.307200,0.108109,-0.040107,-0.552225,-0.081101,0.011866,7.464920,-0.067566,2.162999,1,0,,38.990775,-76.937818,-7.132000,,,
2026-09-11T16:26:56.910,12.029072,1.506549,10.065990,13.949531,0.000000,61.990755,-21.327095,1.403380,-0.259847,-0.547047,-0.160800,9.027780,1.291531,0.200434,-0.030375,-0.545563,-0.828564,-1.206512,12.427183,-0.117167,2.126732,1,0,,38.990775,-76.937818,-7.132000,,,
2026-09-11T16:26:56.943,12.062484,1.468557,10.114432,13.597745,0.000000,61.520403,-21.165276,1.369492,-0.248041,-0.522192,-0.178662,9.072005,1.275348,0.169474,0.024593,-0.520709,-0.072569,-3.596491,10.460754,-0.117061,1.932867,1,0,,38.990775,-76.937818,-7.132000,,,
2026-09-11T16:26:56.976,12.095885,1.459568,10.162260,13.514515,0.000000,62.146624,-21.380719,1.359118,-0.260766,-0.548981,-0.196552,9.115187,1.258504,0.051855,0.062695,-0.547497,-1.292320,-2.178940,10.970209,-0.196008,1.834887,1,0,,38.990775,-76.937818,-7.132000,,,
2026-09-11T16:26:57.010,12.129291,1.450648,10.210452,13.431925,0.000000,67.091845,-23.082057,1.334515,-0.282333,-0.594385,-0.215649,9.157364,1.240423,-0.008591,0.018835,-0.592902,-0.439436,1.128353,9.846073,-0.221031,1.954929,1,0,,38.990775,-76.937818,-7.132000,,,
2026-09-11T16:26:57.044,12.162698,1.499621,10.260673,13.885383,0.000000,71.010530,-24.430228,1.365354,-0.311088,-0.654922,-0.236517,9.199085,1.220650,-0.113438,0.046662,-0.653438,0.594381,-2.452055,9.750850,-0.183561,1.848598,1,0,,38.990775,-76.937818,-7.132000,,,
2026-09-11T16:26:57.078,12.196107,1.529221,10.311463,14.159455,0.000000,75.788897,-26.074162,1.373586,-0.333038,-0.701132,-0.259169,9.240792,1.198996,-0.106486,0.025783,-0.699648,0.275175,-2.086855,12.280868,-0.169664,1.771518,1,1,12.196246,38.990765,-76.937806,-7.193000,8.312733,-4.294533,5.166441
2026-09-11T16:26:57.110,12.229511,1.539108,10.362708,14.251003,0.000000,80.430620,-27.671085,1.363078,-0.350480,-0.737852,-0.283203,9.281766,1.175758,-0.130338,0.008766,-0.736369,-0.081689,0.104245,11.133098,-0.176210,1.839769,1,0,,38.990765,-76.937806,-7.193000,,,
2026-09-11T16:26:57.143,12.262913,1.558459,10.414888,14.430173,0.000000,82.220018,-28.286704,1.372359,-0.373887,-0.787131,-0.308672,9.321927,1.150865,-0.102129,0.009164,-0.785647,1.098737,0.537404,6.557511,-0.100301,1.940088,1,0,,38.990765,-76.937806,-7.193000,,,
2026-09-11T16:26:57.177,12.296312,1.558716,10.466612,14.432557,0.000000,83.508852,-28.730110,1.366828,-0.375307,-0.790119,-0.335012,9.361362,1.124530,-0.083608,-0.001113,-0.788636,-0.559764,-1.709789,8.750670,-0.133357,1.893956,1,0,,38.990765,-76.937806,-7.193000,,,
2026-09-11T16:26:57.211,12.329730,1.549256,10.518587,14.344967,0.000000,84.191378,-28.964923,1.355470,-0.375298,-0.790101,-0.361415,9.399836,1.097225,-0.040326,-0.023673,-0.788618,0.313813,-2.592584,10.899896,-0.113006,1.790614,1,0,,38.990765,-76.937806,-7.193000,,,
2026-09-11T16:26:57.245,12.363140,1.539900,10.570744,14.258331,0.000000,85.808428,-29.521248,1.339979,-0.383141,-0.806612,-0.388088,9.437097,1.068959,-0.009975,-0.007562,-0.805128,-0.315970,-2.201299,8.291032,-0.134458,1.714390,1,0,,38.990765,-76.937806,-7.193000,,,
2026-09-11T16:26:57.278,12.396550,1.598486,10.623721,14.800793,0.000000,88.555010,-30.466173,1.377781,-0.395605,-0.832852,-0.415476,9.473785,1.039228,-0.161256,-0.114008,-0.831369,0.672246,-3.644543,7.932109,-0.090353,1.549966,1,0,,38.990765,-76.937806,-7.193000,,,
2026-09-11T16:26:57.310,12.429953,1.570432,10.675536,14.541032,0.000000,91.973131,-31.642132,1.336973,-0.401972,-0.846257,-0.443519,9.509460,1.008249,-0.127409,-0.065881,-0.844774,-0.131703,-4.299039,4.576469,-0.094665,1.344035,1,0,,38.990765,-76.937806,-7.193000,,,
2026-09-11T16:26:57.344,12.463358,1.561170,10.727329,14.455277,0.000000,92.297228,-31.753633,1.327492,-0.409078,-0.861217,-0.472038,9.543390,0.976435,-0.094041,-0.001006,-0.859734,-0.824249,1.630552,5.441318,-0.142818,1.524626,1,0,,38.990765,-76.937806,-7.193000,,,
2026-09-11T16:26:57.378,12.496763,1.542061,10.778597,14.278345,0.000000,92.900103,-31.961044,1.308297,-0.407499,-0.857893,-0.500751,9.575932,0.943806,-0.063028,0.001457,-0.856409,-0.588007,0.625566,8.795290,-0.176303,1.636869,1,0,,38.990765,-76.937806,-7.193000,,,
2026-09-11T16:26:57.412,12.530170,1.513532,10.829661,14.014190,0.000000,92.864397,-31.948760,1.284265,-0.402967,-0.848351,-0.529252,9.606953,0.910703,-0.028743,0.005201,-0.846867,-1.865421,-2.142557,11.215768,-0.292909,1.566713,1,0,,38.990765,-76.937806,-7.193000,,,
2026-09-11T16:26:57.445,12.563590,1.543304,10.880929,14.289856,0.000000,93.080690,-32.023173,1.308466,-0.414166,-0.871928,-0.557998,9.636961,0.876607,-0.054505,0.074338,-0.870445,-1.796284,1.714006,10.399952,-0.405446,1.750165,1,0,,38.990765,-76.937806,-7.193000,,,
2026-09-11T16:26:57.477,12.596996,1.524581,10.931423,14.116494,0.000000,92.869890,-31.950650,1.293614,-0.399143,-0.840300,-0.586597,9.666143,0.841654,-0.058935,-0.036293,-0.838817,0.121406,0.559175,9.195500,-0.394949,1.853335,1,0,,38.990765,-76.937806,-7.193000,,,
2026-09-11T16:26:57.511,12.630404,1.515516,10.981734,14.032552,0.000000,92.766207,-31.914979,1.286420,-0.396690,-0.835138,-0.614584,9.694184,0.806336,-0.022370,-0.018836,-0.833654,-0.083749,-3.349559,9.357211,-0.398089,1.701730,1,0,,38.990765,-76.937806,-7.193000,,,
2026-09-11T16:26:57.544,12.663809,1.506151,11.031339,13.945845,0.000000,92.804659,-31.928208,1.278288,-0.387224,-0.815209,-0.642149,9.721143,0.770567,-0.036976,0.048031,-0.813725,0.863377,0.361375,10.250891,-0.340188,1.789734,1,0,,38.990765,-76.937806,-7.193000,,,
2026-09-11T16:26:57.580,12.697226,1.486787,11.080990,13.766549,0.000000,92.703722,-31.893482,1.262330,-0.382217,-0.804668,-0.669214,9.746952,0.734500,-0.010407,0.018816,-0.803184,0.012062,-1.830804,8.094899,-0.337517,1.733263,1,0,,38.990765,-76.937806,-7.193000,,,
2026-09-11T16:26:57.613,12.730633,1.486699,11.130162,13.765729,0.000000,92.760714,-31.913090,1.261986,-0.389026,-0.819002,-0.696335,9.771533,0.697906,-0.022482,-0.037577,-0.817518,0.072569,-0.165046,8.695851,-0.327556,1.786324,1,0,,38.990765,-76.937806,-7.193000,,,
2026-09-11T16:26:57.646,12.764058,1.506302,11.180633,13.947243,0.000000,92.716082,-31.897735,1.278839,-0.393217,-0.827825,-0.723858,9.795205,0.660312,-0.050223,-0.021562,-0.826342,1.010183,-1.963880,10.560291,-0.256123,1.724042,1,0,,38.990765,-76.937806,-7.193000,,,
2026-09-11T16:26:57.678,12.797464,1.506463,11.230420,13.948728,0.000000,92.694109,-31.890175,1.279081,-0.402667,-0.847720,-0.751844,9.817871,0.621741,-0.035397,-0.019089,-0.846237,0.312538,0.347548,7.738133,-0.231667,1.813637,1,0,,38.990765,-76.937806,-7.193000,,,
2026-09-11T16:26:57.711,12.830868,1.516467,11.281301,14.041357,0.000000,92.694109,-31.890175,1.287575,-0.401490,-0.845243,-0.780120,9.839452,0.582345,-0.084905,-0.036532,-0.843760,-0.061978,-1.559454,9.900794,-0.228229,1.779164,1,0,,38.990765,-76.937806,-7.193000,,,
2026-09-11T16:26:57.746,12.864273,1.517013,11.331954,14.046412,0.000000,92.742174,-31.906711,1.287807,-0.412471,-0.868361,-0.808742,9.859889,0.542135,-0.086172,-0.078335,-0.866877,1.157479,-2.401845,7.538176,-0.143035,1.692529,1,0,,38.990765,-76.937806,-7.193000,,,
2026-09-11T16:26:57.779,12.897691,1.546284,11.383860,14.317440,0.000000,92.515581,-31.828755,1.313766,-0.433735,-0.913126,-0.838508,9.879046,0.500640,-0.074691,-0.111356,-0.911643,1.456189,0.162888,11.263722,-0.042936,1.778020,1,0,,38.990765,-76.937806,-7.193000,,,
2026-09-11T16:26:57.812,12.931098,1.517526,11.434628,14.051164,0.000000,92.650164,-31.875056,1.288685,-0.386214,-0.813082,-0.867343,9.897335,0.458888,-0.199141,-0.034562,-0.811599,-2.008402,-3.320434,12.855538,-0.173616,1.627418,1,0,,38.990765,-76.937806,-7.193000,,,
2026-09-11T16:26:57.845,12.964504,1.479138,11.484096,13.695721,0.000000,92.628878,-31.867733,1.256186,-0.381406,-0.802961,-0.894335,9.914506,0.417950,-0.092773,0.066839,-0.801477,1.629473,-1.317916,19.251729,-0.065672,1.605477,1,0,,38.990765,-76.937806,-7.193000,,,
2026-09-11T16:26:57.878,12.997909,1.421551,11.531582,13.162511,0.000000,92.650164,-31.875056,1.207184,-0.353403,-0.744007,-0.920173,9.930189,0.377982,-0.007299,0.221270,-0.742523,0.321462,-2.332414,11.766509,-0.033682,1.511020,1,0,,38.990765,-76.937806,-7.193000,,,
2026-09-11T16:26:57.913,13.031308,1.412311,11.578863,13.076954,0.000000,92.718828,-31.898679,1.199029,-0.349334,-0.735439,-0.944880,9.944706,0.338722,-0.001907,0.064148,-0.733956,-0.237517,-3.614143,2.707616,-0.031755,1.333689,1,0,,38.990765,-76.937806,-7.193000,,,
2026-09-11T16:26:57.948,13.064725,1.442177,11.627579,13.353495,0.000000,92.961214,-31.982069,1.223275,-0.378986,-0.797866,-0.970499,9.958033,0.298623,-0.019233,0.352758,-0.796383,-1.650753,-1.630356,3.805569,-0.119703,1.292667,1,0,,38.990765,-76.937806,-7.193000,,,
2026-09-11T16:26:57.979,13.098132,1.365326,11.673037,12.641905,0.000000,93.782442,-32.264602,1.154508,-0.338018,-0.711618,-0.995712,9.970102,0.258934,-0.084171,-0.276404,-0.710134,-5.761309,-8.142756,1.840904,-0.471520,0.820910,1,0,,38.990765,-76.937806,-7.193000,,,
2026-09-11T16:26:58.012,13.131534,1.365990,11.718746,12.648060,0.000000,93.589495,-32.198221,1.155914,-0.368593,-0.775984,-1.020557,9.980700,0.220009,0.017797,-0.134914,-0.774501,1.814132,1.046468,14.097746,-0.326840,0.953586,1,0,,38.990765,-76.937806,-7.193000,,,
2026-09-11T16:26:58.046,13.164934,1.414768,11.766687,13.099703,0.000000,94.381884,-32.470832,1.193590,-0.360587,-0.759131,-1.046193,9.990318,0.180067,-0.052957,-0.084111,-0.757647,0.804734,-1.813053,9.718292,-0.248929,0.900455,1,1,13.171830,38.990753,-76.937805,-7.204000,8.361276,-5.629428,3.384803
2026-09-11T16:26:58.079,13.198335,1.443831,11.815290,13.368809,0.000000,94.488314,-32.507447,1.217614,-0.401073,-0.844365,-1.072973,9.998915,0.138733,-0.085018,-0.046314,-0.842881,-1.386562,-1.245150,10.948929,-0.318278,0.892528,1,0,,38.990753,-76.937805,-7.204000,,,
2026-09-11T16:26:58.114,13.231745,1.366133,11.861727,12.649380,0.000000,95.335634,-32.798957,1.148339,-0.399654,-0.841378,-1.101132,10.005470,0.097535,-0.124773,0.084926,-0.839894,-2.555221,-1.312326,11.738168,-0.469179,0.876336,1,0,,38.990753,-76.937805,-7.204000,,,
2026-09-11T16:26:58.146,13.265154,1.288698,11.904246,11.932385,0.000000,95.720156,-32.931246,1.081634,-0.357675,-0.752999,-1.127766,10.010546,0.058523,-0.040771,0.089411,-0.751516,-1.379698,-1.672426,11.140060,-0.547480,0.827216,1,0,,38.990753,-76.937805,-7.204000,,,
2026-09-11T16:26:58.179,13.298555,1.269806,11.946240,11.757462,0.000000,95.792940,-32.956287,1.065476,-0.367471,-0.773623,-1.153261,10.014499,0.020889,-0.002771,0.072819,-0.772139,-0.355589,-0.477388,8.842068,-0.559752,0.856569,1,0,,38.990753,-76.937805,-7.204000,,,
2026-09-11T16:26:58.212,13.331954,1.270189,11.988577,11.761013,0.000000,95.801867,-32.959358,1.065761,-0.337534,-0.710597,-1.178047,10.017709,-0.016464,0.077176,0.036637,-0.709114,0.341075,-0.938791,9.573742,-0.532492,0.851428,1,0,,38.990753,-76.937805,-7.204000,,,
2026-09-11T16:26:58.247,13.365353,1.260730,12.030799,11.673425,0.000000,95.549868,-32.872661,1.058861,-0.340803,-0.717481,-1.201895,10.020381,-0.053609,0.147765,0.031557,-0.715997,-0.766782,0.386676,10.409759,-0.584134,0.932210,1,0,,38.990753,-76.937805,-7.204000,,,
2026-09-11T16:26:58.280,13.398761,1.251170,12.072338,11.584904,0.000000,95.497683,-32.854707,1.051044,-0.340254,-0.716325,-1.225846,10.022037,-0.090604,0.143556,0.012730,-0.714842,0.417469,-1.648890,8.099999,-0.561128,0.880012,1,0,,38.990753,-76.937805,-7.204000,,,
2026-09-11T16:26:58.314,13.432171,1.260995,12.114606,11.675880,0.000000,95.816286,-32.964319,1.057987,-0.353979,-0.745220,-1.250261,10.022581,-0.127685,0.111768,-0.008215,-0.743736,-0.213785,-3.157055,9.792627,-0.579632,0.733130,1,0,,38.990753,-76.937805,-7.204000,,,
2026-09-11T16:26:58.346,13.465596,1.280698,12.157785,11.858311,0.000000,97.819918,-33.653641,1.066056,-0.361933,-0.761963,-1.275449,10.021937,-0.165136,0.027402,-0.004432,-0.760480,0.801007,-0.059821,8.803920,-0.537214,0.789794,1,0,,38.990753,-76.937805,-7.204000,,,
2026-09-11T16:26:58.379,13.498995,1.310285,12.201124,12.132267,0.000000,100.155886,-34.457300,1.080393,-0.376234,-0.792071,-1.301401,10.020082,-0.202990,-0.030346,0.009677,-0.790588,-0.614681,-1.348316,10.511454,-0.597204,0.765275,1,0,,38.990753,-76.937805,-7.204000,,,
2026-09-11T16:26:58.414,13.532393,1.339989,12.245853,12.407304,0.000000,103.778633,-35.703658,1.088133,-0.388122,-0.817099,-1.328273,10.016900,-0.241249,-0.049901,0.033014,-0.815616,0.536522,0.283608,8.908263,-0.589002,0.848714,1,0,,38.990753,-76.937805,-7.204000,,,
2026-09-11T16:26:58.448,13.565811,1.378993,12.292473,12.768449,0.000000,105.113472,-36.162892,1.113319,-0.385792,-0.812195,-1.355496,10.012648,-0.280006,-0.016495,0.218690,-0.810711,3.405555,-3.157153,15.331815,-0.400758,0.709630,1,0,,38.990753,-76.937805,-7.204000,,,
2026-09-11T16:26:58.480,13.599217,1.399099,12.339572,12.954618,0.000000,104.779075,-36.047847,1.131207,-0.405741,-0.854191,-1.383330,10.007188,-0.319376,0.077773,-0.081874,-0.852707,-2.170604,2.755571,-5.432982,-0.582426,0.958578,1,0,,38.990753,-76.937805,-7.204000,,,
2026-09-11T16:26:58.513,13.632619,1.418928,12.386716,13.138220,0.000000,103.452476,-35.591448,1.153854,-0.384237,-0.808920,-1.411106,10.000780,-0.359246,-0.087361,-0.149604,-0.807436,2.416653,-0.311557,20.167278,-0.470997,1.004257,1,0,,38.990753,-76.937805,-7.204000,,,
2026-09-11T16:26:58.546,13.666024,1.458092,12.435614,13.500848,0.000000,98.762001,-33.977753,1.209129,-0.398215,-0.838348,-1.438619,9.993577,-0.400189,0.035750,-0.136931,-0.836864,-0.490725,1.007437,10.265699,-0.551602,1.139930,1,0,,38.990753,-76.937805,-7.204000,,,
2026-09-11T16:26:58.581,13.699434,1.438759,12.484240,13.321842,0.000000,92.577385,-31.850018,1.222128,-0.374980,-0.789431,-1.465811,9.985555,-0.442048,-0.068816,-0.014993,-0.787948,1.013125,-0.955952,9.226685,-0.533569,1.143959,1,0,,38.990753,-76.937805,-7.204000,,,
2026-09-11T16:26:58.613,13.732835,1.458034,12.532363,13.500319,0.000000,92.160591,-31.706625,1.240423,-0.371399,-0.781893,-1.492053,9.976912,-0.484141,-0.014444,0.123058,-0.780409,1.311149,0.163379,13.267613,-0.492156,1.220655,1,0,,38.990753,-76.937805,-7.204000,,,
2026-09-11T16:26:58.646,13.766238,1.467775,12.581399,13.590508,0.000000,92.587684,-31.853561,1.246728,-0.362536,-0.763233,-1.517859,9.967414,-0.526395,0.014388,0.046044,-0.761749,-1.720185,-2.408317,0.514359,-0.643813,1.129007,1,0,,38.990753,-76.937805,-7.204000,,,
2026-09-11T16:26:58.681,13.799641,1.487602,12.631095,13.774089,0.000000,92.323326,-31.762612,1.264813,-0.380858,-0.801806,-1.543998,9.956676,-0.568796,-0.119218,-0.096205,-0.800323,0.375497,-0.503081,8.424305,-0.655172,1.165636,1,0,,38.990753,-76.937805,-7.204000,,,
2026-09-11T16:26:58.714,13.833042,1.546130,12.683024,14.316016,0.000000,92.032875,-31.662686,1.315993,-0.389916,-0.820876,-1.571097,9.944366,-0.612057,-0.081278,-0.030382,-0.819393,1.474430,-1.136983,8.424501,-0.590372,1.165141,1,0,,38.990753,-76.937805,-7.204000,,,
2026-09-11T16:26:58.748,13.866460,1.604466,12.737369,14.856166,0.000000,91.498664,-31.478898,1.368341,-0.407572,-0.858047,-1.599150,9.930388,-0.656706,-0.139816,-0.018506,-0.856563,0.560156,-1.189841,11.349138,-0.575609,1.167302,1,0,,38.990753,-76.937805,-7.204000,,,
2026-09-11T16:26:58.780,13.899868,1.624088,12.791599,15.037848,0.000000,90.939048,-31.286370,1.387917,-0.402326,-0.847003,-1.627631,9.914909,-0.702124,-0.182447,-0.018118,-0.845519,0.585555,-1.392642,10.631684,-0.547651,1.156417,1,0,,38.990753,-76.937805,-7.204000,,,
2026-09-11T16:26:58.814,13.933270,1.643792,12.846422,15.220299,0.000000,89.803337,-30.895643,1.410545,-0.404230,-0.851010,-1.655990,9.898152,-0.747783,-0.109485,-0.013973,-0.849526,-0.267820,0.343821,10.623250,-0.569694,1.259554,1,0,,38.990753,-76.937805,-7.204000,,,
2026-09-11T16:26:58.847,13.966671,1.615244,12.900197,14.955961,0.000000,87.903389,-30.241991,1.395419,-0.389582,-0.820174,-1.683899,9.880327,-0.793100,-0.078831,-0.013599,-0.818690,-0.420901,-0.448262,10.179401,-0.600531,1.306708,1,0,,38.990753,-76.937805,-7.204000,,,
2026-09-11T16:26:58.882,14.000081,1.567361,12.953174,14.512598,0.000000,85.337394,-29.359195,1.366054,-0.377071,-0.793834,-1.710861,9.861806,-0.837245,-0.052878,0.013602,-0.792351,-0.213883,-5.861239,7.392939,-0.614894,0.999331,1,0,,38.990753,-76.937805,-7.204000,,,
2026-09-11T16:26:58.915,14.033491,1.558537,13.004830,14.430894,0.000000,84.005302,-28.900907,1.364432,-0.367131,-0.772908,-1.737034,9.842563,-0.880426,-0.053198,0.002517,-0.771425,-0.656751,-0.135920,10.243242,-0.655102,1.063771,1,0,,38.990753,-76.937805,-7.204000,,,
2026-09-11T16:26:58.948,14.066904,1.539732,13.056440,14.256782,0.000000,83.298744,-28.657825,1.351114,-0.356037,-0.749553,-1.762469,9.822603,-0.922918,-0.050599,0.030856,-0.748069,-0.752660,-0.811893,10.435158,-0.700390,1.081065,1,0,,38.990753,-76.937805,-7.204000,,,
2026-09-11T16:26:58.981,14.100306,1.511281,13.105886,13.993341,0.000000,82.278389,-28.306785,1.330564,-0.343751,-0.723687,-1.787074,9.802091,-0.964409,-0.033094,0.007374,-0.722203,-0.524067,-0.556135,10.404562,-0.727151,1.111479,1,0,,38.990753,-76.937805,-7.204000,,,
2026-09-11T16:26:59.014,14.133708,1.405056,13.153417,13.009774,0.000000,81.553291,-28.057325,1.239930,-0.299436,-0.630392,-1.809688,9.781957,-1.003817,0.117578,0.117293,-0.628909,-4.133797,0.973898,12.411787,-0.985732,1.228778,1,0,,38.990753,-76.937805,-7.204000,,,
2026-09-11T16:26:59.048,14.167111,1.385992,13.199126,12.833258,0.000000,80.602974,-27.730381,1.226807,-0.306699,-0.645683,-1.831000,9.761976,-1.041236,-0.008047,0.055544,-0.644199,-1.643497,0.911430,9.648959,-1.074978,1.341423,1,0,,38.990753,-76.937805,-7.204000,,,
2026-09-11T16:26:59.082,14.200521,1.376510,13.245290,12.745466,0.000000,79.416450,-27.322173,1.222946,-0.309967,-0.652563,-1.852687,9.741096,-1.077905,-0.077922,-0.016167,-0.651079,-2.808036,1.416178,6.871912,-1.233809,1.485873,1,1,14.178908,38.990745,-76.937815,-7.206000,7.461582,-6.507498,3.879549
2026-09-11T16:26:59.115,14.233929,1.395772,13.291910,12.923813,0.000000,78.183235,-26.897902,1.244769,-0.307895,-0.648200,-1.874416,9.719315,-1.114390,-0.061458,-0.061904,-0.646717,1.390877,-2.004872,9.379178,-1.127708,1.408012,1,0,,38.990745,-76.937815,-7.206000,,,
2026-09-11T16:26:59.148,14.267334,1.347544,13.336366,12.477257,0.000000,77.307762,-26.596707,1.204947,-0.286231,-0.602592,-1.895307,9.697244,-1.150243,-0.007412,-0.014743,-0.601108,-0.549369,-3.002894,9.072426,-1.158994,1.261251,1,0,,38.990745,-76.937815,-7.206000,,,
2026-09-11T16:26:59.181,14.300739,1.367341,13.381664,12.660569,0.000000,75.784095,-26.072510,1.228199,-0.272448,-0.573576,-1.914952,9.675090,-1.185570,-0.036300,-0.037992,-0.572092,0.655182,-3.794389,11.657165,-1.119453,1.063525,1,0,,38.990745,-76.937815,-7.206000,,,
2026-09-11T16:26:59.215,14.334142,1.406390,13.428580,13.022133,0.000000,75.680412,-26.036839,1.263659,-0.299176,-0.629844,-1.935051,9.651699,-1.221285,-0.059307,-0.009496,-0.628360,0.133370,-1.709005,11.369438,-1.117982,1.008778,1,0,,38.990745,-76.937815,-7.206000,,,
2026-09-11T16:26:59.250,14.367551,1.426194,13.476750,13.205498,0.000000,75.610374,-26.012743,1.281715,-0.293081,-0.617012,-1.955879,9.626929,-1.257232,-0.079843,-0.035770,-0.615529,1.482373,-1.729991,9.445177,-1.034310,0.952939,1,0,,38.990745,-76.937815,-7.206000,,,
2026-09-11T16:26:59.283,14.400962,1.455461,13.525284,13.476487,0.000000,73.706306,-25.357674,1.315230,-0.292675,-0.616158,-1.976480,9.601185,-1.293495,-0.048224,-0.028101,-0.614675,0.998611,-0.441593,10.605892,-0.988426,0.982325,1,0,,38.990745,-76.937815,-7.206000,,,
2026-09-11T16:26:59.316,14.434371,1.358752,13.572975,12.581036,0.000000,70.265525,-24.173919,1.239598,-0.266065,-0.560137,-1.996129,9.575429,-1.328781,0.088080,0.350967,-0.558654,-1.645752,5.065037,13.996149,-1.115086,1.360061,1,0,,38.990745,-76.937815,-7.206000,,,
2026-09-11T16:26:59.349,14.467773,1.359229,13.616975,12.585451,0.000000,67.591728,-23.254035,1.248810,-0.239966,-0.505192,-2.013921,9.550277,-1.362928,0.100931,0.128038,-0.503708,4.101631,-1.335175,7.521701,-0.867823,1.315536,1,0,,38.990745,-76.937815,-7.206000,,,
2026-09-11T16:26:59.383,14.501174,1.427843,13.664483,13.220769,0.000000,63.392204,-21.809244,1.325646,-0.260454,-0.548324,-2.031515,9.523975,-1.397948,0.104721,0.020813,-0.546841,1.302617,-1.437165,8.911009,-0.805796,1.271118,1,0,,38.990745,-76.937815,-7.206000,,,
2026-09-11T16:26:59.417,14.534580,1.476811,13.714134,13.674173,0.000000,59.380821,-20.429181,1.383926,-0.239402,-0.504004,-2.049092,9.496044,-1.434529,-0.049183,-0.040851,-0.502520,1.363811,-0.203096,9.160196,-0.740845,1.305099,1,0,,38.990745,-76.937815,-7.206000,,,
2026-09-11T16:26:59.450,14.567987,1.506358,13.764195,13.947764,0.000000,54.745964,-18.834621,1.425700,-0.224932,-0.473541,-2.065421,9.467243,-1.472387,-0.012956,-0.015653,-0.472057,-0.073452,-1.784810,11.486333,-0.763987,1.234956,1,0,,38.990745,-76.937815,-7.206000,,,
2026-09-11T16:26:59.483,14.601392,1.477626,13.813048,13.681722,0.000000,50.481895,-17.367624,1.410260,-0.207710,-0.437285,-2.080634,9.438109,-1.510429,-0.019365,-0.010104,-0.435802,-0.194760,0.013729,9.522846,-0.789486,1.278133,1,0,,38.990745,-76.937815,-7.206000,,,
2026-09-11T16:26:59.516,14.634790,1.448798,13.861240,13.414800,0.000000,46.518577,-16.004098,1.392646,-0.186153,-0.391902,-2.094481,9.409266,-1.547876,-0.043126,0.028797,-0.390418,0.289885,1.741563,9.481069,-0.778251,1.427962,1,0,,38.990745,-76.937815,-7.206000,,,
2026-09-11T16:26:59.550,14.668190,1.439078,13.909546,13.324795,0.000000,42.330726,-14.563323,1.392841,-0.178853,-0.376532,-2.107313,9.380488,-1.584926,-0.144079,0.000853,-0.375048,-0.046189,-2.654954,8.961023,-0.787259,1.290464,1,0,,38.990745,-76.937815,-7.206000,,,
2026-09-11T16:26:59.583,14.701591,1.439137,13.957693,13.325345,0.000000,43.211006,-14.866172,1.390966,-0.187881,-0.395538,-2.120207,9.351225,-1.621565,-0.155729,0.014662,-0.394055,0.091300,-0.995473,10.299630,-0.787736,1.263459,1,0,,38.990745,-76.937815,-7.206000,,,
2026-09-11T16:26:59.617,14.734998,1.448921,14.006751,13.415937,0.000000,44.297279,-15.239890,1.397968,-0.197390,-0.415558,-2.133755,9.321165,-1.657729,-0.151305,-0.015660,-0.414074,0.855728,-1.635063,10.547052,-0.730682,1.197369,1,0,,38.990745,-76.937815,-7.206000,,,
2026-09-11T16:26:59.650,14.768407,1.449380,14.054829,13.420184,0.000000,45.277809,-15.577228,1.396143,-0.200489,-0.422082,-2.147748,9.290385,-1.693438,-0.107975,-0.026958,-0.420599,0.009414,-1.648008,9.169708,-0.718472,1.131710,1,0,,38.990745,-76.937815,-7.206000,,,
2026-09-11T16:26:59.684,14.801810,1.440120,14.102384,13.334444,0.000000,45.387672,-15.615025,1.386968,-0.197986,-0.416813,-2.161759,9.259207,-1.728549,-0.066558,0.020451,-0.415330,0.652829,-1.301441,9.730551,-0.658376,1.088479,1,0,,38.990745,-76.937815,-7.206000,,,
2026-09-11T16:26:59.717,14.835212,1.420862,14.149870,13.156134,0.000000,45.431617,-15.630144,1.368320,-0.195327,-0.411214,-2.175587,9.227879,-1.762885,0.002350,0.008075,-0.409730,-0.942223,0.089142,10.203623,-0.701044,1.134657,1,0,,38.990745,-76.937815,-7.206000,,,
2026-09-11T16:26:59.751,14.868617,1.411602,14.196444,13.070393,0.000000,45.431617,-15.630144,1.359403,-0.196522,-0.413732,-2.189366,9.196359,-1.796426,0.030964,-0.004280,-0.412248,0.688819,-1.983885,8.629068,-0.640428,1.046238,1,0,,38.990745,-76.937815,-7.206000,,,
2026-09-11T16:26:59.784,14.902030,1.392618,14.242654,12.894611,0.000000,45.617012,-15.693926,1.340702,-0.198462,-0.417815,-2.203258,9.164601,-1.829131,0.080665,-0.000067,-0.416332,-0.792573,-1.025579,9.865588,-0.677887,1.020627,1,0,,38.990745,-76.937815,-7.206000,,,
2026-09-11T16:26:59.817,14.935480,1.344539,14.287428,12.449432,0.000000,46.572822,-16.022760,1.292306,-0.194812,-0.410131,-2.217106,9.133050,-1.860547,0.084833,0.007046,-0.408648,-0.407172,-0.535541,10.479484,-0.691222,1.025054,1,0,,38.990745,-76.937815,-7.206000,,,
2026-09-11T16:26:59.850,14.968886,1.335540,14.332180,12.366108,0.000000,47.578758,-16.368839,1.281407,-0.200174,-0.421419,-2.230995,9.101686,-1.890675,0.060694,-0.001016,-0.419935,0.454244,0.497491,9.046929,-0.651324,1.096886,1,0,,38.990745,-76.937815,-7.206000,,,
2026-09-11T16:26:59.884,15.002288,1.306931,14.375975,12.101218,0.000000,47.963279,-16.501128,1.253104,-0.199928,-0.420901,-2.245062,9.070247,-1.919791,0.017977,0.019652,-0.419418,-0.228593,-1.912395,9.623560,-0.659351,1.011257,1,0,,38.990745,-76.937815,-7.206000,,,
2026-09-11T16:26:59.917,15.035688,1.307736,14.420134,12.108669,0.000000,48.156227,-16.567509,1.253445,-0.197105,-0.414958,-2.259022,9.038735,-1.948132,0.041355,0.020996,-0.413474,-0.574964,-1.117958,10.653062,-0.693845,0.977478,1,0,,38.990745,-76.937815,-7.206000,,,
2026-09-11T16:26:59.951,15.069107,1.308096,14.463746,12.112004,0.000000,48.156227,-16.567509,1.253790,-0.193426,-0.407213,-2.272760,9.006893,-1.976127,0.015093,0.005492,-0.405729,0.767468,0.204763,10.157532,-0.646781,1.029019,1,0,,38.990745,-76.937815,-7.206000,,,
2026-09-11T16:26:59.985,15.102514,1.318336,14.508224,12.206810,0.000000,48.211845,-16.586644,1.263478,-0.201607,-0.424435,-2.286651,8.974512,-2.003746,-0.046244,-0.016569,-0.422951,0.473857,-0.052368,9.041143,-0.625718,1.065003,1,0,,38.990745,-76.937815,-7.206000,,,
