timestamp,time_s,speed_mps,distance_m,wheel_omega_rad_s,motor_current_A,steer_motor_deg,steer_column_deg,vx_mps,vy_mps,yaw_rate_rad_s,heading_rad,x_m,y_m,gyro_x_rad_s,gyro_y_rad_s,gyro_z_rad_s,accel_x_mps2,accel_y_mps2,accel_z_mps2,grade_deg,bank_deg,moving,gps_new_fix,gps_time_s,gps_latitude_deg,gps_longitude_deg,gps_altitude_m,gps_east_m,gps_north_m,gps_sigma_m
2026-09-11T16:25:17.210,0.000008,-0.000000,-0.000000,-0.000000,0.000000,-3.847454,1.323665,-0.000000,-0.000691,-0.001454,0.000000,0.000000,0.000000,0.001225,0.001091,0.000030,0.254581,0.360100,9.706132,-0.188619,3.187124,0,1,-0.148371,38.990819,-76.937965,-10.348000,0.000000,0.000000,5.297364
2026-09-11T16:25:17.244,0.033419,-0.000000,-0.000000,-0.000000,0.000000,-3.847454,1.323665,-0.000000,-0.000556,-0.001170,-0.000044,-0.000000,-0.000021,0.001602,0.002949,0.000313,0.251737,0.366082,9.720940,-0.188803,3.187512,0,0,,38.990819,-76.937965,-10.348000,,,
2026-09-11T16:25:17.278,0.066832,-0.000000,-0.000000,-0.000000,0.000000,-3.847454,1.323665,-0.000000,-0.001055,-0.002222,-0.000101,-0.000000,-0.000048,0.001306,0.000566,-0.000738,0.253502,0.367063,9.718685,-0.188870,3.187958,0,0,,38.990819,-76.937965,-10.348000,,,
2026-09-11T16:25:17.311,0.100250,-0.000000,-0.000000,-0.000000,0.000000,-3.847454,1.323665,-0.000000,0.000424,0.000893,-0.000123,-0.000000,-0.000058,-0.000790,0.000609,0.002376,0.255856,0.363140,9.717900,-0.188785,3.188146,0,0,,38.990819,-76.937965,-10.348000,,,
2026-09-11T16:25:17.346,0.133667,-0.000000,-0.000000,-0.000000,0.000000,-3.847454,1.323665,-0.000000,-0.000768,-0.001616,-0.000135,-0.000000,-0.000064,0.000460,0.002140,-0.000133,0.252423,0.364905,9.716135,-0.188923,3.188446,0,0,,38.990819,-76.937965,-10.348000,,,
2026-09-11T16:25:17.380,0.167090,-0.000000,-0.000000,-0.000000,0.000000,-3.847454,1.323665,-0.000000,0.000029,0.000060,-0.000161,-0.000000,-0.000076,0.001008,0.001457,0.001544,0.257817,0.361081,9.709662,-0.188710,3.188494,0,0,,38.990819,-76.937965,-10.348000,,,
2026-09-11T16:25:17.413,0.200511,-0.000000,-0.000000,-0.000000,0.000000,-3.847454,1.323665,-0.000000,0.000488,0.001027,-0.000143,-0.000000,-0.000068,-0.002571,0.000692,0.002510,0.255365,0.369122,9.706917,-0.188658,3.189063,0,0,,38.990819,-76.937965,-10.348000,,,
2026-09-11T16:25:17.447,0.233927,-0.000000,-0.000000,-0.000000,0.000000,-3.847454,1.323665,-0.000000,-0.000563,-0.001185,-0.000145,-0.000000,-0.000069,0.000827,0.001636,0.000299,0.256836,0.365102,9.707407,-0.188512,3.189366,0,0,,38.990819,-76.937965,-10.348000,,,
2026-09-11T16:25:17.480,0.267350,-0.000000,-0.000000,-0.000000,0.000000,-3.847454,1.323665,-0.000000,0.000069,0.000145,-0.000163,-0.000000,-0.000077,-0.000558,0.000219,0.001628,0.256836,0.365886,9.715350,-0.188367,3.189716,0,0,,38.990819,-76.937965,-10.348000,,,
2026-09-11T16:25:17.514,0.300775,-0.000000,-0.000000,-0.000000,0.000000,-3.847454,1.323665,-0.000000,-0.000247,-0.000521,-0.000169,-0.000000,-0.000080,0.003484,0.001430,0.000963,0.256346,0.361571,9.711428,-0.188255,3.189782,0,0,,38.990819,-76.937965,-10.348000,,,
2026-09-11T16:25:17.547,0.334191,-0.000000,-0.000000,-0.000000,0.000000,-3.847454,1.323665,-0.000000,0.000188,0.000395,-0.000171,-0.000000,-0.000081,0.002157,0.001583,0.001878,0.256542,0.360394,9.709662,-0.188133,3.189772,0,0,,38.990819,-76.937965,-10.348000,,,
2026-09-11T16:25:17.580,0.367613,-0.000000,-0.000000,-0.000000,0.000000,-3.847454,1.323665,-0.000000,-0.000244,-0.000513,-0.000173,-0.000000,-0.000082,-0.002070,0.000442,0.000971,0.253894,0.366082,9.715448,-0.188182,3.190130,0,0,,38.990819,-76.937965,-10.348000,,,
2026-09-11T16:25:17.613,0.401030,-0.000000,-0.000000,-0.000000,0.000000,-3.847454,1.323665,-0.000000,0.000344,0.000725,-0.000169,-0.000000,-0.000081,0.001929,0.001004,0.002209,0.255561,0.360885,9.711918,-0.188124,3.190147,0,0,,38.990819,-76.937965,-10.348000,,,
2026-09-11T16:25:17.647,0.434448,-0.000000,-0.000000,-0.000000,0.000000,-3.847454,1.323665,-0.000000,0.000262,0.000551,-0.000148,-0.000000,-0.000070,0.000123,0.000084,0.002034,0.255365,0.367847,9.713879,-0.188078,3.190615,0,0,,38.990819,-76.937965,-10.348000,,,
2026-09-11T16:25:17.680,0.467872,-0.000000,-0.000000,-0.000000,0.000000,-3.847454,1.323665,-0.000000,0.000545,0.001147,-0.000120,-0.000000,-0.000057,-0.000050,0.001568,0.002631,0.255757,0.365984,9.711231,-0.188008,3.190958,0,0,,38.990819,-76.937965,-10.348000,,,
2026-09-11T16:25:17.714,0.501288,-0.000000,-0.000000,-0.000000,0.000000,-3.847454,1.323665,-0.000000,-0.000447,-0.000941,-0.000116,-0.000000,-0.000055,0.000530,0.001167,0.000543,0.255856,0.363827,9.707603,-0.187932,3.191156,0,0,,38.990819,-76.937965,-10.348000,,,
2026-09-11T16:25:17.747,0.534705,-0.000000,-0.000000,-0.000000,0.000000,-3.847454,1.323665,-0.000000,-0.000200,-0.000422,-0.000139,-0.000000,-0.000066,-0.000694,0.000506,0.001062,0.251737,0.365592,9.714272,-0.188124,3.191467,0,0,,38.990819,-76.937965,-10.348000,,,
2026-09-11T16:25:17.780,0.568122,-0.000000,-0.000000,-0.000000,0.000000,-3.847454,1.323665,-0.000000,-0.000080,-0.000168,-0.000149,-0.000000,-0.000071,-0.001347,0.002790,0.001316,0.256836,0.365788,9.718390,-0.187984,3.191787,0,0,,38.990819,-76.937965,-10.348000,,,
2026-09-11T16:25:17.814,0.601544,-0.000000,-0.000000,-0.000000,0.000000,-3.847454,1.323665,-0.000000,0.000940,0.001980,-0.000119,-0.000000,-0.000056,-0.001847,0.000611,0.003463,0.256346,0.364121,9.716135,-0.187876,3.191996,0,0,,38.990819,-76.937965,-10.348000,,,
2026-09-11T16:25:17.847,0.634962,-0.000000,-0.000000,-0.000000,0.000000,-3.847454,1.323665,-0.000000,0.000616,0.001298,-0.000064,-0.000000,-0.000030,-0.001588,0.000783,0.002781,0.254679,0.362258,9.718783,-0.187878,3.192082,0,0,,38.990819,-76.937965,-10.348000,,,
2026-09-11T16:25:17.880,0.668381,-0.000000,-0.000000,-0.000000,0.000000,-3.847454,1.323665,-0.000000,-0.000215,-0.000453,-0.000050,-0.000000,-0.000024,0.000116,0.001600,0.001031,0.256150,0.365102,9.712114,-0.187785,3.192351,0,0,,38.990819,-76.937965,-10.348000,,,
2026-09-11T16:25:17.914,0.701801,-0.000000,-0.000000,-0.000000,0.000000,-3.847454,1.323665,-0.000000,0.001011,0.002128,-0.000022,-0.000000,-0.000010,-0.001390,0.001168,0.003611,0.252717,0.363336,9.717900,-0.187915,3.192502,0,0,,38.990819,-76.937965,-10.348000,,,
2026-09-11T16:25:17.947,0.735219,-0.000000,-0.000000,-0.000000,0.000000,-3.847454,1.323665,-0.000000,0.000208,0.000438,0.000021,0.000000,0.000010,-0.001069,0.001048,0.001921,0.254090,0.363140,9.713879,-0.187954,3.192640,0,0,,38.990819,-76.937965,-10.348000,,,
2026-09-11T16:25:17.980,0.768636,-0.000000,-0.000000,-0.000000,0.000000,-3.847454,1.323665,-0.000000,-0.000778,-0.001638,0.000001,-0.000000,0.000000,0.000437,0.002184,-0.000154,0.256542,0.363631,9.709662,-0.187835,3.192807,0,0,,38.990819,-76.937965,-10.348000,,,
2026-09-11T16:25:18.014,0.802051,-0.000000,-0.000000,-0.000000,0.000000,-3.847454,1.323665,-0.000000,0.000571,0.001202,-0.000006,0.000000,-0.000003,-0.002490,0.001399,0.002686,0.254090,0.361571,9.714370,-0.187875,3.192839,0,0,,38.990819,-76.937965,-10.348000,,,
2026-09-11T16:25:18.047,0.835470,-0.000000,-0.000000,-0.000000,0.000000,-3.847454,1.323665,-0.000000,0.000162,0.000341,0.000020,0.000000,0.000009,-0.000968,0.002385,0.001824,0.257621,0.363336,9.713487,-0.187687,3.192986,0,1,0.842249,38.990819,-76.937965,-10.301000,0.033994,-0.001668,5.297364
2026-09-11T16:25:18.081,0.868889,-0.000000,-0.000000,-0.000000,0.000000,-3.847454,1.323665,-0.000000,-0.000421,-0.000886,0.000010,0.000000,0.000005,0.002279,0.002109,0.000597,0.251933,0.363042,9.698581,-0.187868,3.193111,0,0,,38.990819,-76.937965,-10.301000,,,
2026-09-11T16:25:18.115,0.902303,-0.000000,-0.000000,-0.000000,0.000000,-3.847454,1.323665,-0.000000,0.000393,0.000828,0.000009,0.000000,0.000004,-0.000534,0.002688,0.002312,0.256542,0.362650,9.711428,-0.187750,3.193210,0,0,,38.990819,-76.937965,-10.301000,,,
2026-09-11T16:25:18.148,0.935722,-0.000000,-0.000000,-0.000000,0.000000,-3.847454,1.323665,-0.000000,-0.000573,-0.001207,0.000003,0.000000,0.000001,-0.000484,0.003359,0.000277,0.252815,0.365592,9.706818,-0.187874,3.193498,0,0,,38.990819,-76.937965,-10.301000,,,
2026-09-11T16:25:18.182,0.969143,-0.000000,-0.000000,-0.000000,0.000000,-3.847454,1.323665,-0.000000,-0.000678,-0.001428,-0.000041,-0.000000,-0.000019,0.001023,0.001485,0.000055,0.255659,0.363827,9.717115,-0.187812,3.193669,0,0,,38.990819,-76.937965,-10.301000,,,
2026-09-11T16:25:18.215,1.002564,-0.000000,-0.000000,-0.000000,0.000000,-3.847454,1.323665,-0.000000,-0.000204,-0.000430,-0.000072,-0.000000,-0.000034,0.001675,0.001866,0.001054,0.255365,0.365592,9.712408,-0.187770,3.193952,0,0,,38.990819,-76.937965,-10.301000,,,
2026-09-11T16:25:18.248,1.035987,-0.000000,-0.000000,-0.000000,0.000000,-3.847454,1.323665,-0.000000,-0.000207,-0.000435,-0.000086,-0.000000,-0.000041,0.000597,0.002677,0.001048,0.254581,0.366769,9.708289,-0.187780,3.194308,0,0,,38.990819,-76.937965,-10.301000,,,
2026-09-11T16:25:18.281,1.069410,-0.000000,-0.000000,-0.000000,0.000000,-3.847454,1.323665,-0.000000,-0.000214,-0.000450,-0.000101,-0.000000,-0.000048,0.001341,0.000471,0.001034,0.254875,0.365396,9.715350,-0.187770,3.194571,0,0,,38.990819,-76.937965,-10.301000,,,
2026-09-11T16:25:18.315,1.102834,-0.000000,-0.000000,-0.000000,0.000000,-3.847454,1.323665,-0.000000,0.000227,0.000478,-0.000101,-0.000000,-0.000048,0.002629,0.002583,0.001962,0.254385,0.359904,9.714860,-0.187792,3.194476,0,0,,38.990819,-76.937965,-10.301000,,,
2026-09-11T16:25:18.348,1.136273,-0.000000,-0.000000,-0.000000,0.000000,-3.847454,1.323665,-0.000000,-0.000712,-0.001499,-0.000118,-0.000000,-0.000056,0.001503,0.002431,-0.000015,0.255856,0.370495,9.718390,-0.187718,3.195068,0,0,,38.990819,-76.937965,-10.301000,,,
2026-09-11T16:25:18.382,1.169694,-0.000000,-0.000000,-0.000000,0.000000,-3.847454,1.323665,-0.000000,-0.000373,-0.000786,-0.000156,-0.000000,-0.000074,0.000342,0.000678,0.000697,0.256836,0.363827,9.714173,-0.187582,3.195221,0,0,,38.990819,-76.937965,-10.301000,,,
2026-09-11T16:25:18.415,1.203118,-0.000000,-0.000000,-0.000000,0.000000,-3.847454,1.323665,-0.000000,-0.000328,-0.000690,-0.000181,-0.000000,-0.000086,0.003185,0.002089,0.000793,0.251541,0.366376,9.720646,-0.187791,3.195538,0,0,,38.990819,-76.937965,-10.301000,,,
2026-09-11T16:25:18.449,1.236540,-0.000000,-0.000000,-0.000000,0.000000,-3.847454,1.323665,-0.000000,-0.000277,-0.000582,-0.000202,-0.000000,-0.000096,0.001468,0.000694,0.000901,0.257032,0.361375,9.711330,-0.187641,3.195527,0,0,,38.990819,-76.937965,-10.301000,,,
2026-09-11T16:25:18.482,1.269958,-0.000000,-0.000000,-0.000000,0.000000,-3.847454,1.323665,-0.000000,0.000300,0.000633,-0.000201,-0.000000,-0.000096,-0.002497,0.001092,0.002116,0.252227,0.365102,9.718390,-0.187804,3.195758,0,0,,38.990819,-76.937965,-10.301000,,,
2026-09-11T16:25:18.516,1.303400,-0.000000,-0.000000,-0.000000,0.000000,-3.847454,1.323665,-0.000000,0.000517,0.001089,-0.000172,-0.000000,-0.000082,0.001128,0.002204,0.002572,0.252717,0.368828,9.720646,-0.187934,3.196228,0,0,,38.990819,-76.937965,-10.301000,,,
2026-09-11T16:25:18.549,1.336822,-0.000000,-0.000000,-0.000000,0.000000,-3.847454,1.323665,-0.000000,0.000602,0.001268,-0.000133,-0.000000,-0.000063,0.000538,0.000539,0.002752,0.257817,0.361375,9.711330,-0.187732,3.196209,0,0,,38.990819,-76.937965,-10.301000,,,
2026-09-11T16:25:18.582,1.370244,-0.000000,-0.000000,-0.000000,0.000000,-3.847454,1.323665,-0.000000,0.000037,0.000077,-0.000110,-0.000000,-0.000052,-0.001090,0.001259,0.001561,0.255757,0.368240,9.710545,-0.187666,3.196636,0,0,,38.990819,-76.937965,-10.301000,,,
2026-09-11T16:25:18.616,1.403664,-0.000000,-0.000000,-0.000000,0.000000,-3.847454,1.323665,-0.000000,0.000504,0.001062,-0.000091,-0.000000,-0.000043,-0.000327,0.000726,0.002545,0.258013,0.364807,9.708388,-0.187454,3.196835,0,0,,38.990819,-76.937965,-10.301000,,,
2026-09-11T16:25:18.649,1.437084,-0.000000,-0.000000,-0.000000,0.000000,-3.847454,1.323665,-0.000000,0.000460,0.000969,-0.000057,-0.000000,-0.000027,-0.001540,0.000818,0.002453,0.253894,0.365886,9.713389,-0.187512,3.197102,0,0,,38.990819,-76.937965,-10.301000,,,
2026-09-11T16:25:18.682,1.470500,-0.000000,-0.000000,-0.000000,0.000000,-3.847454,1.323665,-0.000000,0.000612,0.001289,-0.000020,-0.000000,-0.000009,0.000932,0.002333,0.002772,0.252914,0.362650,9.711428,-0.187632,3.197157,0,0,,38.990819,-76.937965,-10.301000,,,
2026-09-11T16:25:18.716,1.503917,-0.000000,-0.000000,-0.000000,0.000000,-3.847454,1.323665,-0.000000,-0.000015,-0.000032,0.000001,0.000000,0.000001,-0.000413,0.000619,0.001452,0.256836,0.364611,9.714173,-0.187497,3.197338,0,0,,38.990819,-76.937965,-10.301000,,,
2026-09-11T16:25:18.749,1.537336,-0.000000,-0.000000,-0.000000,0.000000,-3.847454,1.323665,-0.000000,0.000051,0.000108,0.000003,0.000000,0.000001,-0.001049,0.000664,0.001592,0.253502,0.363729,9.712016,-0.187579,3.197460,0,0,,38.990819,-76.937965,-10.301000,,,
2026-09-11T16:25:18.783,1.570754,-0.000000,-0.000000,-0.000000,0.000000,-3.847454,1.323665,-0.000000,-0.000365,-0.000769,-0.000009,0.000000,-0.000004,0.001058,0.003050,0.000715,0.255561,0.363631,9.712604,-0.187527,3.197574,0,0,,38.990819,-76.937965,-10.301000,,,
2026-09-11T16:25:18.816,1.604171,-0.000000,-0.000000,-0.000000,0.000000,-3.847454,1.323665,-0.000000,0.000096,0.000202,-0.000018,0.000000,-0.000009,-0.001468,0.000911,0.001686,0.257327,0.366867,9.717115,-0.187361,3.197896,0,0,,38.990819,-76.937965,-10.301000,,,
2026-09-11T16:25:18.850,1.637592,-0.000000,-0.000000,-0.000000,0.000000,-3.847454,1.323665,-0.000000,-0.000169,-0.000357,-0.000021,0.000000,-0.000010,-0.002246,0.000703,0.001127,0.252129,0.364121,9.708682,-0.187534,3.198037,0,0,,38.990819,-76.937965,-10.301000,,,
2026-09-11T16:25:18.883,1.671010,-0.000000,-0.000000,-0.000000,0.000000,-3.847454,1.323665,-0.000000,-0.000716,-0.001508,-0.000052,-0.000000,-0.000025,0.000673,0.002805,-0.000025,0.257817,0.363827,9.714075,-0.187337,3.198157,0,0,,38.990819,-76.937965,-10.301000,,,
2026-09-11T16:25:18.916,1.704430,-0.000000,-0.000000,-0.000000,0.000000,-3.847454,1.323665,-0.000000,0.000235,0.000494,-0.000069,-0.000000,-0.000033,-0.001953,0.001410,0.001978,0.253894,0.362650,9.712114,-0.187395,3.198200,0,0,,38.990819,-76.937965,-10.301000,,,
2026-09-11T16:25:18.950,1.737848,-0.000000,-0.000000,-0.000000,0.000000,-3.847454,1.323665,-0.000000,0.000013,0.000026,-0.000060,-0.000000,-0.000028,-0.001245,0.002018,0.001510,0.256346,0.361865,9.713585,-0.187294,3.198192,0,0,,38.990819,-76.937965,-10.301000,,,
2026-09-11T16:25:18.983,1.771263,-0.000000,-0.000000,-0.000000,0.000000,-3.847454,1.323665,-0.000000,-0.000097,-0.000203,-0.000063,-0.000000,-0.000030,-0.000679,0.000572,0.001280,0.254188,0.368828,9.718685,-0.187335,3.198634,0,0,,38.990819,-76.937965,-10.301000,,,
2026-09-11T16:25:19.017,1.804679,-0.000000,-0.000000,-0.000000,0.000000,-3.847454,1.323665,-0.000000,0.000441,0.000928,-0.000051,-0.000000,-0.000024,-0.000812,0.001458,0.002411,0.255365,0.363336,9.712408,-0.187298,3.198716,0,0,,38.990819,-76.937965,-10.301000,,,
2026-09-11T16:25:19.050,1.838099,-0.000000,-0.000000,-0.000000,0.000000,-3.847454,1.323665,-0.000000,0.000054,0.000114,-0.000033,-0.000000,-0.000016,0.000405,0.002198,0.001597,0.253110,0.363140,9.708191,-0.187408,3.198785,0,0,,38.990819,-76.937965,-10.301000,,,
2026-09-11T16:25:19.084,1.871518,-0.000000,-0.000000,-0.000000,0.000000,-3.847454,1.323665,-0.000000,0.000453,0.000955,-0.000016,0.000000,-0.000007,-0.000596,0.000138,0.002438,0.253502,0.361179,9.707897,-0.187491,3.198725,0,1,1.847826,38.990819,-76.937964,-10.242000,0.073750,0.000741,5.297926
2026-09-11T16:25:19.117,1.904933,-0.000000,-0.000000,-0.000000,0.000000,-3.847454,1.323665,-0.000000,-0.000487,-0.001025,-0.000017,0.000000,-0.000008,0.000387,0.001893,0.000459,0.255856,0.365592,9.717900,-0.187421,3.198952,0,0,,38.990819,-76.937964,-10.242000,,,
2026-09-11T16:25:19.150,1.938353,-0.000000,-0.000000,-0.000000,0.000000,-3.847454,1.323665,-0.000000,-0.000211,-0.000445,-0.000041,-0.000000,-0.000020,0.001395,0.002987,0.001038,0.256542,0.360591,9.708388,-0.187307,3.198853,0,0,,38.990819,-76.937964,-10.242000,,,
2026-09-11T16:25:19.184,1.971771,-0.000000,-0.000000,-0.000000,0.000000,-3.847454,1.323665,-0.000000,0.000290,0.000611,-0.000039,-0.000000,-0.000018,-0.001767,0.000816,0.002095,0.256836,0.363729,9.708976,-0.187176,3.198958,0,0,,38.990819,-76.937964,-10.242000,,,
2026-09-11T16:25:19.218,2.005199,-0.000000,-0.000000,-0.000000,0.000000,-3.847454,1.323665,-0.000000,-0.000230,-0.000483,-0.000036,-0.000000,-0.000017,0.001627,0.002064,0.001000,0.254581,0.364513,9.711231,-0.187192,3.199113,0,0,,38.990819,-76.937964,-10.242000,,,
2026-09-11T16:25:19.251,2.038619,-0.000000,-0.000000,-0.000000,0.000000,-3.847454,1.323665,-0.000000,-0.000180,-0.000379,-0.000051,-0.000000,-0.000024,0.001250,0.002455,0.001105,0.255071,0.360394,9.707407,-0.187176,3.198999,0,0,,38.990819,-76.937964,-10.242000,,,
2026-09-11T16:25:19.284,2.072042,-0.000000,-0.000000,-0.000000,0.000000,-3.847454,1.323665,-0.000000,-0.000295,-0.000621,-0.000068,-0.000000,-0.000032,-0.000322,0.002035,0.000863,0.257621,0.364415,9.713487,-0.186995,3.199147,0,0,,38.990819,-76.937964,-10.242000,,,
2026-09-11T16:25:19.317,2.105564,-0.000000,-0.000000,-0.000000,0.000000,-3.847454,1.323665,-0.000000,-0.000438,-0.000923,-0.000093,-0.000000,-0.000044,0.001039,0.002587,0.000561,0.256346,0.359904,9.710153,-0.186899,3.199001,0,0,,38.990819,-76.937964,-10.242000,,,
2026-09-11T16:25:19.351,2.138985,-0.000000,-0.000000,-0.000000,0.000000,-3.847454,1.323665,-0.000000,-0.000481,-0.001013,-0.000126,-0.000000,-0.000060,0.002824,0.002305,0.000470,0.255365,0.358629,9.712604,-0.186867,3.198774,0,0,,38.990819,-76.937964,-10.242000,,,
2026-09-11T16:25:19.384,2.172406,-0.000000,-0.000000,-0.000000,0.000000,-3.847454,1.323665,-0.000000,-0.000708,-0.001490,-0.000168,-0.000000,-0.000080,0.000879,0.002234,-0.000007,0.254188,0.366082,9.713879,-0.186912,3.199032,0,0,,38.990819,-76.937964,-10.242000,,,
2026-09-11T16:25:19.418,2.205835,-0.000000,-0.000000,-0.000000,0.000000,-3.847454,1.323665,-0.000000,-0.000199,-0.000419,-0.000200,-0.000000,-0.000095,0.001755,0.002463,0.001065,0.256738,0.361473,9.704857,-0.186791,3.198989,0,0,,38.990819,-76.937964,-10.242000,,,
2026-09-11T16:25:19.451,2.239257,-0.000000,-0.000000,-0.000000,0.000000,-3.847454,1.323665,-0.000000,0.000287,0.000605,-0.000196,-0.000000,-0.000093,0.001094,0.000727,0.002088,0.257130,0.365298,9.711428,-0.186646,3.199194,0,0,,38.990819,-76.937964,-10.242000,,,
2026-09-11T16:25:19.485,2.272676,-0.000000,-0.000000,-0.000000,0.000000,-3.847454,1.323665,-0.000000,-0.000438,-0.000923,-0.000202,-0.000000,-0.000096,-0.000528,0.002960,0.000561,0.254090,0.362846,9.711133,-0.186700,3.199238,0,0,,38.990819,-76.937964,-10.242000,,,
2026-09-11T16:25:19.518,2.306098,-0.000000,-0.000000,-0.000000,0.000000,-3.847454,1.323665,-0.000000,-0.000623,-0.001311,-0.000239,-0.000000,-0.000114,0.002111,0.001678,0.000172,0.254286,0.365592,9.710545,-0.186740,3.199459,0,0,,38.990819,-76.937964,-10.242000,,,
2026-09-11T16:25:19.552,2.339522,-0.000000,-0.000000,-0.000000,0.000000,-3.847454,1.323665,-0.000000,-0.000002,-0.000005,-0.000261,-0.000000,-0.000124,-0.000846,0.000193,0.001479,0.254581,0.358139,9.705151,-0.186761,3.199196,0,0,,38.990819,-76.937964,-10.242000,,,
2026-09-11T16:25:19.585,2.372942,-0.000000,-0.000000,-0.000000,0.000000,-3.847454,1.323665,-0.000000,-0.000926,-0.001950,-0.000294,-0.000000,-0.000140,0.000898,0.002589,-0.000466,0.253894,0.364905,9.712408,-0.186826,3.199373,0,0,,38.990819,-76.937964,-10.242000,,,
2026-09-11T16:25:19.618,2.406360,-0.000000,-0.000000,-0.000000,0.000000,-3.847454,1.323665,-0.000000,-0.000433,-0.000911,-0.000341,-0.000000,-0.000162,0.000019,0.001600,0.000573,0.254385,0.362160,9.712604,-0.186858,3.199371,0,0,,38.990819,-76.937964,-10.242000,,,
2026-09-11T16:25:19.652,2.439777,-0.000000,-0.000000,-0.000000,0.000000,-3.847454,1.323665,-0.000000,0.000483,0.001018,-0.000340,-0.000000,-0.000161,-0.002074,-0.000293,0.002501,0.252914,0.366671,9.712212,-0.186986,3.199661,0,0,,38.990819,-76.937964,-10.242000,,,
2026-09-11T16:25:19.686,2.473195,-0.000000,-0.000000,-0.000000,0.000000,-3.847454,1.323665,-0.000000,-0.000235,-0.000495,-0.000331,-0.000000,-0.000157,0.002549,0.002211,0.000988,0.254973,0.363729,9.715056,-0.186978,3.199757,0,0,,38.990819,-76.937964,-10.242000,,,
2026-09-11T16:25:19.719,2.506614,-0.000000,-0.000000,-0.000000,0.000000,-3.847454,1.323665,-0.000000,-0.000403,-0.000848,-0.000353,-0.000000,-0.000168,-0.000796,0.000109,0.000635,0.253502,0.363729,9.710545,-0.187066,3.199852,0,0,,38.990819,-76.937964,-10.242000,,,
2026-09-11T16:25:19.752,2.540036,-0.000000,-0.000000,-0.000000,0.000000,-3.847454,1.323665,-0.000000,0.000531,0.001118,-0.000349,-0.000000,-0.000166,-0.001252,0.000888,0.002602,0.253404,0.365886,9.715154,-0.187160,3.200085,0,0,,38.990819,-76.937964,-10.242000,,,
2026-09-11T16:25:19.786,2.573457,-0.000000,-0.000000,-0.000000,0.000000,-3.847454,1.323665,-0.000000,-0.000523,-0.001100,-0.000349,-0.000000,-0.000166,0.000968,0.001130,0.000383,0.256150,0.365984,9.714664,-0.187074,3.200323,0,0,,38.990819,-76.937964,-10.242000,,,
2026-09-11T16:25:19.819,2.606873,-0.000000,-0.000000,-0.000000,0.000000,-3.847454,1.323665,-0.000000,0.000691,0.001454,-0.000343,-0.000000,-0.000163,-0.001714,0.001343,0.002938,0.254973,0.366573,9.724667,-0.187066,3.200595,0,0,,38.990819,-76.937964,-10.242000,,,
2026-09-11T16:25:19.853,2.640308,-0.000000,-0.000000,-0.000000,0.000000,-3.847454,1.323665,-0.000000,-0.000182,-0.000383,-0.000325,-0.000000,-0.000154,-0.000212,0.001528,0.001101,0.255659,0.365298,9.715644,-0.187013,3.200783,0,0,,38.990819,-76.937964,-10.242000,,,
2026-09-11T16:25:19.886,2.673732,-0.000000,-0.000000,-0.000000,0.000000,-3.847454,1.323665,-0.000000,0.000018,0.000038,-0.000331,-0.000000,-0.000157,0.000887,0.000616,0.001522,0.256346,0.361571,9.710839,-0.186917,3.200727,0,0,,38.990819,-76.937964,-10.242000,,,
2026-09-11T16:25:19.919,2.707148,-0.000000,-0.000000,-0.000000,0.000000,-3.847454,1.323665,-0.000000,0.000242,0.000509,-0.000321,-0.000000,-0.000153,-0.001446,0.001351,0.001993,0.256444,0.364807,9.712016,-0.186815,3.200881,0,0,,38.990819,-76.937964,-10.242000,,,
2026-09-11T16:25:19.953,2.740565,-0.000000,-0.000000,-0.000000,0.000000,-3.847454,1.323665,-0.000000,0.000092,0.000193,-0.000310,-0.000000,-0.000147,0.000068,0.001177,0.001676,0.254581,0.359610,9.710153,-0.186835,3.200697,0,0,,38.990819,-76.937964,-10.242000,,,
2026-09-11T16:25:19.987,2.773992,-0.000000,-0.000000,-0.000000,0.000000,-3.847454,1.323665,-0.000000,0.001215,0.002557,-0.000264,-0.000000,-0.000125,-0.000849,0.000822,0.004041,0.252031,0.366573,9.719959,-0.187020,3.200965,0,0,,38.990819,-76.937964,-10.242000,,,
2026-09-11T16:25:20.020,2.807418,-0.000000,-0.000000,-0.000000,0.000000,-3.847454,1.323665,-0.000000,-0.000296,-0.000623,-0.000231,-0.000000,-0.000110,-0.000201,0.001971,0.000861,0.259778,0.360787,9.710839,-0.186701,3.200857,0,0,,38.990819,-76.937964,-10.242000,,,
2026-09-11T16:25:20.053,2.840846,-0.000000,-0.000000,-0.000000,0.000000,-3.847454,1.323665,-0.000000,0.000532,0.001120,-0.000223,-0.000000,-0.000106,-0.001382,0.000732,0.002603,0.253894,0.364121,9.721921,-0.186767,3.200965,0,0,,38.990819,-76.937964,-10.242000,,,
2026-09-11T16:25:20.086,2.874265,-0.000000,-0.000000,-0.000000,0.000000,-3.847454,1.323665,-0.000000,0.001296,0.002728,-0.000159,-0.000000,-0.000075,-0.000443,0.001191,0.004211,0.256444,0.362650,9.711231,-0.186667,3.200977,0,0,,38.990819,-76.937964,-10.242000,,,
2026-09-11T16:25:20.120,2.907693,-0.000000,-0.000000,-0.000000,0.000000,-3.847454,1.323665,-0.000000,-0.000302,-0.000636,-0.000124,-0.000000,-0.000059,0.000952,0.002948,0.000847,0.255365,0.366376,9.712801,-0.186638,3.201230,0,0,,38.990819,-76.937964,-10.242000,,,
2026-09-11T16:25:20.153,2.941119,-0.000000,-0.000000,-0.000000,0.000000,-3.847454,1.323665,-0.000000,0.000577,0.001214,-0.000114,-0.000000,-0.000054,-0.001805,0.001255,0.002698,0.253698,0.363336,9.714860,-0.186717,3.201283,0,1,2.927013,38.990819,-76.937964,-10.182000,0.116963,-0.006672,5.298489
2026-09-11T16:25:20.186,2.974539,-0.000000,-0.000000,-0.000000,0.000000,-3.847454,1.323665,-0.000000,-0.000063,-0.000132,-0.000096,-0.000000,-0.000046,-0.000078,0.001772,0.001351,0.256836,0.365200,9.715743,-0.186592,3.201456,0,0,,38.990819,-76.937964,-10.182000,,,
2026-09-11T16:25:20.220,3.007964,-0.000000,-0.000000,-0.000000,0.000000,-3.847454,1.323665,-0.000000,-0.000616,-0.001296,-0.000120,-0.000000,-0.000057,0.001140,0.002722,0.000188,0.254581,0.363729,9.712016,-0.186614,3.201532,0,0,,38.990819,-76.937964,-10.182000,,,
2026-09-11T16:25:20.253,3.041387,-0.000000,-0.000000,-0.000000,0.000000,-3.847454,1.323665,-0.000000,0.000182,0.000383,-0.000135,-0.000000,-0.000064,-0.001699,0.001966,0.001866,0.253404,0.364121,9.703876,-0.186713,3.201633,0,0,,38.990819,-76.937964,-10.182000,,,
2026-09-11T16:25:20.287,3.074803,-0.000000,-0.000000,-0.000000,0.000000,-3.847454,1.323665,-0.000000,0.000373,0.000785,-0.000116,-0.000000,-0.000055,-0.002370,0.001700,0.002269,0.253894,0.365592,9.715448,-0.186778,3.201828,0,0,,38.990819,-76.937964,-10.182000,,,
2026-09-11T16:25:20.320,3.108229,-0.000000,-0.000000,-0.000000,0.000000,-3.847454,1.323665,-0.000000,-0.000312,-0.000657,-0.000114,-0.000000,-0.000054,0.002250,0.001346,0.000826,0.257327,0.362552,9.713585,-0.186621,3.201824,0,0,,38.990819,-76.937964,-10.182000,,,
2026-09-11T16:25:20.354,3.141650,-0.000000,-0.000000,-0.000000,0.000000,-3.847454,1.323665,-0.000000,-0.000105,-0.000222,-0.000128,-0.000000,-0.000061,-0.000680,0.002227,0.001262,0.255365,0.365200,9.714272,-0.186592,3.201991,0,0,,38.990819,-76.937964,-10.182000,,,
2026-09-11T16:25:20.388,3.175066,-0.000000,-0.000000,-0.000000,0.000000,-3.847454,1.323665,-0.000000,-0.000195,-0.000411,-0.000139,-0.000000,-0.000066,0.001409,0.003649,0.001072,0.255365,0.363336,9.716527,-0.186564,3.202036,0,0,,38.990819,-76.937964,-10.182000,,,
2026-09-11T16:25:20.421,3.208485,-0.000000,-0.000000,-0.000000,0.000000,-3.847454,1.323665,-0.000000,-0.000415,-0.000873,-0.000160,-0.000000,-0.000076,0.001173,0.000934,0.000610,0.253894,0.361865,9.712016,-0.186631,3.201985,0,0,,38.990819,-76.937964,-10.182000,,,
2026-09-11T16:25:20.455,3.241914,-0.000000,-0.000000,-0.000000,0.000000,-3.847454,1.323665,-0.000000,-0.000262,-0.000552,-0.000184,-0.000000,-0.000087,-0.000433,0.002993,0.000932,0.253894,0.360787,9.710937,-0.186698,3.201865,0,0,,38.990819,-76.937964,-10.182000,,,
2026-09-11T16:25:20.488,3.275330,-0.000000,-0.000000,-0.000000,0.000000,-3.847454,1.323665,-0.000000,-0.000925,-0.001947,-0.000226,-0.000000,-0.000107,0.000731,0.002752,-0.000463,0.253796,0.360787,9.707505,-0.186770,3.201746,0,0,,38.990819,-76.937964,-10.182000,,,
2026-09-11T16:25:20.521,3.308751,-0.000000,-0.000000,-0.000000,0.000000,-3.847454,1.323665,-0.000000,-0.000627,-0.001319,-0.000280,-0.000000,-0.000133,0.000987,0.000999,0.000164,0.256346,0.363827,9.713585,-0.186676,3.201825,0,0,,38.990819,-76.937964,-10.182000,,,
2026-09-11T16:25:20.555,3.342170,-0.000000,-0.000000,-0.000000,0.000000,-3.847454,1.323665,-0.000000,-0.000820,-0.001727,-0.000331,-0.000000,-0.000157,0.001460,0.002828,-0.000243,0.256444,0.361473,9.711624,-0.186577,3.201751,0,0,,38.990819,-76.937964,-10.182000,,,
2026-09-11T16:25:20.588,3.375685,-0.000000,-0.000000,-0.000000,0.000000,-3.847454,1.323665,-0.000000,-0.000214,-0.000450,-0.000368,-0.000000,-0.000175,0.001605,0.002152,0.001034,0.254581,0.357354,9.705446,-0.186599,3.201410,0,0,,38.990819,-76.937964,-10.182000,,,
2026-09-11T16:25:20.621,3.409102,-0.000000,-0.000000,-0.000000,0.000000,-3.847454,1.323665,-0.000000,0.000321,0.000677,-0.000364,-0.000000,-0.000173,0.000672,0.001151,0.002160,0.249481,0.365690,9.711722,-0.186952,3.201614,0,0,,38.990819,-76.937964,-10.182000,,,
2026-09-11T16:25:20.655,3.442517,-0.000000,-0.000000,-0.000000,0.000000,-3.847454,1.323665,-0.000000,-0.000543,-0.001143,-0.000372,-0.000000,-0.000177,0.002667,0.002303,0.000341,0.253894,0.363140,9.713389,-0.187015,3.201650,0,0,,38.990819,-76.937964,-10.182000,,,
2026-09-11T16:25:20.688,3.475937,-0.000000,-0.000000,-0.000000,0.000000,-3.847454,1.323665,-0.000000,0.000325,0.000685,-0.000379,-0.000000,-0.000180,0.002549,0.001510,0.002168,0.256542,0.365592,9.716919,-0.186906,3.201845,0,0,,38.990819,-76.937964,-10.182000,,,
2026-09-11T16:25:20.722,3.509362,-0.000000,-0.000000,-0.000000,0.000000,-3.847454,1.323665,-0.000000,-0.000058,-0.000122,-0.000370,-0.000000,-0.000176,-0.001142,-0.000065,0.001362,0.259778,0.363336,9.706720,-0.186588,3.201892,0,0,,38.990819,-76.937964,-10.182000,,,
2026-09-11T16:25:20.755,3.542784,-0.000000,-0.000000,-0.000000,0.000000,-3.847454,1.323665,-0.000000,0.000053,0.000112,-0.000370,-0.000000,-0.000176,0.003599,0.001098,0.001595,0.256444,0.362258,9.706034,-0.186490,3.201868,0,0,,38.990819,-76.937964,-10.182000,,,
2026-09-11T16:25:20.788,3.576203,-0.000000,-0.000000,-0.000000,0.000000,-3.847454,1.323665,-0.000000,-0.000549,-0.001156,-0.000388,-0.000000,-0.000184,0.000271,0.001351,0.000328,0.256836,0.365592,9.716919,-0.186368,3.202060,0,0,,38.990819,-76.937964,-10.182000,,,
2026-09-11T16:25:20.822,3.609632,-0.000000,-0.000000,-0.000000,0.000000,-3.847454,1.323665,-0.000000,-0.000123,-0.000259,-0.000411,-0.000000,-0.000195,-0.000596,0.000805,0.001225,0.254581,0.364121,9.710937,-0.186393,3.202155,0,0,,38.990819,-76.937964,-10.182000,,,
2026-09-11T16:25:20.855,3.643062,-0.000000,-0.000000,-0.000000,0.000000,-3.847454,1.323665,-0.000000,0.000451,0.000949,-0.000400,-0.000000,-0.000190,-0.000068,0.000973,0.002433,0.258111,0.362552,9.715841,-0.186189,3.202147,0,0,,38.990819,-76.937964,-10.182000,,,
2026-09-11T16:25:20.888,3.676486,-0.000000,-0.000000,-0.000000,0.000000,-3.847454,1.323665,-0.000000,-0.000060,-0.000127,-0.000386,-0.000000,-0.000183,-0.000658,0.000737,0.001357,0.256444,0.362258,9.712016,-0.186095,3.202120,0,0,,38.990819,-76.937964,-10.182000,,,
2026-09-11T16:25:20.922,3.709918,-0.000000,-0.000000,-0.000000,0.000000,-3.847454,1.323665,-0.000000,0.000189,0.000398,-0.000381,-0.000000,-0.000181,0.000453,0.002307,0.001881,0.255365,0.362650,9.713389,-0.186072,3.202119,0,0,,38.990819,-76.937964,-10.182000,,,
2026-09-11T16:25:20.955,3.743340,-0.000000,-0.000000,-0.000000,0.000000,-3.847454,1.323665,-0.000000,0.000272,0.000574,-0.000365,-0.000000,-0.000173,0.000028,-0.000149,0.002057,0.253698,0.366573,9.712899,-0.186157,3.202372,0,0,,38.990819,-76.937964,-10.182000,,,
2026-09-11T16:25:20.988,3.776766,-0.000000,-0.000000,-0.000000,0.000000,-3.847454,1.323665,-0.000000,0.000142,0.000298,-0.000351,-0.000000,-0.000167,-0.000580,0.000438,0.001782,0.257621,0.368240,9.708976,-0.185988,3.202730,0,0,,38.990819,-76.937964,-10.182000,,,
2026-09-11T16:25:21.022,3.810183,-0.000000,-0.000000,-0.000000,0.000000,-3.847454,1.323665,-0.000000,-0.000655,-0.001378,-0.000369,-0.000000,-0.000175,0.000724,0.002452,0.000105,0.255169,0.366376,9.719175,-0.185979,3.202964,0,0,,38.990819,-76.937964,-10.182000,,,
2026-09-11T16:25:21.054,3.843598,-0.000000,-0.000000,-0.000000,0.000000,-3.847454,1.323665,-0.000000,0.000384,0.000809,-0.000378,-0.000000,-0.000180,-0.001037,0.000849,0.002292,0.256346,0.366082,9.716429,-0.185894,3.203176,0,1,3.841441,38.990818,-76.937963,-10.106000,0.164641,-0.013343,5.298489
2026-09-11T16:25:21.089,3.877018,-0.000000,-0.000000,-0.000000,0.000000,-3.847454,1.323665,-0.000000,0.000216,0.000455,-0.000357,-0.000000,-0.000170,-0.002393,0.000510,0.001938,0.254973,0.363336,9.715350,-0.185899,3.203207,0,0,,38.990818,-76.937963,-10.106000,,,
2026-09-11T16:25:21.122,3.910438,-0.000000,-0.000000,-0.000000,0.000000,-3.847454,1.323665,-0.000000,-0.000344,-0.000724,-0.000362,-0.000000,-0.000172,0.002580,0.002808,0.000759,0.254679,0.368142,9.718685,-0.185923,3.203550,0,0,,38.990818,-76.937963,-10.106000,,,
2026-09-11T16:25:21.156,3.943862,-0.000000,-0.000000,-0.000000,0.000000,-3.847454,1.323665,-0.000000,-0.000090,-0.000189,-0.000377,-0.000000,-0.000179,-0.000800,0.001397,0.001295,0.254973,0.365984,9.710545,-0.185927,3.203749,0,0,,38.990818,-76.937963,-10.106000,,,
2026-09-11T16:25:21.189,3.977283,-0.000000,-0.000000,-0.000000,0.000000,-3.847454,1.323665,-0.000000,-0.000385,-0.000810,-0.000394,-0.000000,-0.000187,-0.000845,0.002183,0.000673,0.254188,0.364807,9.717606,-0.185982,3.203869,0,0,,38.990818,-76.937963,-10.106000,,,
2026-09-11T16:25:21.223,4.010708,-0.000000,-0.000000,-0.000000,0.000000,-3.847454,1.323665,-0.000000,-0.000552,-0.001162,-0.000427,-0.000000,-0.000203,0.000882,0.002453,0.000322,0.253110,0.360787,9.706818,-0.186107,3.203728,0,0,,38.990818,-76.937963,-10.106000,,,
2026-09-11T16:25:21.256,4.044130,-0.000000,-0.000000,-0.000000,0.000000,-3.847454,1.323665,-0.000000,0.000185,0.000390,-0.000439,-0.000000,-0.000209,-0.000559,0.002248,0.001873,0.252914,0.362846,9.714173,-0.186242,3.203722,0,0,,38.990818,-76.937963,-10.106000,,,
2026-09-11T16:25:21.289,4.077551,-0.000000,-0.000000,-0.000000,0.000000,-3.847454,1.323665,-0.000000,-0.000678,-0.001428,-0.000457,-0.000000,-0.000217,0.001173,0.002525,0.000055,0.253502,0.364121,9.713193,-0.186339,3.203799,0,0,,38.990818,-76.937963,-10.106000,,,
2026-09-11T16:25:21.323,4.110969,-0.000000,-0.000000,-0.000000,0.000000,-3.847454,1.323665,-0.000000,-0.001133,-0.002385,-0.000521,-0.000000,-0.000247,0.001396,0.001804,-0.000901,0.253894,0.361179,9.707897,-0.186408,3.203684,0,0,,38.990818,-76.937963,-10.106000,,,
2026-09-11T16:25:21.356,4.144389,-0.000000,-0.000000,-0.000000,0.000000,-3.847454,1.323665,-0.000000,-0.000122,-0.000258,-0.000565,-0.000000,-0.000268,0.000435,0.002663,0.001226,0.256346,0.364317,9.710349,-0.186318,3.203773,0,0,,38.990818,-76.937963,-10.106000,,,
2026-09-11T16:25:21.390,4.177812,-0.000000,-0.000000,-0.000000,0.000000,-3.847454,1.323665,-0.000000,-0.000261,-0.000549,-0.000578,-0.000000,-0.000275,0.002437,0.002275,0.000935,0.257130,0.365102,9.717900,-0.186179,3.203913,0,0,,38.990818,-76.937963,-10.106000,,,
2026-09-11T16:25:21.424,4.211230,-0.000000,-0.000000,-0.000000,0.000000,-3.847454,1.323665,-0.000000,-0.000592,-0.001247,-0.000608,-0.000000,-0.000289,-0.000380,0.000515,0.000236,0.254581,0.363336,9.712801,-0.186206,3.203936,0,0,,38.990818,-76.937963,-10.106000,,,
2026-09-11T16:25:21.457,4.244649,-0.000000,-0.000000,-0.000000,0.000000,-3.847454,1.323665,-0.000000,-0.000548,-0.001153,-0.000648,-0.000000,-0.000308,0.001852,0.002357,0.000330,0.255071,0.361571,9.710349,-0.186201,3.203845,0,0,,38.990818,-76.937963,-10.106000,,,
2026-09-11T16:25:21.490,4.278069,-0.000000,-0.000000,-0.000000,0.000000,-3.847454,1.323665,-0.000000,-0.000675,-0.001422,-0.000691,-0.000000,-0.000328,0.002166,0.001525,0.000062,0.255365,0.360885,9.708682,-0.186177,3.203711,0,0,,38.990818,-76.937963,-10.106000,,,
2026-09-11T16:25:21.524,4.311485,-0.000000,-0.000000,-0.000000,0.000000,-3.847454,1.323665,-0.000000,-0.000267,-0.000562,-0.000724,-0.000000,-0.000344,0.000132,0.001887,0.000922,0.256346,0.361571,9.709859,-0.186090,3.203622,0,0,,38.990818,-76.937963,-10.106000,,,
2026-09-11T16:25:21.557,4.344909,-0.000000,-0.000000,-0.000000,0.000000,-3.847454,1.323665,-0.000000,-0.000081,-0.000171,-0.000737,-0.000000,-0.000350,0.002971,0.003209,0.001313,0.255365,0.365984,9.718783,-0.186067,3.203821,0,0,,38.990818,-76.937963,-10.106000,,,
2026-09-11T16:25:21.591,4.378327,-0.000000,-0.000000,-0.000000,0.000000,-3.847454,1.323665,-0.000000,0.000490,0.001031,-0.000722,-0.000000,-0.000343,0.003665,0.001647,0.002514,0.256052,0.358629,9.702602,-0.186000,3.203540,0,0,,38.990818,-76.937963,-10.106000,,,
2026-09-11T16:25:21.624,4.411746,-0.000000,-0.000000,-0.000000,0.000000,-3.847454,1.323665,-0.000000,0.000331,0.000696,-0.000693,-0.000000,-0.000329,0.000971,0.001851,0.002180,0.253208,0.368142,9.710643,-0.186118,3.203879,0,0,,38.990818,-76.937963,-10.106000,,,
2026-09-11T16:25:21.657,4.445173,-0.000000,-0.000000,-0.000000,0.000000,-3.847454,1.323665,-0.000000,-0.000198,-0.000417,-0.000689,-0.000000,-0.000327,0.002296,0.001500,0.001067,0.255071,0.362846,9.707407,-0.186114,3.203871,0,0,,38.990818,-76.937963,-10.106000,,,
2026-09-11T16:25:21.691,4.478592,-0.000000,-0.000000,-0.000000,0.000000,-3.847454,1.323665,-0.000000,0.001005,0.002116,-0.000660,-0.000000,-0.000314,-0.000552,0.000983,0.003599,0.256640,0.364317,9.714370,-0.186008,3.203959,0,0,,38.990818,-76.937963,-10.106000,,,
2026-09-11T16:25:21.724,4.512007,-0.000000,-0.000000,-0.000000,0.000000,-3.847454,1.323665,-0.000000,-0.000826,-0.001739,-0.000654,-0.000000,-0.000311,-0.000036,0.002817,-0.000256,0.257032,0.362356,9.713389,-0.185879,3.203918,0,0,,38.990818,-76.937963,-10.106000,,,
2026-09-11T16:25:21.758,4.545425,-0.000000,-0.000000,-0.000000,0.000000,-3.847454,1.323665,-0.000000,-0.000064,-0.000134,-0.000685,-0.000000,-0.000326,0.000806,0.001499,0.001349,0.254188,0.364905,9.714370,-0.185934,3.204044,0,0,,38.990818,-76.937963,-10.106000,,,
2026-09-11T16:25:21.791,4.578840,-0.000000,-0.000000,-0.000000,0.000000,-3.847454,1.323665,-0.000000,0.000922,0.001941,-0.000655,-0.000000,-0.000311,-0.000708,0.000131,0.003425,0.254286,0.364513,9.717312,-0.185983,3.204142,0,0,,38.990818,-76.937963,-10.106000,,,
2026-09-11T16:25:21.825,4.612262,-0.000000,-0.000000,-0.000000,0.000000,-3.847454,1.323665,-0.000000,-0.000666,-0.001402,-0.000646,-0.000000,-0.000307,0.001757,0.003328,0.000082,0.256444,0.362650,9.711231,-0.185892,3.204118,0,0,,38.990818,-76.937963,-10.106000,,,
2026-09-11T16:25:21.858,4.645685,-0.000000,-0.000000,-0.000000,0.000000,-3.847454,1.323665,-0.000000,0.000180,0.000378,-0.000663,-0.000000,-0.000315,0.000015,0.000535,0.001862,0.257327,0.362356,9.712899,-0.185744,3.204076,0,0,,38.990818,-76.937963,-10.106000,,,
2026-09-11T16:25:21.891,4.679103,-0.000000,-0.000000,-0.000000,0.000000,-3.847454,1.323665,-0.000000,0.001237,0.002604,-0.000613,-0.000000,-0.000291,-0.002756,0.000329,0.004088,0.253894,0.367161,9.709172,-0.185820,3.204346,0,0,,38.990818,-76.937963,-10.106000,,,
2026-09-11T16:25:21.925,4.712518,-0.000000,-0.000000,-0.000000,0.000000,-3.847454,1.323665,-0.000000,-0.001336,-0.002812,-0.000617,-0.000000,-0.000293,-0.000195,0.001672,-0.001329,0.252717,0.365396,9.713683,-0.185972,3.204498,0,0,,38.990818,-76.937963,-10.106000,,,
2026-09-11T16:25:21.958,4.745935,-0.000000,-0.000000,-0.000000,0.000000,-3.847454,1.323665,-0.000000,0.000332,0.000698,-0.000652,-0.000000,-0.000310,-0.000850,0.001470,0.002182,0.255071,0.363827,9.710937,-0.185970,3.204546,0,0,,38.990818,-76.937963,-10.106000,,,
2026-09-11T16:25:21.991,4.779359,-0.000000,-0.000000,-0.000000,0.000000,-3.847454,1.323665,-0.000000,0.000811,0.001707,-0.000612,-0.000000,-0.000291,-0.002634,0.001439,0.003191,0.258601,0.365102,9.711133,-0.185739,3.204677,0,0,,38.990818,-76.937963,-10.106000,,,
2026-09-11T16:25:22.025,4.812782,-0.000000,-0.000000,-0.000000,0.000000,-3.847454,1.323665,-0.000000,0.000761,0.001601,-0.000557,-0.000000,-0.000264,0.000314,0.001285,0.003085,0.254875,0.363140,9.717606,-0.185752,3.204680,0,0,,38.990818,-76.937963,-10.106000,,,
2026-09-11T16:25:22.058,4.846199,-0.000000,-0.000000,-0.000000,0.000000,-3.847454,1.323665,-0.000000,0.000585,0.001232,-0.000509,-0.000000,-0.000242,-0.001418,0.001900,0.002716,0.255856,0.363827,9.713683,-0.185701,3.204726,0,1,4.840635,38.990818,-76.937962,-10.013000,0.222403,-0.035397,5.298623
2026-09-11T16:25:22.092,4.879618,-0.000000,-0.000000,-0.000000,0.000000,-3.847454,1.323665,-0.000000,-0.000948,-0.001995,-0.000522,-0.000000,-0.000248,-0.000626,0.002125,-0.000512,0.253208,0.365592,9.711133,-0.185822,3.204887,0,0,,38.990818,-76.937962,-10.013000,,,
2026-09-11T16:25:22.125,4.913038,-0.000000,-0.000000,-0.000000,0.000000,-3.847454,1.323665,-0.000000,-0.000063,-0.000132,-0.000558,-0.000000,-0.000265,0.000655,0.001275,0.001351,0.255463,0.365788,9.720646,-0.185796,3.205058,0,0,,38.990818,-76.937962,-10.013000,,,
2026-09-11T16:25:22.158,4.946468,-0.000000,-0.000000,-0.000000,0.000000,-3.847454,1.323665,-0.000000,0.000300,0.000631,-0.000549,-0.000000,-0.000261,-0.000619,0.002202,0.002115,0.253698,0.365396,9.714370,-0.185884,3.205203,0,0,,38.990818,-76.937962,-10.013000,,,
2026-09-11T16:25:22.192,4.979888,-0.000000,-0.000000,-0.000000,0.000000,-3.847454,1.323665,-0.000000,0.000000,0.000000,-0.000539,-0.000000,-0.000256,-0.000877,0.002443,0.001484,0.252914,0.365886,9.715644,-0.186022,3.205377,0,0,,38.990818,-76.937962,-10.013000,,,
2026-09-11T16:25:22.226,5.013316,-0.000000,-0.000000,-0.000000,0.000000,-3.847454,1.323665,-0.000000,-0.000880,-0.001854,-0.000570,-0.000000,-0.000271,-0.000009,0.000721,-0.000370,0.255267,0.358335,9.706132,-0.186007,3.205060,0,0,,38.990818,-76.937962,-10.013000,,,
2026-09-11T16:25:22.259,5.046734,-0.000000,-0.000000,-0.000000,0.000000,-3.847454,1.323665,-0.000000,-0.000299,-0.000629,-0.000611,-0.000000,-0.000290,0.000363,0.002553,0.000854,0.254385,0.363336,9.712899,-0.186048,3.205071,0,0,,38.990818,-76.937962,-10.013000,,,
2026-09-11T16:25:22.292,5.080153,-0.000000,-0.000000,-0.000000,0.000000,-3.847454,1.323665,-0.000000,-0.000995,-0.002094,-0.000657,-0.000000,-0.000312,-0.001360,0.002622,-0.000610,0.253600,0.362160,9.705936,-0.186140,3.205006,0,0,,38.990818,-76.937962,-10.013000,,,
2026-09-11T16:25:22.326,5.113580,-0.000000,-0.000000,-0.000000,0.000000,-3.847454,1.323665,-0.000000,-0.000057,-0.000121,-0.000694,-0.000000,-0.000330,-0.000181,0.001285,0.001363,0.256052,0.365396,9.708682,-0.186073,3.205151,0,0,,38.990818,-76.937962,-10.013000,,,
2026-09-11T16:25:22.359,5.146996,-0.000000,-0.000000,-0.000000,0.000000,-3.847454,1.323665,-0.000000,-0.000303,-0.000638,-0.000706,-0.000000,-0.000336,0.001021,0.002718,0.000846,0.253404,0.366573,9.714173,-0.186177,3.205370,0,0,,38.990818,-76.937962,-10.013000,,,
2026-09-11T16:25:22.393,5.180416,-0.000000,-0.000000,-0.000000,0.000000,-3.847454,1.323665,-0.000000,0.000692,0.001458,-0.000693,-0.000000,-0.000329,0.003002,0.002474,0.002941,0.253600,0.365102,9.706426,-0.186267,3.205492,0,0,,38.990818,-76.937962,-10.013000,,,
2026-09-11T16:25:22.426,5.213833,-0.000000,-0.000000,-0.000000,0.000000,-3.847454,1.323665,-0.000000,-0.000220,-0.000462,-0.000676,-0.000000,-0.000321,0.000900,0.002186,0.001021,0.256052,0.362650,9.707407,-0.186198,3.205453,0,0,,38.990818,-76.937962,-10.013000,,,
2026-09-11T16:25:22.460,5.247251,-0.000000,-0.000000,-0.000000,0.000000,-3.847454,1.323665,-0.000000,-0.000781,-0.001645,-0.000711,-0.000000,-0.000338,0.000394,0.003673,-0.000161,0.250952,0.365984,9.716527,-0.186460,3.205631,0,0,,38.990818,-76.937962,-10.013000,,,
2026-09-11T16:25:22.493,5.280675,-0.000000,-0.000000,-0.000000,0.000000,-3.847454,1.323665,-0.000000,0.000702,0.001478,-0.000714,-0.000000,-0.000339,0.003012,0.001768,0.002961,0.256836,0.362356,9.712408,-0.186338,3.205572,0,0,,38.990818,-76.937962,-10.013000,,,
2026-09-11T16:25:22.526,5.314092,-0.000000,-0.000000,-0.000000,0.000000,-3.847454,1.323665,-0.000000,0.000236,0.000497,-0.000681,-0.000000,-0.000324,-0.001970,0.002645,0.001981,0.257817,0.363631,9.709662,-0.186154,3.205596,0,0,,38.990818,-76.937962,-10.013000,,,
2026-09-11T16:25:22.560,5.347508,-0.000000,-0.000000,-0.000000,0.000000,-3.847454,1.323665,-0.000000,-0.000190,-0.000400,-0.000680,-0.000000,-0.000323,0.002769,0.002346,0.001084,0.258307,0.362846,9.711820,-0.185940,3.205570,0,0,,38.990818,-76.937962,-10.013000,,,
2026-09-11T16:25:22.593,5.380927,-0.000000,-0.000000,-0.000000,0.000000,-3.847454,1.323665,-0.000000,-0.000870,-0.001831,-0.000717,-0.000000,-0.000340,0.001611,0.001342,-0.000347,0.254385,0.363631,9.711624,-0.185982,3.205594,0,0,,38.990818,-76.937962,-10.013000,,,
2026-09-11T16:25:22.626,5.414345,-0.000000,-0.000000,-0.000000,0.000000,-3.847454,1.323665,-0.000000,-0.000949,-0.001999,-0.000781,-0.000000,-0.000371,0.001304,0.002640,-0.000515,0.256150,0.365592,9.712899,-0.185910,3.205745,0,0,,38.990818,-76.937962,-10.013000,,,
2026-09-11T16:25:22.659,5.447763,-0.000000,-0.000000,-0.000000,0.000000,-3.847454,1.323665,-0.000000,-0.000815,-0.001717,-0.000843,-0.000000,-0.000400,0.000368,0.000660,-0.000233,0.257621,0.364121,9.714958,-0.185743,3.205799,0,0,,38.990818,-76.937962,-10.013000,,,
2026-09-11T16:25:22.693,5.481185,-0.000000,-0.000000,-0.000000,0.000000,-3.847454,1.323665,-0.000000,-0.000744,-0.001565,-0.000898,-0.000000,-0.000426,0.001398,0.001205,-0.000082,0.255169,0.366082,9.717606,-0.185737,3.205979,0,0,,38.990818,-76.937962,-10.013000,,,
2026-09-11T16:25:22.727,5.514609,-0.000000,-0.000000,-0.000000,0.000000,-3.847454,1.323665,-0.000000,0.000062,0.000131,-0.000922,-0.000000,-0.000438,0.002483,0.003134,0.001615,0.255757,0.360100,9.705347,-0.185693,3.205770,0,0,,38.990818,-76.937962,-10.013000,,,
2026-09-11T16:25:22.760,5.548054,-0.000000,-0.000000,-0.000000,0.000000,-3.847454,1.323665,-0.000000,0.000143,0.000300,-0.000914,-0.000000,-0.000434,-0.000629,0.000835,0.001784,0.252914,0.363631,9.716135,-0.185833,3.205792,0,0,,38.990818,-76.937962,-10.013000,,,
2026-09-11T16:25:22.793,5.581473,-0.000000,-0.000000,-0.000000,0.000000,-3.847454,1.323665,-0.000000,-0.000801,-0.001687,-0.000938,-0.000000,-0.000445,0.000790,0.002013,-0.000203,0.254581,0.363336,9.708388,-0.185864,3.205795,0,0,,38.990818,-76.937962,-10.013000,,,
2026-09-11T16:25:22.827,5.614887,-0.000000,-0.000000,-0.000000,0.000000,-3.847454,1.323665,-0.000000,-0.001333,-0.002807,-0.001013,-0.000000,-0.000481,0.001097,0.002088,-0.001323,0.253894,0.361081,9.710643,-0.185939,3.205652,0,0,,38.990818,-76.937962,-10.013000,,,
2026-09-11T16:25:22.860,5.648305,-0.000000,-0.000000,-0.000000,0.000000,-3.847454,1.323665,-0.000000,-0.000301,-0.000635,-0.001070,-0.000000,-0.000508,0.000396,0.000159,0.000849,0.252423,0.366769,9.717312,-0.186108,3.205878,0,0,,38.990818,-76.937962,-10.013000,,,
2026-09-11T16:25:22.894,5.681724,-0.000000,-0.000000,-0.000000,0.000000,-3.847454,1.323665,-0.000000,-0.000771,-0.001623,-0.001108,-0.000000,-0.000526,0.002632,0.002592,-0.000139,0.254090,0.359414,9.705151,-0.186168,3.205626,0,0,,38.990818,-76.937962,-10.013000,,,
2026-09-11T16:25:22.928,5.715148,-0.000000,-0.000000,-0.000000,0.000000,-3.847454,1.323665,-0.000000,-0.000757,-0.001595,-0.001162,-0.000000,-0.000552,0.002048,0.001899,-0.000111,0.255071,0.364121,9.711624,-0.186163,3.205681,0,0,,38.990818,-76.937962,-10.013000,,,
2026-09-11T16:25:22.961,5.748569,-0.000000,-0.000000,-0.000000,0.000000,-3.847454,1.323665,-0.000000,-0.000439,-0.000925,-0.001204,-0.000000,-0.000572,-0.000698,0.000905,0.000559,0.257032,0.362552,9.710839,-0.186032,3.205635,0,0,,38.990818,-76.937962,-10.013000,,,
2026-09-11T16:25:22.994,5.781984,-0.000000,-0.000000,-0.000000,0.000000,-3.847454,1.323665,-0.000000,0.000250,0.000526,-0.001210,-0.000000,-0.000575,0.002152,0.001306,0.002009,0.254973,0.364513,9.711624,-0.186035,3.205715,0,0,,38.990818,-76.937962,-10.013000,,,
2026-09-11T16:25:23.028,5.815398,-0.000000,-0.000000,-0.000000,0.000000,-3.847454,1.323665,-0.000000,0.000380,0.000801,-0.001188,-0.000000,-0.000564,-0.000485,0.000636,0.002284,0.253110,0.365396,9.709662,-0.186159,3.205852,0,0,,38.990818,-76.937962,-10.013000,,,
2026-09-11T16:25:23.061,5.848817,-0.000000,-0.000000,-0.000000,0.000000,-3.847454,1.323665,-0.000000,-0.000280,-0.000589,-0.001185,-0.000000,-0.000563,-0.001140,0.001515,0.000895,0.253110,0.362846,9.714370,-0.186281,3.205823,0,1,5.841348,38.990818,-76.937962,-9.969000,0.281892,-0.051150,5.130985
2026-09-11T16:25:23.094,5.882233,-0.000000,-0.000000,-0.000000,0.000000,-3.847454,1.323665,-0.000000,0.000677,0.001425,-0.001171,-0.000000,-0.000556,0.001150,0.001089,0.002909,0.258307,0.362258,9.706034,-0.186066,3.205755,0,0,,38.990818,-76.937962,-9.969000,,,
2026-09-11T16:25:23.128,5.915653,-0.000000,-0.000000,-0.000000,0.000000,-3.847454,1.323665,-0.000000,0.000327,0.000689,-0.001135,-0.000000,-0.000539,-0.000373,0.000341,0.002173,0.255365,0.367847,9.710153,-0.186043,3.206050,0,0,,38.990818,-76.937962,-9.969000,,,
2026-09-11T16:25:23.161,5.949069,-0.000000,-0.000000,-0.000000,0.000000,-3.847454,1.323665,-0.000000,-0.000445,-0.000938,-0.001140,-0.000000,-0.000541,-0.001245,0.001460,0.000546,0.252031,0.365592,9.713585,-0.186237,3.206196,0,0,,38.990818,-76.937962,-9.969000,,,
2026-09-11T16:25:23.195,5.982485,-0.000000,-0.000000,-0.000000,0.000000,-3.847454,1.323665,-0.000000,-0.000111,-0.000234,-0.001159,-0.000000,-0.000551,-0.001728,0.000004,0.001250,0.252717,0.365886,9.716919,-0.186384,3.206359,0,0,,38.990818,-76.937962,-9.969000,,,
2026-09-11T16:25:23.228,6.015899,-0.000000,-0.000000,-0.000000,0.000000,-3.847454,1.323665,-0.000000,0.000322,0.000679,-0.001152,-0.000000,-0.000547,-0.001128,0.000848,0.002162,0.251344,0.357649,9.708976,-0.186618,3.205988,0,0,,38.990818,-76.937962,-9.969000,,,
2026-09-11T16:25:23.262,6.049318,-0.000000,-0.000000,-0.000000,0.000000,-3.847454,1.323665,-0.000000,-0.000834,-0.001757,-0.001170,-0.000000,-0.000556,-0.001271,0.002191,-0.000273,0.256444,0.363336,9.716135,-0.186520,3.205988,0,0,,38.990818,-76.937962,-9.969000,,,
2026-09-11T16:25:23.295,6.082735,-0.000000,-0.000000,-0.000000,0.000000,-3.847454,1.323665,-0.000000,-0.000831,-0.001749,-0.001228,-0.000000,-0.000583,0.000334,0.000660,-0.000265,0.256836,0.361865,9.713487,-0.186397,3.205894,0,0,,38.990818,-76.937962,-9.969000,,,
2026-09-11T16:25:23.328,6.116153,-0.000000,-0.000000,-0.000000,0.000000,-3.847454,1.323665,-0.000000,-0.000519,-0.001092,-0.001276,-0.000000,-0.000606,-0.002880,0.000917,0.000392,0.253404,0.364415,9.711918,-0.186498,3.205965,0,0,,38.990818,-76.937962,-9.969000,,,
2026-09-11T16:25:23.362,6.149572,-0.000000,-0.000000,-0.000000,0.000000,-3.847454,1.323665,-0.000000,0.000437,0.000920,-0.001279,-0.000000,-0.000607,0.000783,0.003060,0.002404,0.253404,0.362356,9.716135,-0.186597,3.205902,0,0,,38.990818,-76.937962,-9.969000,,,
2026-09-11T16:25:23.395,6.182991,-0.000000,-0.000000,-0.000000,0.000000,-3.847454,1.323665,-0.000000,-0.000784,-0.001650,-0.001291,-0.000000,-0.000613,-0.000371,0.001708,-0.000166,0.257032,0.361865,9.708388,-0.186461,3.205809,0,0,,38.990818,-76.937962,-9.969000,,,
2026-09-11T16:25:23.429,6.216409,-0.000000,-0.000000,-0.000000,0.000000,-3.847454,1.323665,-0.000000,-0.000304,-0.000641,-0.001329,-0.000000,-0.000631,-0.000588,0.001325,0.000843,0.252914,0.363631,9.717704,-0.186593,3.205830,0,0,,38.990818,-76.937962,-9.969000,,,
2026-09-11T16:25:23.462,6.249836,-0.000000,-0.000000,-0.000000,0.000000,-3.847454,1.323665,-0.000000,-0.001114,-0.002346,-0.001379,-0.000000,-0.000655,0.000968,0.001764,-0.000863,0.254286,0.367455,9.707505,-0.186634,3.206099,0,0,,38.990818,-76.937962,-9.969000,,,
2026-09-11T16:25:23.496,6.283270,-0.000000,-0.000000,-0.000000,0.000000,-3.847454,1.323665,-0.000000,-0.000574,-0.001208,-0.001438,-0.000000,-0.000683,-0.002275,0.001611,0.000276,0.258111,0.368044,9.719077,-0.186428,3.206404,0,0,,38.990818,-76.937962,-9.969000,,,
2026-09-11T16:25:23.529,6.316697,-0.000000,-0.000000,-0.000000,0.000000,-3.847454,1.323665,-0.000000,-0.000390,-0.000821,-0.001472,-0.000001,-0.000699,-0.000013,0.002482,0.000662,0.252914,0.365396,9.703190,-0.186560,3.206533,0,0,,38.990818,-76.937962,-9.969000,,,
2026-09-11T16:25:23.562,6.350124,-0.000000,-0.000000,-0.000000,0.000000,-3.847454,1.323665,-0.000000,0.000693,0.001460,-0.001462,-0.000001,-0.000694,0.002768,0.001852,0.002943,0.256346,0.365886,9.710839,-0.186468,3.206692,0,0,,38.990818,-76.937962,-9.969000,,,
2026-09-11T16:25:23.596,6.383543,-0.000000,-0.000000,-0.000000,0.000000,-3.847454,1.323665,-0.000000,-0.000606,-0.001275,-0.001459,-0.000001,-0.000693,-0.000316,0.003009,0.000208,0.252619,0.362160,9.709466,-0.186619,3.206609,0,0,,38.990818,-76.937962,-9.969000,,,
2026-09-11T16:25:23.629,6.416962,-0.000000,-0.000000,-0.000000,0.000000,-3.847454,1.323665,-0.000000,-0.001107,-0.002329,-0.001519,-0.000001,-0.000721,-0.000102,0.002774,-0.000846,0.253894,0.364513,9.712801,-0.186686,3.206679,0,0,,38.990818,-76.937962,-9.969000,,,
2026-09-11T16:25:23.663,6.450379,-0.000000,-0.000000,-0.000000,0.000000,-3.847454,1.323665,-0.000000,-0.000527,-0.001110,-0.001576,-0.000001,-0.000749,0.001756,0.001407,0.000373,0.252619,0.360885,9.710153,-0.186834,3.206513,0,0,,38.990818,-76.937962,-9.969000,,,
2026-09-11T16:25:23.696,6.483809,-0.000000,-0.000000,-0.000000,0.000000,-3.847454,1.323665,-0.000000,0.000153,0.000322,-0.001590,-0.000001,-0.000755,0.002908,0.002919,0.001805,0.257817,0.364611,9.716331,-0.186644,3.206590,0,0,,38.990818,-76.937962,-9.969000,,,
2026-09-11T16:25:23.729,6.517226,-0.000000,-0.000000,-0.000000,0.000000,-3.847454,1.323665,-0.000000,-0.000226,-0.000476,-0.001592,-0.000001,-0.000756,0.001955,0.002246,0.001007,0.255169,0.366867,9.711624,-0.186628,3.206813,0,0,,38.990818,-76.937962,-9.969000,,,
2026-09-11T16:25:23.763,6.550644,-0.000000,-0.000000,-0.000000,0.000000,-3.847454,1.323665,-0.000000,-0.000308,-0.000648,-0.001611,-0.000001,-0.000765,-0.000224,0.000426,0.000836,0.253012,0.369122,9.716919,-0.186752,3.207179,0,0,,38.990818,-76.937962,-9.969000,,,
2026-09-11T16:25:23.796,6.584063,-0.000000,-0.000000,-0.000000,0.000000,-3.847454,1.323665,-0.000000,-0.000436,-0.000918,-0.001637,-0.000001,-0.000778,0.002295,0.002517,0.000565,0.251737,0.367357,9.714664,-0.186956,3.207427,0,0,,38.990818,-76.937962,-9.969000,,,
2026-09-11T16:25:23.829,6.617487,-0.000000,-0.000000,-0.000000,0.000000,-3.847454,1.323665,-0.000000,-0.000000,-0.000000,-0.001652,-0.000001,-0.000785,0.002178,0.001077,0.001483,0.256836,0.363336,9.713389,-0.186829,3.207411,0,0,,38.990818,-76.937962,-9.969000,,,
2026-09-11T16:25:23.863,6.650904,-0.000000,-0.000000,-0.000000,0.000000,-3.847454,1.323665,-0.000000,0.000864,0.001818,-0.001622,-0.000001,-0.000770,-0.003532,0.001281,0.003301,0.256836,0.363336,9.710545,-0.186703,3.207396,0,0,,38.990818,-76.937962,-9.969000,,,
2026-09-11T16:25:23.896,6.684335,-0.000000,-0.000000,-0.000000,0.000000,-3.847454,1.323665,-0.000000,0.000191,0.000401,-0.001585,-0.000001,-0.000753,0.003260,0.001379,0.001885,0.255169,0.365102,9.716919,-0.186686,3.207495,0,0,,38.990818,-76.937962,-9.969000,,,
2026-09-11T16:25:23.930,6.717778,-0.000000,-0.000000,-0.000000,0.000000,-3.847454,1.323665,-0.000000,0.000344,0.000724,-0.001566,-0.000001,-0.000744,0.000452,0.001203,0.002207,0.255071,0.361081,9.716135,-0.186676,3.207333,0,0,,38.990818,-76.937962,-9.969000,,,
2026-09-11T16:25:23.963,6.751197,-0.000000,-0.000000,-0.000000,0.000000,-3.847454,1.323665,-0.000000,-0.000789,-0.001662,-0.001582,-0.000001,-0.000751,0.000753,0.003159,-0.000178,0.255856,0.362650,9.712604,-0.186615,3.207274,0,0,,38.990818,-76.937962,-9.969000,,,
2026-09-11T16:25:23.998,6.784616,-0.000000,-0.000000,-0.000000,0.000000,-3.847454,1.323665,-0.000000,-0.000372,-0.000784,-0.001623,-0.000001,-0.000771,0.000148,0.000366,0.000700,0.256836,0.363336,9.709368,-0.186491,3.207261,0,0,,38.990818,-76.937962,-9.969000,,,
2026-09-11T16:25:24.030,6.818029,-0.000000,-0.000000,-0.000000,0.000000,-3.847454,1.323665,-0.000000,0.000186,0.000391,-0.001629,-0.000001,-0.000774,-0.000180,0.000312,0.001875,0.251344,0.366769,9.715056,-0.186724,3.207469,0,0,,38.990818,-76.937962,-9.969000,,,
2026-09-11T16:25:24.064,6.851452,-0.000000,-0.000000,-0.000000,0.000000,-3.847454,1.323665,-0.000000,-0.000360,-0.000757,-0.001635,-0.000001,-0.000777,0.001603,0.001866,0.000727,0.256640,0.368044,9.713389,-0.186611,3.207758,0,1,6.838582,38.990818,-76.937961,-9.934000,0.333892,-0.066532,5.130985
2026-09-11T16:25:24.098,6.884871,-0.000000,-0.000000,-0.000000,0.000000,-3.847454,1.323665,-0.000000,-0.000008,-0.000017,-0.001648,-0.000001,-0.000783,-0.001267,0.001952,0.001466,0.253992,0.367847,9.719665,-0.186672,3.208031,0,0,,38.990818,-76.937961,-9.934000,,,
2026-09-11T16:25:24.131,6.918287,-0.000000,-0.000000,-0.000000,0.000000,-3.847454,1.323665,-0.000000,0.000622,0.001310,-0.001627,-0.000001,-0.000773,-0.002600,0.000006,0.002794,0.253110,0.361865,9.709368,-0.186789,3.207914,0,0,,38.990818,-76.937961,-9.934000,,,
2026-09-11T16:25:24.164,6.951704,-0.000000,-0.000000,-0.000000,0.000000,-3.847454,1.323665,-0.000000,-0.000640,-0.001348,-0.001627,-0.000001,-0.000773,0.001611,0.002046,0.000136,0.252619,0.356864,9.713389,-0.186936,3.207474,0,0,,38.990818,-76.937961,-9.934000,,,
2026-09-11T16:25:24.197,6.985127,-0.000000,-0.000000,-0.000000,0.000000,-3.847454,1.323665,-0.000000,0.000055,0.000117,-0.001648,-0.000001,-0.000783,-0.001684,0.000489,0.001600,0.255169,0.365886,9.713193,-0.186916,3.207623,0,0,,38.990818,-76.937961,-9.934000,,,
2026-09-11T16:25:24.231,7.018555,-0.000000,-0.000000,-0.000000,0.000000,-3.847454,1.323665,-0.000000,0.000068,0.000143,-0.001644,-0.000001,-0.000781,-0.001207,0.000264,0.001626,0.254188,0.362258,9.706426,-0.186961,3.207536,0,0,,38.990818,-76.937961,-9.934000,,,
2026-09-11T16:25:24.265,7.051987,-0.000000,-0.000000,-0.000000,0.000000,-3.847454,1.323665,-0.000000,-0.000424,-0.000893,-0.001656,-0.000001,-0.000787,0.003535,0.001940,0.000591,0.258307,0.366867,9.712408,-0.186738,3.207748,0,0,,38.990818,-76.937961,-9.934000,,,
2026-09-11T16:25:24.298,7.085404,-0.000000,-0.000000,-0.000000,0.000000,-3.847454,1.323665,-0.000000,-0.000500,-0.001052,-0.001689,-0.000001,-0.000802,-0.000883,0.001411,0.000431,0.252423,0.362356,9.706720,-0.186898,3.207665,0,0,,38.990818,-76.937961,-9.934000,,,
2026-09-11T16:25:24.331,7.118824,-0.000000,-0.000000,-0.000000,0.000000,-3.847454,1.323665,-0.000000,-0.000336,-0.000707,-0.001718,-0.000001,-0.000816,-0.001214,0.001923,0.000776,0.251344,0.365592,9.714272,-0.187127,3.207793,0,0,,38.990818,-76.937961,-9.934000,,,
2026-09-11T16:25:24.364,7.152244,-0.000000,-0.000000,-0.000000,0.000000,-3.847454,1.323665,-0.000000,-0.000586,-0.001233,-0.001750,-0.000001,-0.000831,0.001095,0.001265,0.000251,0.255365,0.365984,9.708976,-0.187092,3.207945,0,0,,38.990818,-76.937961,-9.934000,,,
2026-09-11T16:25:24.398,7.185665,-0.000000,-0.000000,-0.000000,0.000000,-3.847454,1.323665,-0.000000,0.000171,0.000361,-0.001765,-0.000001,-0.000838,-0.001436,0.003647,0.001844,0.254385,0.363140,9.713683,-0.187122,3.207912,0,0,,38.990818,-76.937961,-9.934000,,,
2026-09-11T16:25:24.431,7.219094,-0.000000,-0.000000,-0.000000,0.000000,-3.847454,1.323665,-0.000000,0.000101,0.000213,-0.001755,-0.000001,-0.000834,-0.000352,0.002958,0.001697,0.256836,0.363042,9.718390,-0.186993,3.207872,0,0,,38.990818,-76.937961,-9.934000,,,
2026-09-11T16:25:24.465,7.252514,-0.000000,-0.000000,-0.000000,0.000000,-3.847454,1.323665,-0.000000,0.000539,0.001134,-0.001733,-0.000001,-0.000823,-0.001651,0.000352,0.002617,0.252423,0.364121,9.712016,-0.187150,3.207902,0,0,,38.990818,-76.937961,-9.934000,,,
2026-09-11T16:25:24.498,7.285946,-0.000000,-0.000000,-0.000000,0.000000,-3.847454,1.323665,-0.000000,-0.000563,-0.001186,-0.001734,-0.000001,-0.000824,0.000934,0.001858,0.000298,0.253894,0.364121,9.712899,-0.187211,3.207932,0,0,,38.990818,-76.937961,-9.934000,,,
2026-09-11T16:25:24.531,7.319368,-0.000000,-0.000000,-0.000000,0.000000,-3.847454,1.323665,-0.000000,-0.000682,-0.001436,-0.001778,-0.000001,-0.000844,0.000106,0.002531,0.000048,0.255561,0.360885,9.704367,-0.187163,3.207753,0,0,,38.990818,-76.937961,-9.934000,,,
2026-09-11T16:25:24.565,7.352784,-0.000000,-0.000000,-0.000000,0.000000,-3.847454,1.323665,-0.000000,-0.000128,-0.000269,-0.001806,-0.000001,-0.000858,-0.002244,0.000681,0.001214,0.255757,0.359610,9.715350,-0.187103,3.207492,0,0,,38.990818,-76.937961,-9.934000,,,
2026-09-11T16:25:24.598,7.386310,-0.000000,-0.000000,-0.000000,0.000000,-3.847454,1.323665,-0.000000,-0.000648,-0.001365,-0.001833,-0.000001,-0.000871,0.001423,0.002881,0.000118,0.253894,0.364317,9.714860,-0.187164,3.207540,0,0,,38.990818,-76.937961,-9.934000,,,
2026-09-11T16:25:24.632,7.419729,-0.000000,-0.000000,-0.000000,0.000000,-3.847454,1.323665,-0.000000,-0.000467,-0.000983,-0.001873,-0.000001,-0.000889,0.002227,0.002539,0.000501,0.255659,0.366867,9.713683,-0.187111,3.207752,0,0,,38.990818,-76.937961,-9.934000,,,
2026-09-11T16:25:24.666,7.453148,-0.000000,-0.000000,-0.000000,0.000000,-3.847454,1.323665,-0.000000,0.000534,0.001123,-0.001870,-0.000001,-0.000888,-0.000832,0.000762,0.002607,0.255071,0.365984,9.719861,-0.187096,3.207904,0,0,,38.990818,-76.937961,-9.934000,,,
2026-09-11T16:25:24.699,7.486565,-0.000000,-0.000000,-0.000000,0.000000,-3.847454,1.323665,-0.000000,-0.000177,-0.000373,-0.001858,-0.000001,-0.000882,0.002478,0.002761,0.001111,0.253110,0.363631,9.709662,-0.187208,3.207903,0,0,,38.990818,-76.937961,-9.934000,,,
2026-09-11T16:25:24.732,7.519987,-0.000000,-0.000000,-0.000000,0.000000,-3.847454,1.323665,-0.000000,-0.000135,-0.000284,-0.001869,-0.000001,-0.000888,0.002209,0.001675,0.001199,0.251148,0.362944,9.710643,-0.187446,3.207857,0,0,,38.990818,-76.937961,-9.934000,,,
2026-09-11T16:25:24.766,7.553415,-0.000000,-0.000000,-0.000000,0.000000,-3.847454,1.323665,-0.000000,0.000364,0.000766,-0.001861,-0.000001,-0.000884,-0.000921,0.001954,0.002250,0.253208,0.364121,9.715448,-0.187547,3.207887,0,0,,38.990818,-76.937961,-9.934000,,,
2026-09-11T16:25:24.799,7.586836,-0.000000,-0.000000,-0.000000,0.000000,-3.847454,1.323665,-0.000000,0.000307,0.000647,-0.001837,-0.000001,-0.000873,0.002811,0.000819,0.002131,0.252423,0.366867,9.716919,-0.187699,3.208096,0,0,,38.990818,-76.937961,-9.934000,,,
2026-09-11T16:25:24.832,7.620252,-0.000000,-0.000000,-0.000000,0.000000,-3.847454,1.323665,-0.000000,0.000080,0.000169,-0.001823,-0.000001,-0.000866,0.001074,0.001589,0.001652,0.257327,0.366573,9.714860,-0.187531,3.208282,0,0,,38.990818,-76.937961,-9.934000,,,
2026-09-11T16:25:24.866,7.653675,-0.000000,-0.000000,-0.000000,0.000000,-3.847454,1.323665,-0.000000,-0.000138,-0.000290,-0.001825,-0.000001,-0.000867,-0.000364,0.003126,0.001194,0.255757,0.359610,9.715350,-0.187467,3.208016,0,0,,38.990818,-76.937961,-9.934000,,,
2026-09-11T16:25:24.899,7.687093,-0.000000,-0.000000,-0.000000,0.000000,-3.847454,1.323665,-0.000000,-0.000407,-0.000857,-0.001845,-0.000001,-0.000876,0.000818,0.001149,0.000626,0.257032,0.361375,9.708584,-0.187321,3.207867,0,0,,38.990818,-76.937961,-9.934000,,,
2026-09-11T16:25:24.933,7.720522,-0.000000,-0.000000,-0.000000,0.000000,-3.847454,1.323665,-0.000000,-0.000404,-0.000852,-0.001873,-0.000001,-0.000890,0.000299,0.000479,0.000632,0.256346,0.363631,9.714860,-0.187221,3.207866,0,0,,38.990818,-76.937961,-9.934000,,,
2026-09-11T16:25:24.966,7.753934,-0.000000,-0.000000,-0.000000,0.000000,-3.847454,1.323665,-0.000000,-0.000006,-0.000013,-0.001888,-0.000001,-0.000897,0.000904,0.002515,0.001471,0.253894,0.364905,9.710545,-0.187281,3.207947,0,0,,38.990818,-76.937961,-9.934000,,,
2026-09-11T16:25:25.000,7.787351,-0.000000,-0.000000,-0.000000,0.000000,-3.847454,1.323665,-0.000000,0.000215,0.000452,-0.001880,-0.000001,-0.000893,-0.000617,0.000194,0.001935,0.253894,0.362846,9.710153,-0.187341,3.207894,0,0,,38.990818,-76.937961,-9.934000,,,
2026-09-11T16:25:25.033,7.820768,-0.000000,-0.000000,-0.000000,0.000000,-3.847454,1.323665,-0.000000,-0.000011,-0.000024,-0.001873,-0.000001,-0.000890,-0.001048,0.000400,0.001460,0.256150,0.364807,9.713487,-0.187253,3.207969,0,0,,38.990818,-76.937961,-9.934000,,,
2026-09-11T16:25:25.067,7.854186,-0.000000,-0.000000,-0.000000,0.000000,-3.847454,1.323665,-0.000000,-0.000683,-0.001437,-0.001898,-0.000001,-0.000901,0.001866,0.002568,0.000046,0.254581,0.362258,9.710545,-0.187268,3.207878,0,1,7.838864,38.990818,-76.937960,-9.905000,0.388196,-0.083211,5.131563
2026-09-11T16:25:25.100,7.887607,-0.000000,-0.000000,-0.000000,0.000000,-3.847454,1.323665,-0.000000,-0.000065,-0.000136,-0.001924,-0.000001,-0.000914,-0.000708,0.001123,0.001348,0.251933,0.363336,9.713683,-0.187455,3.207857,0,0,,38.990818,-76.937960,-9.905000,,,
2026-09-11T16:25:25.133,7.921031,-0.000000,-0.000000,-0.000000,0.000000,-3.847454,1.323665,-0.000000,0.000289,0.000607,-0.001916,-0.000001,-0.000910,-0.000689,0.000855,0.002091,0.254679,0.366376,9.711133,-0.187461,3.208034,0,0,,38.990818,-76.937960,-9.905000,,,
2026-09-11T16:25:25.167,7.954451,-0.000000,-0.000000,-0.000000,0.000000,-3.847454,1.323665,-0.000000,-0.000387,-0.000815,-0.001919,-0.000001,-0.000912,0.001825,0.001638,0.000668,0.253208,0.369711,9.718390,-0.187563,3.208425,0,0,,38.990818,-76.937960,-9.905000,,,
2026-09-11T16:25:25.200,7.987870,-0.000000,-0.000000,-0.000000,0.000000,-3.847454,1.323665,-0.000000,0.000905,0.001905,-0.001901,-0.000001,-0.000903,-0.001085,0.001064,0.003388,0.256640,0.365102,9.711918,-0.187441,3.208513,0,0,,38.990818,-76.937960,-9.905000,,,
2026-09-11T16:25:25.234,8.021289,-0.000000,-0.000000,-0.000000,0.000000,-3.847454,1.323665,-0.000000,-0.000196,-0.000412,-0.001876,-0.000001,-0.000891,0.001108,0.001493,0.001072,0.256150,0.367063,9.710545,-0.187353,3.208727,0,0,,38.990818,-76.937960,-9.905000,,,
2026-09-11T16:25:25.267,8.054707,-0.000000,-0.000000,-0.000000,0.000000,-3.847454,1.323665,-0.000000,0.000029,0.000061,-0.001882,-0.000001,-0.000894,0.000071,0.000813,0.001544,0.253894,0.365592,9.710153,-0.187411,3.208843,0,0,,38.990818,-76.937960,-9.905000,,,
2026-09-11T16:25:25.301,8.088126,-0.000000,-0.000000,-0.000000,0.000000,-3.847454,1.323665,-0.000000,0.000438,0.000923,-0.001866,-0.000001,-0.000886,0.000323,0.001266,0.002406,0.257327,0.365102,9.710643,-0.187247,3.208926,0,0,,38.990818,-76.937960,-9.905000,,,
2026-09-11T16:25:25.334,8.121551,-0.000000,-0.000000,-0.000000,0.000000,-3.847454,1.323665,-0.000000,-0.000210,-0.000443,-0.001858,-0.000001,-0.000882,0.000999,0.001437,0.001040,0.254385,0.361865,9.713193,-0.187275,3.208799,0,0,,38.990818,-76.937960,-9.905000,,,
2026-09-11T16:25:25.367,8.154972,-0.000000,-0.000000,-0.000000,0.000000,-3.847454,1.323665,-0.000000,0.000049,0.000103,-0.001863,-0.000001,-0.000885,0.001602,-0.000090,0.001587,0.255365,0.364905,9.709760,-0.187239,3.208870,0,0,,38.990818,-76.937960,-9.905000,,,
2026-09-11T16:25:25.400,8.188399,-0.000000,-0.000000,-0.000000,0.000000,-3.847454,1.323665,-0.000000,-0.000662,-0.001394,-0.001885,-0.000001,-0.000895,-0.001364,0.002266,0.000090,0.254188,0.364611,9.714370,-0.187280,3.208921,0,0,,38.990818,-76.937960,-9.905000,,,
2026-09-11T16:25:25.434,8.221824,-0.000000,-0.000000,-0.000000,0.000000,-3.847454,1.323665,-0.000000,0.000560,0.001178,-0.001889,-0.000001,-0.000897,-0.000852,0.000718,0.002662,0.256444,0.367063,9.718390,-0.187174,3.209130,0,0,,38.990818,-76.937960,-9.905000,,,
2026-09-11T16:25:25.468,8.255244,-0.000000,-0.000000,-0.000000,0.000000,-3.847454,1.323665,-0.000000,0.000123,0.000259,-0.001865,-0.000001,-0.000886,-0.002524,0.000145,0.001742,0.257228,0.360002,9.713095,-0.187018,3.208880,0,0,,38.990818,-76.937960,-9.905000,,,
2026-09-11T16:25:25.501,8.288666,-0.000000,-0.000000,-0.000000,0.000000,-3.847454,1.323665,-0.000000,-0.000291,-0.000612,-0.001870,-0.000001,-0.000888,0.002444,0.003291,0.000871,0.254483,0.370888,9.718390,-0.187042,3.209338,0,0,,38.990818,-76.937960,-9.905000,,,
2026-09-11T16:25:25.534,8.322087,-0.000000,-0.000000,-0.000000,0.000000,-3.847454,1.323665,-0.000000,0.000020,0.000042,-0.001880,-0.000001,-0.000893,-0.001077,0.000200,0.001526,0.253894,0.361473,9.715056,-0.187104,3.209180,0,0,,38.990818,-76.937960,-9.905000,,,
2026-09-11T16:25:25.568,8.355640,-0.000000,-0.000000,-0.000000,0.000000,-3.847454,1.323665,-0.000000,0.000564,0.001186,-0.001859,-0.000001,-0.000883,-0.003073,0.000596,0.002670,0.255757,0.364121,9.718783,-0.187045,3.209197,0,0,,38.990818,-76.937960,-9.905000,,,
2026-09-11T16:25:25.601,8.389061,-0.000000,-0.000000,-0.000000,0.000000,-3.847454,1.323665,-0.000000,-0.000832,-0.001751,-0.001869,-0.000001,-0.000888,0.000956,0.003516,-0.000268,0.256150,0.366769,9.712801,-0.186961,3.209384,0,0,,38.990818,-76.937960,-9.905000,,,
2026-09-11T16:25:25.635,8.422480,-0.000000,-0.000000,-0.000000,0.000000,-3.847454,1.323665,-0.000000,0.000259,0.000546,-0.001889,-0.000001,-0.000897,-0.000916,0.001249,0.002029,0.256248,0.360885,9.704661,-0.186871,3.209188,0,0,,38.990818,-76.937960,-9.905000,,,
2026-09-11T16:25:25.668,8.455906,-0.000000,-0.000000,-0.000000,0.000000,-3.847454,1.323665,-0.000000,0.000194,0.000408,-0.001873,-0.000001,-0.000890,-0.001920,0.002051,0.001891,0.255856,0.360885,9.710153,-0.186808,3.208994,0,0,,38.990818,-76.937960,-9.905000,,,
2026-09-11T16:25:25.701,8.489329,-0.000000,-0.000000,-0.000000,0.000000,-3.847454,1.323665,-0.000000,-0.000650,-0.001368,-0.001889,-0.000001,-0.000897,0.001599,0.002829,0.000116,0.256444,0.365984,9.707505,-0.186707,3.209133,0,0,,38.990818,-76.937960,-9.905000,,,
2026-09-11T16:25:25.735,8.522750,-0.000000,-0.000000,-0.000000,0.000000,-3.847454,1.323665,-0.000000,-0.000049,-0.000104,-0.001914,-0.000001,-0.000909,-0.001334,0.001951,0.001380,0.252717,0.365592,9.714370,-0.186849,3.209245,0,0,,38.990818,-76.937960,-9.905000,,,
2026-09-11T16:25:25.768,8.556169,-0.000000,-0.000000,-0.000000,0.000000,-3.847454,1.323665,-0.000000,-0.000530,-0.001116,-0.001934,-0.000001,-0.000919,0.000020,0.002804,0.000367,0.252031,0.363434,9.711330,-0.187034,3.209216,0,0,,38.990818,-76.937960,-9.905000,,,
2026-09-11T16:25:25.802,8.589590,-0.000000,-0.000000,-0.000000,0.000000,-3.847454,1.323665,-0.000000,-0.000362,-0.000761,-0.001965,-0.000001,-0.000934,0.000347,0.001936,0.000722,0.255267,0.364611,9.700150,-0.187007,3.209263,0,0,,38.990818,-76.937960,-9.905000,,,
2026-09-11T16:25:25.835,8.623014,-0.000000,-0.000000,-0.000000,0.000000,-3.847454,1.323665,-0.000000,0.000114,0.000240,-0.001974,-0.000001,-0.000938,-0.000838,0.002322,0.001724,0.253208,0.369711,9.710545,-0.187114,3.209640,0,0,,38.990818,-76.937960,-9.905000,,,
2026-09-11T16:25:25.869,8.656434,-0.000000,-0.000000,-0.000000,0.000000,-3.847454,1.323665,-0.000000,-0.000391,-0.000823,-0.001984,-0.000001,-0.000942,0.000189,0.002971,0.000661,0.254973,0.364513,9.712408,-0.187105,3.209676,0,0,,38.990818,-76.937960,-9.905000,,,
2026-09-11T16:25:25.902,8.689853,-0.000000,-0.000000,-0.000000,0.000000,-3.847454,1.323665,-0.000000,-0.000017,-0.000036,-0.001998,-0.000001,-0.000949,0.001605,0.001113,0.001447,0.254483,0.366376,9.719175,-0.187128,3.209833,0,0,,38.990818,-76.937960,-9.905000,,,
2026-09-11T16:25:25.936,8.723271,-0.000000,-0.000000,-0.000000,0.000000,-3.847454,1.323665,-0.000000,-0.000658,-0.001384,-0.002022,-0.000001,-0.000960,0.000441,0.003076,0.000099,0.253894,0.360787,9.708289,-0.187189,3.209626,0,0,,38.990818,-76.937960,-9.905000,,,
2026-09-11T16:25:25.969,8.756692,-0.000000,-0.000000,-0.000000,0.000000,-3.847454,1.323665,-0.000000,-0.000448,-0.000943,-0.002061,-0.000001,-0.000979,0.002474,0.002255,0.000540,0.254090,0.363827,9.710447,-0.187237,3.209618,0,0,,38.990818,-76.937960,-9.905000,,,
2026-09-11T16:25:26.002,8.790109,-0.000000,-0.000000,-0.000000,0.000000,-3.847454,1.323665,-0.000000,-0.000066,-0.000138,-0.002079,-0.000001,-0.000987,-0.000511,0.001258,0.001345,0.254875,0.362356,9.713683,-0.187233,3.209515,0,0,,38.990818,-76.937960,-9.905000,,,
2026-09-11T16:25:26.036,8.823540,-0.000000,-0.000000,-0.000000,0.000000,-3.847454,1.323665,-0.000000,-0.000376,-0.000791,-0.002094,-0.000001,-0.000995,0.002542,0.002311,0.000693,0.256150,0.364807,9.717606,-0.187147,3.209571,0,0,,38.990818,-76.937960,-9.905000,,,
2026-09-11T16:25:26.069,8.856958,-0.000000,-0.000000,-0.000000,0.000000,-3.847454,1.323665,-0.000000,-0.000440,-0.000927,-0.002123,-0.000001,-0.001008,0.001284,0.002392,0.000557,0.253404,0.363336,9.716135,-0.187239,3.209532,0,1,8.836863,38.990818,-76.937960,-9.864000,0.443509,-0.103226,5.131563
2026-09-11T16:25:26.102,8.890424,-0.000000,-0.000000,-0.000000,0.000000,-3.847454,1.323665,-0.000000,0.000490,0.001032,-0.002121,-0.000001,-0.001008,-0.001542,-0.000550,0.002515,0.256248,0.363140,9.703680,-0.187146,3.209481,0,0,,38.990818,-76.937960,-9.864000,,,
2026-09-11T16:25:26.136,8.923841,-0.000000,-0.000000,-0.000000,0.000000,-3.847454,1.323665,-0.000000,-0.000308,-0.000649,-0.002115,-0.000001,-0.001005,0.001752,0.002332,0.000835,0.255071,0.367455,9.717312,-0.187131,3.209709,0,0,,38.990818,-76.937960,-9.864000,,,
2026-09-11T16:25:26.170,8.957259,-0.000000,-0.000000,-0.000000,0.000000,-3.847454,1.323665,-0.000000,-0.000113,-0.000238,-0.002130,-0.000001,-0.001012,0.001812,0.000190,0.001245,0.255856,0.360394,9.708682,-0.187065,3.209478,0,0,,38.990818,-76.937960,-9.864000,,,
2026-09-11T16:25:26.203,8.990684,-0.000000,-0.000000,-0.000000,0.000000,-3.847454,1.323665,-0.000000,-0.000197,-0.000415,-0.002141,-0.000001,-0.001017,-0.001153,0.001095,0.001069,0.262230,0.362062,9.717115,-0.186587,3.209357,0,0,,38.990818,-76.937960,-9.864000,,,
2026-09-11T16:25:26.236,9.024103,-0.000000,-0.000000,-0.000000,0.000000,-3.847454,1.323665,-0.000000,-0.000363,-0.000764,-0.002160,-0.000001,-0.001026,0.005230,0.001292,0.000720,0.274292,0.333818,9.780074,-0.185334,3.207410,0,0,,38.990818,-76.937960,-9.864000,,,
2026-09-11T16:25:26.270,9.057525,-0.000000,-0.000000,-0.000000,0.000000,-3.847454,1.323665,-0.000000,-0.000675,-0.001420,-0.002197,-0.000001,-0.001044,0.005339,0.002058,0.000063,0.302633,0.317245,9.727707,-0.182260,3.204410,0,0,,38.990818,-76.937960,-9.864000,,,
2026-09-11T16:25:26.303,9.090949,-0.000000,-0.000000,-0.000000,0.000000,-3.847454,1.323665,-0.000000,-0.003162,-0.006656,-0.002332,-0.000001,-0.001108,0.002395,0.001463,-0.005172,0.311557,0.400504,9.748595,-0.178642,3.206835,0,0,,38.990818,-76.937960,-9.864000,,,
2026-09-11T16:25:26.337,9.124369,-0.000000,-0.000000,-0.000000,0.000000,-3.847454,1.323665,-0.000000,-0.003669,-0.007724,-0.002572,-0.000002,-0.001222,-0.001270,0.000816,-0.006240,0.290277,0.303222,9.665140,-0.176442,3.202934,0,0,,38.990818,-76.937960,-9.864000,,,
2026-09-11T16:25:26.370,9.157787,-0.000000,-0.000000,-0.000000,0.000000,-3.847454,1.323665,-0.000000,-0.003139,-0.006609,-0.002812,-0.000002,-0.001336,0.009984,0.000066,-0.005126,0.254188,0.463756,9.696718,-0.176602,3.209470,0,0,,38.990818,-76.937960,-9.864000,,,
2026-09-11T16:25:26.404,9.191203,-0.000000,-0.000000,-0.000000,0.000000,-3.379849,1.162792,-0.000000,-0.003869,-0.008144,-0.003058,-0.000002,-0.001453,0.014485,0.001829,-0.006661,0.305477,0.286256,9.681910,-0.173441,3.204441,0,0,,38.990818,-76.937960,-9.864000,,,
2026-09-11T16:25:26.437,9.224616,-0.000000,-0.000000,-0.000000,0.000000,-1.571911,0.540795,-0.000000,-0.004888,-0.010291,-0.003366,-0.000003,-0.001599,0.010187,-0.000699,-0.008807,0.280470,0.290081,9.692893,-0.171934,3.199717,0,0,,38.990818,-76.937960,-9.864000,,,
2026-09-11T16:25:26.471,9.258025,-0.000000,-0.000000,-0.000000,0.000000,0.920612,-0.316724,-0.000000,-0.007733,-0.016280,-0.003810,-0.000003,-0.001810,0.011580,0.001511,-0.014797,0.239576,0.294886,9.664061,-0.173090,3.195356,0,0,,38.990818,-76.937960,-9.864000,,,
2026-09-11T16:25:26.504,9.291446,-0.000000,-0.000000,-0.000000,0.000000,2.454578,-0.844465,-0.000000,-0.003942,-0.008298,-0.004221,-0.000004,-0.002005,0.013995,0.003632,-0.006815,0.448752,0.522008,9.667592,-0.160694,3.205748,0,0,,38.990818,-76.937960,-9.864000,,,
2026-09-11T16:25:26.537,9.324863,-0.000000,-0.000000,-0.000000,0.000000,3.891727,-1.338897,-0.000000,-0.002657,-0.005594,-0.004453,-0.000005,-0.002115,-0.006662,-0.000025,-0.004111,0.374026,0.427668,9.709172,-0.153894,3.209917,0,0,,38.990818,-76.937960,-9.864000,,,
2026-09-11T16:25:26.570,9.358280,-0.000000,-0.000000,-0.000000,0.000000,6.772892,-2.330123,-0.000000,-0.008421,-0.017729,-0.004843,-0.000006,-0.002300,-0.023572,0.000345,-0.016245,0.060703,0.054819,9.780663,-0.168070,3.189900,0,0,,38.990818,-76.937960,-9.864000,,,
2026-09-11T16:25:26.604,9.391702,-0.000000,-0.000000,-0.000000,0.000000,12.476856,-4.292496,-0.000000,-0.011239,-0.023661,-0.005534,-0.000007,-0.002629,-0.038924,0.004287,-0.022178,0.274096,0.470229,9.659845,-0.168277,3.197001,0,0,,38.990818,-76.937960,-9.864000,,,
2026-09-11T16:25:26.637,9.425119,-0.000000,-0.000000,-0.000000,0.000000,15.574314,-5.358136,-0.000000,-0.009062,-0.019078,-0.006248,-0.000009,-0.002968,-0.026955,0.002838,-0.017594,0.385794,0.507592,9.658079,-0.161253,3.206440,0,0,,38.990818,-76.937960,-9.864000,,,
2026-09-11T16:25:26.671,9.458541,-0.000000,-0.000000,-0.000000,0.000000,17.229817,-5.927689,-0.000000,-0.006567,-0.013825,-0.006798,-0.000011,-0.003229,0.016920,0.001526,-0.012342,0.321266,0.307537,9.657883,-0.158482,3.202822,0,0,,38.990818,-76.937960,-9.864000,,,
2026-09-11T16:25:26.704,9.491964,-0.000000,-0.000000,-0.000000,0.000000,18.869526,-6.491810,-0.000000,-0.006125,-0.012894,-0.007245,-0.000012,-0.003441,0.032535,-0.000658,-0.011410,0.204959,0.373045,9.684361,-0.163270,3.203487,0,0,,38.990818,-76.937960,-9.864000,,,
2026-09-11T16:25:26.737,9.525385,-0.000000,-0.000000,-0.000000,0.000000,20.204365,-6.951043,-0.000000,-0.004796,-0.010097,-0.007629,-0.000014,-0.003624,0.031775,0.002628,-0.008613,0.279588,0.499453,9.734964,-0.163175,3.212328,0,0,,38.990818,-76.937960,-9.864000,,,
2026-09-11T16:25:26.771,9.558803,-0.000000,-0.000000,-0.000000,0.000000,21.169102,-7.282948,-0.000000,-0.004654,-0.009798,-0.007961,-0.000015,-0.003782,0.015558,0.003044,-0.008315,0.277136,0.430610,9.701327,-0.163239,3.216614,0,0,,38.990818,-76.937960,-9.864000,,,
2026-09-11T16:25:26.804,9.592228,0.009719,0.000376,0.089988,0.000000,22.227223,-7.646980,0.009632,-0.002506,-0.005276,-0.008213,0.000145,-0.003903,-0.012285,0.000484,-0.003792,0.226239,0.433258,9.721430,-0.166597,3.221028,0,0,,38.990818,-76.937960,-9.864000,,,
2026-09-11T16:25:26.838,9.625681,0.009719,0.000706,0.089988,0.000000,23.064245,-7.934947,0.009626,-0.002353,-0.004954,-0.008384,0.000466,-0.003986,-0.022532,0.003682,-0.003471,0.225357,0.487096,9.749379,-0.169978,3.228886,0,0,,38.990818,-76.937960,-9.864000,,,
2026-09-11T16:25:26.871,9.659100,0.009719,0.001025,0.089988,0.000000,23.377355,-8.042668,0.009623,-0.001631,-0.003434,-0.008524,0.000787,-0.004056,-0.032027,0.004249,-0.001950,0.285472,0.451890,9.707995,-0.169427,3.234369,0,0,,38.990818,-76.937960,-9.864000,,,
2026-09-11T16:25:26.905,9.692528,0.009719,0.001356,0.089988,0.000000,23.377355,-8.042668,0.009623,0.000810,0.001706,-0.008553,0.001109,-0.004072,-0.028200,0.001272,0.003189,0.193093,0.293317,9.739180,-0.174864,3.229519,0,0,,38.990818,-76.937960,-9.864000,,,
2026-09-11T16:25:26.938,9.725946,0.009719,0.001675,0.089988,0.000000,23.421300,-8.057787,0.009623,0.000550,0.001158,-0.008505,0.001431,-0.004052,-0.011883,0.002801,0.002642,0.242813,0.372260,9.687990,-0.177020,3.229836,0,0,,38.990818,-76.937960,-9.864000,,,
2026-09-11T16:25:26.972,9.759364,0.009719,0.002005,0.089988,0.000000,23.421300,-8.057787,0.009623,-0.000287,-0.000604,-0.008496,0.001752,-0.004051,0.003212,0.001857,0.000880,0.224670,0.346763,9.705544,-0.180327,3.228500,0,0,,38.990818,-76.937960,-9.864000,,,
2026-09-11T16:25:27.005,9.792791,0.009719,0.002324,0.089988,0.000000,23.421300,-8.057787,0.009623,0.001894,0.003987,-0.008440,0.002074,-0.004026,0.009952,0.001509,0.005471,0.174068,0.341369,9.678379,-0.186874,3.226826,0,0,,38.990818,-76.937960,-9.864000,,,
2026-09-11T16:25:27.038,9.826207,0.009719,0.002655,0.089988,0.000000,23.421300,-8.057787,0.009623,0.001207,0.002541,-0.008331,0.002396,-0.003977,0.015749,0.001868,0.004024,0.172989,0.287629,9.696620,-0.192795,3.221693,0,0,,38.990818,-76.937960,-9.864000,,,
2026-09-11T16:25:27.072,9.859626,0.009719,0.002974,0.089988,0.000000,23.354696,-8.034872,0.009623,-0.000552,-0.001163,-0.008308,0.002718,-0.003969,0.013433,0.000194,0.000321,0.144844,0.370593,9.743593,-0.199850,3.221990,0,1,9.846216,38.990818,-76.937959,-9.852000,0.496373,-0.108971,5.076578
2026-09-11T16:25:27.106,9.893048,0.009719,0.003304,0.089988,0.000000,23.354696,-8.034872,0.009623,-0.001213,-0.002553,-0.008370,0.003039,-0.004001,0.011419,0.002288,-0.001070,0.126898,0.365298,9.739965,-0.207991,3.221942,0,0,,38.990818,-76.937959,-9.852000,,,
2026-09-11T16:25:27.139,9.926473,0.009719,0.003623,0.089988,0.000000,23.222860,-7.989516,0.009624,0.001892,0.003982,-0.008346,0.003361,-0.003993,0.015060,0.001233,0.005466,0.095321,0.475034,9.697306,-0.218086,3.228996,0,0,,38.990818,-76.937959,-9.852000,,,
2026-09-11T16:25:27.172,9.959891,0.009719,0.003953,0.089988,0.000000,23.222860,-7.989516,0.009624,-0.000107,-0.000226,-0.008283,0.003683,-0.003965,0.005931,0.001444,0.001258,0.166321,0.182502,9.706132,-0.205451,3.217034,0,0,,38.990818,-76.937959,-9.852000,,,
2026-09-11T16:25:27.206,9.993309,0.009719,0.004284,0.089988,0.000000,23.173421,-7.972507,0.009625,-0.001837,-0.003867,-0.008351,0.004004,-0.004001,0.002044,0.003740,-0.002383,0.323031,0.436984,9.726824,-0.178943,3.221683,0,0,,38.990818,-76.937959,-9.852000,,,
2026-09-11T16:25:27.239,10.026729,0.009719,0.004603,0.089988,0.000000,23.178914,-7.974397,0.009625,-0.000471,-0.000992,-0.008433,0.004326,-0.004042,-0.002296,0.000220,0.000492,0.334603,0.311263,9.725647,-0.168590,3.218138,0,0,,38.990818,-76.937959,-9.852000,,,
2026-09-11T16:25:27.273,10.060150,0.009719,0.004933,0.089988,0.000000,23.178914,-7.974397,0.009625,-0.002408,-0.005068,-0.008534,0.004647,-0.004093,-0.004920,0.001213,-0.003585,0.315970,0.343919,9.698581,-0.162807,3.216750,0,0,,38.990818,-76.937959,-9.852000,,,
2026-09-11T16:25:27.306,10.093570,0.009719,0.005252,0.089988,0.000000,23.130163,-7.957625,0.009625,0.013253,0.027901,-0.008152,0.004970,-0.003914,0.045659,0.015914,0.029384,-1.461877,0.923002,9.656706,-0.272945,3.252851,0,0,,38.990818,-76.937959,-9.852000,,,
2026-09-11T16:25:27.339,10.126989,0.009719,0.005583,0.089988,0.000000,23.145955,-7.963058,0.009625,-0.007876,-0.016580,-0.007963,0.005292,-0.003827,0.008061,-0.018380,-0.015097,0.561235,-0.611543,10.288941,-0.268905,3.189224,0,0,,38.990818,-76.937959,-9.852000,,,
2026-09-11T16:25:27.372,10.160405,0.009719,0.005902,0.089988,0.000000,23.116430,-7.952900,0.009625,-0.009404,-0.019798,-0.008571,0.005612,-0.004118,0.013633,-0.003198,-0.018314,0.372947,0.641453,8.465198,-0.280637,3.207428,0,0,,38.990818,-76.937959,-9.852000,,,
2026-09-11T16:25:27.406,10.193824,0.009719,0.006232,0.089988,0.000000,22.937215,-7.891244,0.009627,-0.005698,-0.011996,-0.009102,0.005931,-0.004373,-0.009613,-0.003352,-0.010512,0.501414,0.928101,9.113908,-0.266344,3.243985,0,0,,38.990818,-76.937959,-9.852000,,,
2026-09-11T16:25:27.440,10.227241,-0.272125,-0.006904,-2.519678,0.000000,23.069738,-7.936836,-0.269518,0.010097,0.021257,-0.008947,0.001589,-0.004261,-0.038214,0.001984,0.022741,0.511711,-0.095026,10.112225,-0.248002,3.214260,0,0,,38.990818,-76.937959,-9.852000,,,
2026-09-11T16:25:27.473,10.260660,-0.050822,-0.007303,-0.470575,0.000000,23.069738,-7.936836,-0.050335,0.003253,0.006849,-0.008478,-0.003753,-0.003991,-0.039166,0.002739,0.008332,0.598402,0.120426,10.042108,-0.223849,3.198464,0,0,,38.990818,-76.937959,-9.852000,,,
2026-09-11T16:25:27.507,10.294077,-0.012335,-0.007417,-0.114210,0.000000,23.069738,-7.936836,-0.012216,0.000225,0.000473,-0.008356,-0.004798,-0.003924,-0.045098,0.002655,0.001957,0.624782,0.068058,9.817536,-0.198257,3.179431,0,0,,38.990818,-76.937959,-9.852000,,,
2026-09-11T16:25:27.540,10.327495,-0.000000,-0.007292,-0.000000,0.000000,23.003133,-7.913922,-0.000000,-0.001954,-0.004115,-0.008416,-0.005002,-0.003951,-0.035469,0.001551,-0.002631,0.472582,0.513868,9.487248,-0.182799,3.189472,0,0,,38.990818,-76.937959,-9.852000,,,
2026-09-11T16:25:27.573,10.360921,-0.000000,-0.007292,-0.000000,0.000000,23.003133,-7.913922,-0.000000,-0.001588,-0.003344,-0.008541,-0.005002,-0.004010,-0.000626,0.001049,-0.001860,0.321462,0.235262,9.648077,-0.177919,3.181362,0,0,,38.990818,-76.937959,-9.852000,,,
2026-09-11T16:25:27.607,10.394337,0.281239,0.008021,2.604065,0.000000,23.003133,-7.913922,0.278561,-0.003043,-0.006406,-0.008704,-0.000349,-0.004128,0.024038,0.000873,-0.004922,0.238105,0.344115,9.675829,-0.179117,3.180506,0,0,,38.990818,-76.937959,-9.852000,,,
2026-09-11T16:25:27.640,10.427756,0.055389,0.007964,0.512857,0.000000,23.003133,-7.913922,0.054861,-0.003128,-0.006585,-0.008921,0.005221,-0.004280,0.030095,0.001793,-0.005101,0.352157,0.357943,9.778211,-0.172920,3.180463,0,0,,38.990818,-76.937959,-9.852000,,,
2026-09-11T16:25:27.673,10.461176,0.006291,0.007884,0.058246,0.000000,23.003133,-7.913922,0.006231,-0.003086,-0.006496,-0.009140,0.006241,-0.004393,0.020944,0.000066,-0.005013,0.177697,0.451989,9.733002,-0.196099,3.186489,0,0,,38.990818,-76.937959,-9.852000,,,
2026-09-11T16:25:27.707,10.494601,-0.000000,0.007873,-0.000000,0.000000,23.003133,-7.913922,-0.000000,-0.001957,-0.004119,-0.009317,0.006344,-0.004478,0.002149,-0.001024,-0.002636,0.299201,0.265172,9.598847,-0.215033,3.180349,0,0,,38.990818,-76.937959,-9.852000,,,
2026-09-11T16:25:27.740,10.528034,-0.000000,0.007873,-0.000000,0.000000,22.915242,-7.883684,-0.000000,-0.004445,-0.009359,-0.009542,0.006343,-0.004585,-0.019904,-0.002526,-0.007875,1.107269,0.233104,11.178699,-0.182728,3.172198,0,0,,38.990818,-76.937959,-9.852000,,,
2026-09-11T16:25:27.773,10.561456,-0.000000,0.007873,-0.000000,0.000000,22.981847,-7.906599,-0.000000,-0.004480,-0.009431,-0.009856,0.006342,-0.004734,-0.024129,-0.001774,-0.007947,-0.095223,0.489058,10.222354,-0.232070,3.180714,0,0,,38.990818,-76.937959,-9.852000,,,
2026-09-11T16:25:27.807,10.594881,-0.000000,0.007873,-0.000000,0.000000,22.981847,-7.906599,-0.000000,0.006497,0.013677,-0.009785,0.006342,-0.004700,-0.039345,0.001471,0.015161,-0.019613,0.468071,9.409775,-0.257760,3.187777,0,0,,38.990818,-76.937959,-9.852000,,,
2026-09-11T16:25:27.840,10.628298,0.009820,0.008351,0.090922,0.000000,22.981847,-7.906599,0.009726,-0.002319,-0.004882,-0.009638,0.006505,-0.004632,-0.039280,0.002369,-0.003398,0.254286,0.378635,9.579528,-0.241239,3.188972,0,0,,38.990818,-76.937959,-9.852000,,,
2026-09-11T16:25:27.874,10.661726,0.009820,0.008681,0.090922,0.000000,22.981847,-7.906599,0.009726,0.000708,0.001491,-0.009695,0.006830,-0.004662,-0.047124,0.000192,0.002975,0.617132,0.184757,9.582568,-0.197862,3.177595,0,0,,38.990818,-76.937959,-9.852000,,,
2026-09-11T16:25:27.907,10.695146,0.009820,0.009012,0.090922,0.000000,23.031972,-7.923844,0.009726,-0.001587,-0.003341,-0.009726,0.007155,-0.004680,-0.036897,0.000853,-0.001858,0.473073,0.311950,9.702013,-0.201952,3.174586,0,0,,38.990818,-76.937959,-9.852000,,,
2026-09-11T16:25:27.941,10.728563,0.009820,0.009331,0.090922,0.000000,22.671483,-7.799822,0.009729,-0.001654,-0.003481,-0.009840,0.007479,-0.004737,-0.016809,0.002416,-0.001998,0.426197,0.140039,9.804787,-0.218484,3.160480,0,0,,38.990818,-76.937959,-9.852000,,,
2026-09-11T16:25:27.974,10.761983,0.009820,0.009661,0.090922,0.000000,22.168172,-7.626665,0.009733,-0.002487,-0.005236,-0.009986,0.007804,-0.004810,0.002556,0.001371,-0.003752,0.269781,0.087573,9.713879,-0.230582,3.143134,0,0,,38.990818,-76.937959,-9.852000,,,
2026-09-11T16:25:28.008,10.795399,0.289481,0.019015,2.680378,0.000000,22.124227,-7.611546,0.286930,-0.005947,-0.012520,-0.010282,0.012759,-0.005002,0.021614,0.002044,-0.011037,0.454636,0.376085,9.780368,-0.239918,3.144888,0,0,,38.990818,-76.937959,-9.852000,,,
2026-09-11T16:25:28.041,10.828816,0.114439,0.023333,1.059620,0.000000,22.124227,-7.611546,0.113431,-0.007735,-0.016284,-0.010763,0.019446,-0.005300,0.031312,0.002682,-0.014801,0.560352,0.179462,9.800766,-0.252868,3.133782,0,0,,38.990818,-76.937959,-9.852000,,,
2026-09-11T16:25:28.075,10.862277,0.017193,0.023310,0.159199,0.000000,22.124227,-7.611546,0.017042,-0.008341,-0.017560,-0.011330,0.021625,-0.005592,0.031231,0.004407,-0.016076,0.680582,0.387657,9.746535,-0.255426,3.136179,0,1,10.841438,38.990818,-76.937958,-9.820000,0.561048,-0.104894,3.160321
2026-09-11T16:25:28.108,10.895695,0.017193,0.023754,0.159199,0.000000,22.124227,-7.611546,0.017042,-0.008942,-0.018825,-0.011938,0.022191,-0.005888,0.022075,0.004417,-0.017341,0.774333,0.130232,9.640820,-0.254442,3.121882,0,0,,38.990818,-76.937958,-9.820000,,,
2026-09-11T16:25:28.141,10.929113,0.017193,0.024324,0.159199,0.000000,22.124227,-7.611546,0.017042,-0.010473,-0.022048,-0.012621,0.022757,-0.006219,0.013382,0.002270,-0.020565,0.800321,0.416390,9.718586,-0.256206,3.126274,0,0,,38.990818,-76.937958,-9.820000,,,
2026-09-11T16:25:28.174,10.962538,0.330914,0.034954,3.064020,0.000000,22.124227,-7.611546,0.327998,-0.009630,-0.020273,-0.013328,0.028519,-0.006632,0.001659,0.005284,-0.018790,0.896426,0.532991,9.702896,-0.251768,3.138574,0,0,,38.990818,-76.937958,-9.820000,,,
2026-09-11T16:25:28.208,10.995953,0.109611,0.039158,1.014917,0.000000,22.080282,-7.596427,0.108649,-0.010136,-0.021339,-0.014023,0.035809,-0.007061,0.002428,0.002994,-0.019856,1.113937,0.174951,9.554619,-0.237707,3.127276,0,0,,38.990818,-76.937958,-9.820000,,,
2026-09-11T16:25:28.241,11.029372,0.099989,0.042120,0.925825,0.000000,22.036336,-7.581308,0.099115,-0.014292,-0.030088,-0.014882,0.039274,-0.007519,-0.004603,0.001834,-0.028604,0.914274,-0.002942,9.755459,-0.225121,3.104628,0,0,,38.990818,-76.937958,-9.820000,,,
2026-09-11T16:25:28.275,11.062797,0.255489,0.051451,2.365642,0.000000,21.948446,-7.551071,0.253274,-0.013884,-0.029229,-0.015874,0.045155,-0.008081,0.007887,0.002085,-0.027745,0.789631,0.216335,9.723686,-0.216575,3.096713,0,0,,38.990818,-76.937958,-9.820000,,,
2026-09-11T16:25:28.308,11.096213,0.265309,0.060349,2.456564,0.000000,21.948446,-7.551071,0.263008,-0.015689,-0.033029,-0.016914,0.053772,-0.008717,0.019430,0.002905,-0.031545,1.185330,0.621742,9.540302,-0.200589,3.115214,0,0,,38.990818,-76.937958,-9.820000,,,
2026-09-11T16:25:28.341,11.129630,0.226735,0.067526,2.099398,0.000000,21.948446,-7.551071,0.224769,-0.019235,-0.040495,-0.018142,0.061911,-0.009443,0.015412,0.001321,-0.039012,1.225145,0.032362,9.772033,-0.190914,3.095383,0,0,,38.990818,-76.937958,-9.820000,,,
2026-09-11T16:25:28.375,11.163055,0.314731,0.076401,2.914178,0.000000,22.015050,-7.573985,0.311985,-0.021199,-0.044630,-0.019565,0.070867,-0.010289,0.020455,0.003953,-0.043146,0.984588,0.235163,10.007294,-0.200637,3.089211,0,0,,38.990818,-76.937958,-9.820000,,,
2026-09-11T16:25:28.408,11.196472,0.295851,0.087965,2.739363,0.000000,22.015050,-7.573985,0.293270,-0.020496,-0.043150,-0.021032,0.080963,-0.011190,0.019519,-0.001154,-0.041667,0.804930,0.331367,9.387220,-0.205560,3.089255,1,0,,38.990818,-76.937958,-9.820000,,,
2026-09-11T16:25:28.442,11.229887,0.315289,0.098572,2.919340,0.000000,21.948446,-7.551071,0.312555,-0.023069,-0.048567,-0.022564,0.091067,-0.012139,0.008321,-0.000980,-0.047084,1.047056,-0.053839,9.579430,-0.190714,3.064526,1,0,,38.990818,-76.937958,-9.820000,,,
2026-09-11T16:25:28.475,11.263313,0.364563,0.111720,3.375581,0.000000,21.850942,-7.517526,0.361429,-0.024305,-0.051169,-0.024231,0.102310,-0.013195,0.027022,-0.002936,-0.049685,0.469444,-0.221532,9.528730,-0.230675,3.029420,1,0,,38.990818,-76.937958,-9.820000,,,
2026-09-11T16:25:28.508,11.296731,0.413661,0.124104,3.830194,0.000000,21.927160,-7.543748,0.410081,-0.028878,-0.060795,-0.026102,0.115174,-0.014408,0.013550,-0.000174,-0.059311,0.640178,0.258111,9.241395,-0.251682,3.026178,1,0,,38.990818,-76.937958,-9.820000,,,
2026-09-11T16:25:28.542,11.330148,0.404039,0.138151,3.741103,0.000000,21.763051,-7.487288,0.400594,-0.027680,-0.058273,-0.028091,0.128689,-0.015719,0.030359,0.012482,-0.056789,0.836017,-0.100126,9.899813,-0.250497,2.999680,1,0,,38.990818,-76.937958,-9.820000,,,
2026-09-11T16:25:28.576,11.363574,0.423779,0.152085,3.923881,0.000000,21.883214,-7.528629,0.420126,-0.028575,-0.060158,-0.030071,0.142373,-0.017058,0.021334,0.004387,-0.058675,0.952324,0.683818,9.800080,-0.246258,3.024355,1,0,,38.990818,-76.937958,-9.820000,,,
2026-09-11T16:25:28.609,11.396994,0.443066,0.167158,4.102464,0.000000,21.904500,-7.535952,0.439239,-0.030858,-0.064965,-0.032161,0.156694,-0.018498,0.004054,0.000461,-0.063481,1.149437,0.947224,9.824694,-0.230644,3.066016,1,0,,38.990818,-76.937958,-9.820000,,,
2026-09-11T16:25:28.643,11.430415,0.481917,0.183359,4.462198,0.000000,21.927160,-7.543748,0.477746,-0.033746,-0.071044,-0.034434,0.171973,-0.020088,-0.017002,0.001327,-0.069561,0.625566,0.918001,9.793705,-0.249162,3.105675,1,0,,38.990818,-76.937958,-9.820000,,,
2026-09-11T16:25:28.676,11.463840,0.501657,0.199947,4.644976,0.000000,21.860555,-7.520833,0.497342,-0.033554,-0.070639,-0.036802,0.188219,-0.021793,-0.034821,-0.015329,-0.069156,0.991648,0.517693,9.284838,-0.245726,3.119057,1,0,,38.990818,-76.937958,-9.820000,,,
2026-09-11T16:25:28.709,11.497259,0.511220,0.217241,4.733517,0.000000,21.860555,-7.520833,0.506822,-0.033722,-0.070994,-0.039169,0.204943,-0.023553,-0.037862,-0.005863,-0.069510,0.617427,0.924669,10.558820,-0.264734,3.158692,1,0,,38.990818,-76.937958,-9.820000,,,
2026-09-11T16:25:28.742,11.530674,0.540364,0.235402,5.003372,0.000000,21.986898,-7.564300,0.535662,-0.031821,-0.066991,-0.041474,0.222302,-0.025350,-0.040675,-0.004378,-0.065507,0.550251,0.093163,9.243258,-0.289165,3.144049,1,0,,38.990818,-76.937958,-9.820000,,,
2026-09-11T16:25:28.776,11.564103,0.540540,0.253642,5.005003,0.000000,21.772664,-7.490596,0.535927,-0.029750,-0.062632,-0.043641,0.240153,-0.027141,-0.019217,0.021681,-0.061149,0.335780,-0.204861,9.058501,-0.332869,3.110113,1,0,,38.990818,-76.937958,-9.820000,,,
2026-09-11T16:25:28.809,11.597519,0.560171,0.272816,5.186772,0.000000,20.806554,-7.158218,0.555805,-0.029521,-0.062149,-0.045726,0.258331,-0.028945,0.003426,0.002955,-0.060666,0.758152,0.359218,10.656789,-0.353725,3.113145,1,0,,38.990818,-76.937958,-9.820000,,,
2026-09-11T16:25:28.844,11.630937,0.579710,0.292173,5.367682,0.000000,17.399419,-5.986039,0.576549,-0.029568,-0.062248,-0.047804,0.277185,-0.030816,0.005800,-0.017973,-0.060764,0.830917,0.982822,10.094573,-0.373394,3.156604,1,0,,38.990818,-76.937958,-9.820000,,,
2026-09-11T16:25:28.877,11.664365,0.628651,0.312714,5.820845,0.000000,16.933187,-5.825638,0.625405,-0.025664,-0.054029,-0.049748,0.297205,-0.032718,0.021732,-0.033744,-0.052545,1.470409,-0.173284,10.989921,-0.354654,3.124589,1,0,,38.990818,-76.937958,-9.820000,,,
2026-09-11T16:25:28.910,11.697787,0.648290,0.333769,6.002689,0.000000,14.219564,-4.892052,0.645929,-0.023766,-0.050033,-0.051486,0.318382,-0.034618,0.026269,-0.009021,-0.048549,0.753837,0.327542,8.186003,-0.385136,3.125267,1,0,,38.990818,-76.937958,-9.820000,,,
2026-09-11T16:25:28.943,11.731207,0.658015,0.356065,6.092732,0.000000,12.722677,-4.377068,0.656096,-0.012170,-0.025620,-0.052751,0.340078,-0.036352,0.042328,-0.004427,-0.024137,1.400978,0.698037,8.625831,-0.378596,3.148920,1,0,,38.990818,-76.937958,-9.820000,,,
2026-09-11T16:25:28.977,11.764620,0.687426,0.379523,6.365059,0.000000,11.176350,-3.845074,0.685879,-0.013035,-0.027442,-0.053637,0.362444,-0.037964,0.042028,0.011697,-0.025959,1.262410,1.346355,10.798201,-0.384936,3.214405,1,0,,38.990818,-76.937958,-9.820000,,,
2026-09-11T16:25:29.010,11.798042,0.775308,0.405806,7.178777,0.000000,10.741016,-3.695304,0.773696,-0.029268,-0.061617,-0.055125,0.386760,-0.039997,-0.020634,-0.024621,-0.060133,2.386546,0.588791,9.915308,-0.322142,3.231998,1,0,,38.990818,-76.937958,-9.820000,,,
2026-09-11T16:25:29.044,11.831461,0.814288,0.432967,7.539702,0.000000,10.949757,-3.767118,0.812528,-0.024621,-0.051835,-0.057021,0.413173,-0.042382,-0.093471,0.006674,-0.050351,1.858654,0.056584,8.510113,-0.299117,3.214576,1,1,11.839051,38.990817,-76.937954,-9.773000,0.977189,-0.171240,3.381379
2026-09-11T16:25:29.077,11.864888,0.862783,0.461905,7.988728,0.000000,11.072666,-3.809403,0.860876,-0.025956,-0.054644,-0.058801,0.441045,-0.044846,-0.108282,0.026190,-0.053161,1.870520,2.155894,10.026515,-0.275049,3.333619,1,0,,38.990817,-76.937954,-9.773000,,,
2026-09-11T16:25:29.111,11.898652,0.911534,0.492541,8.440132,0.000000,11.204502,-3.854760,0.909472,-0.018645,-0.039253,-0.060386,0.470834,-0.047378,-0.083124,-0.078119,-0.037769,0.613210,1.146299,10.094475,-0.329426,3.385745,1,0,,38.990817,-76.937954,-9.773000,,,
2026-09-11T16:25:29.144,11.932056,0.970122,0.524806,8.982607,0.000000,10.777408,-3.707824,0.968091,-0.017336,-0.036496,-0.061651,0.502098,-0.049891,-0.103295,-0.053654,-0.035013,3.428307,-2.491772,10.381418,-0.196066,3.201259,1,0,,38.990817,-76.937954,-9.773000,,,
2026-09-11T16:25:29.178,11.965460,1.008994,0.558814,9.342541,0.000000,6.336872,-2.180117,1.008264,-0.011568,-0.024354,-0.062667,0.535014,-0.052423,-0.079150,0.053477,-0.022870,1.038720,1.955054,5.934298,-0.213175,3.305915,1,0,,38.990817,-76.937954,-9.773000,,,
2026-09-11T16:25:29.211,11.998882,1.077589,0.594782,9.977675,0.000000,1.226856,-0.422084,1.077560,-0.000903,-0.001902,-0.063106,0.569788,-0.054822,-0.022646,-0.157714,-0.000418,1.575242,0.591831,14.989171,-0.188870,3.319738,1,0,,38.990817,-76.937954,-9.773000,,,
2026-09-11T16:25:29.245,12.032295,1.107069,0.631718,10.250642,0.000000,-6.874874,2.365209,1.106126,0.038925,0.081947,-0.061769,0.606238,-0.056464,0.062554,-0.041960,0.083430,1.945247,1.425004,13.517879,-0.128427,3.381342,1,0,,38.990817,-76.937954,-9.773000,,,
2026-09-11T16:25:29.278,12.065705,1.166062,0.670659,10.796869,0.000000,-10.015591,3.445731,1.163954,0.041524,0.087418,-0.058940,0.644172,-0.057409,0.091917,0.033679,0.088902,1.629375,4.238630,7.007734,-0.075261,3.623702,1,0,,38.990817,-76.937954,-9.773000,,,
2026-09-11T16:25:29.311,12.099112,1.205386,0.710580,11.160981,0.000000,-11.779583,4.052609,1.202372,0.052430,0.110379,-0.055636,0.683722,-0.058104,0.056176,-0.040955,0.111863,1.062649,1.227498,12.887998,-0.050090,3.666431,1,0,,38.990817,-76.937954,-9.773000,,,
2026-09-11T16:25:29.345,12.132534,1.205554,0.750911,11.162538,0.000000,-11.452740,3.940163,1.202705,0.044162,0.092972,-0.052238,0.723942,-0.058659,-0.004677,-0.023043,0.094456,0.329013,-0.252031,10.800652,-0.063078,3.614229,1,0,,38.990817,-76.937954,-9.773000,,,
2026-09-11T16:25:29.378,12.165944,1.215825,0.791903,11.257638,0.000000,-9.763592,3.359034,1.213736,0.027647,0.058205,-0.049712,0.764318,-0.059518,0.033443,-0.041227,0.059689,0.206822,1.029992,10.033086,-0.074991,3.648298,1,0,,38.990817,-76.937954,-9.773000,,,
2026-09-11T16:25:29.411,12.199351,1.197015,0.832006,11.083469,0.000000,-5.502956,1.893219,1.196361,0.001963,0.004133,-0.048671,0.804551,-0.061003,0.064712,-0.010683,0.005617,-0.321560,-1.230146,9.495485,-0.115172,3.539919,1,0,,38.990817,-76.937954,-9.773000,,,
2026-09-11T16:25:29.445,12.232763,1.158207,0.870252,10.724142,0.000000,2.845280,-0.978881,1.158038,-0.033302,-0.070109,-0.049773,0.843809,-0.063461,0.042656,-0.040486,-0.068625,-0.679307,-1.098443,11.284807,-0.171552,3.446836,1,0,,38.990817,-76.937954,-9.773000,,,
2026-09-11T16:25:29.478,12.266187,1.138594,0.908407,10.542535,0.000000,11.841022,-4.073746,1.135717,-0.051214,-0.107819,-0.052747,0.882020,-0.066835,0.038423,-0.047127,-0.106336,-1.052940,-1.505321,9.040359,-0.246275,3.331078,1,0,,38.990817,-76.937954,-9.773000,,,
2026-09-11T16:25:29.511,12.299593,1.089803,0.944307,10.090765,0.000000,19.528706,-6.718592,1.082319,-0.083740,-0.176294,-0.057492,0.918886,-0.071125,-0.058931,-0.029910,-0.174810,-0.799144,-0.332936,10.053582,-0.297756,3.296977,1,0,,38.990817,-76.937954,-9.773000,,,
2026-09-11T16:25:29.545,12.333000,1.060809,0.979146,9.822303,0.000000,25.917257,-8.916487,1.047989,-0.101584,-0.213861,-0.064009,0.954215,-0.076373,-0.004877,-0.037778,-0.212378,-0.448752,0.987039,10.423488,-0.316542,3.350848,1,0,,38.990817,-76.937954,-9.773000,,,
2026-09-11T16:25:29.578,12.366406,1.041411,1.013770,9.642692,0.000000,28.691304,-9.870862,1.025994,-0.100614,-0.211818,-0.071119,0.988550,-0.082080,-0.012912,-0.013634,-0.210335,0.123270,-0.977919,9.616891,-0.290913,3.276498,1,0,,38.990817,-76.937954,-9.773000,,,
2026-09-11T16:25:29.612,12.399826,1.012624,1.047425,9.376150,0.000000,29.879888,-10.279778,0.996370,-0.102425,-0.215631,-0.078262,1.021996,-0.087983,0.012883,-0.035692,-0.214148,-0.104049,1.408235,10.029948,-0.278359,3.357288,1,0,,38.990817,-76.937954,-9.773000,,,
2026-09-11T16:25:29.645,12.433242,1.013105,1.081136,9.380598,0.000000,30.372899,-10.449392,0.996303,-0.100194,-0.210935,-0.085389,1.054901,-0.094078,0.024278,-0.007845,-0.209451,0.244578,-0.819934,10.012786,-0.244990,3.292609,1,0,,38.990817,-76.937954,-9.773000,,,
2026-09-11T16:25:29.678,12.466651,1.023045,1.114814,9.472640,0.000000,30.848058,-10.612864,1.005545,-0.093320,-0.196463,-0.092194,1.087922,-0.100264,0.200257,-0.049533,-0.194979,5.874380,4.493407,7.822176,0.148050,3.571800,1,0,,38.990817,-76.937954,-9.773000,,,
2026-09-11T16:25:29.712,12.500058,1.023134,1.149323,9.473467,0.000000,31.512731,-10.841536,1.004873,-0.112055,-0.235906,-0.099417,1.121021,-0.106891,-0.049609,0.012794,-0.234422,-0.731478,-3.491266,8.789504,0.105291,3.333568,1,0,,38.990817,-76.937954,-9.773000,,,
2026-09-11T16:25:29.746,12.533477,1.042922,1.184687,9.656685,0.000000,33.135274,-11.399750,1.022347,-0.107051,-0.225372,-0.107124,1.154336,-0.114026,-0.150158,-0.053366,-0.223888,1.461485,6.173973,8.127752,0.201792,3.723367,1,0,,38.990817,-76.937954,-9.773000,,,
2026-09-11T16:25:29.779,12.566899,1.023564,1.218923,9.477442,0.000000,36.503272,-12.558465,0.999075,-0.121542,-0.255879,-0.115166,1.187483,-0.121567,-0.052106,-0.024683,-0.254395,0.383440,-0.669304,10.856060,0.218064,3.667306,1,0,,38.990817,-76.937954,-9.773000,,,
2026-09-11T16:25:29.812,12.600315,1.004749,1.252908,9.303236,0.000000,42.564978,-14.643915,0.972111,-0.133363,-0.280764,-0.124132,1.219672,-0.129725,-0.107176,-0.002624,-0.279281,-0.866614,-0.819738,9.243062,0.144096,3.603256,1,0,,38.990817,-76.937954,-9.773000,,,
2026-09-11T16:25:29.846,12.633723,0.956370,1.285128,8.855276,0.000000,41.969657,-14.439102,0.926161,-0.136562,-0.287499,-0.133625,1.250538,-0.138267,-0.117522,0.005789,-0.286016,1.079026,-1.188272,11.825251,0.188667,3.515644,1,0,,38.990817,-76.937954,-9.773000,,,
2026-09-11T16:25:29.879,12.667130,0.986176,1.318030,9.131263,0.000000,42.766852,-14.713367,0.953838,-0.117614,-0.247609,-0.142563,1.281059,-0.146798,-0.123398,-0.025787,-0.246125,1.442656,-0.604384,8.995248,0.247651,3.464858,1,0,,38.990817,-76.937954,-9.773000,,,
2026-09-11T16:25:29.912,12.700538,0.976873,1.350409,9.045122,0.000000,42.813544,-14.729430,0.944770,-0.140731,-0.296276,-0.151648,1.311796,-0.155714,-0.070374,0.030727,-0.294792,-0.673030,-0.043345,9.896675,0.163591,3.453785,1,0,,38.990817,-76.937954,-9.773000,,,
2026-09-11T16:25:29.946,12.733956,0.996876,1.382902,9.230338,0.000000,42.943320,-14.774078,0.963919,-0.119212,-0.250973,-0.160792,1.342625,-0.164968,0.000882,0.024040,-0.249489,1.091284,-1.896410,13.578582,0.190822,3.320385,1,0,,38.990817,-76.937954,-9.773000,,,
2026-09-11T16:25:29.979,12.767376,0.978095,1.416215,9.056439,0.000000,42.774405,-14.715965,0.946011,-0.120439,-0.253556,-0.169223,1.373449,-0.174159,0.010689,0.035310,-0.252072,-0.387363,0.520635,9.640133,0.121526,3.344835,1,0,,38.990817,-76.937954,-9.773000,,,
2026-09-11T16:25:30.012,12.800780,0.968620,1.448412,8.968705,0.000000,42.668662,-14.679585,0.937003,-0.134573,-0.283311,-0.178189,1.403688,-0.183789,0.010282,0.027390,-0.281827,0.694311,0.731576,8.613573,0.120190,3.384314,1,0,,38.990817,-76.937954,-9.773000,,,
2026-09-11T16:25:30.046,12.834187,1.037213,1.483331,9.603823,0.000000,42.575278,-14.647458,1.003504,-0.128123,-0.269732,-0.187427,1.434763,-0.194001,0.068623,-0.098940,-0.268249,2.393215,-0.118857,8.338398,0.223937,3.368648,1,1,12.841151,38.990815,-76.937942,-9.732000,1.980305,-0.388441,5.149167
2026-09-11T16:25:30.079,12.867595,1.056825,1.519094,9.785413,0.000000,42.689948,-14.686909,1.022294,-0.152658,-0.321386,-0.197301,1.467079,-0.205075,0.004664,0.015355,-0.319902,1.412648,-0.544956,7.467960,0.256897,3.329320,1,0,,38.990815,-76.937942,-9.732000,,,
2026-09-11T16:25:30.112,12.901004,1.115422,1.556599,10.327979,0.000000,42.670035,-14.680058,1.079010,-0.140032,-0.294804,-0.207594,1.500480,-0.216927,-0.027197,-0.019205,-0.293320,1.600838,-1.005574,10.563037,0.296150,3.259936,1,0,,38.990815,-76.937942,-9.732000,,,
2026-09-11T16:25:30.146,12.934422,1.164108,1.595415,10.778782,0.000000,42.625403,-14.664703,1.126186,-0.155096,-0.326519,-0.217976,1.535450,-0.229532,-0.058663,-0.067695,-0.325035,2.334179,1.261135,8.662410,0.380449,3.341276,1,0,,38.990815,-76.937942,-9.732000,,,
2026-09-11T16:25:30.179,12.967825,1.212540,1.636008,11.227221,0.000000,42.625403,-14.664703,1.173040,-0.144704,-0.304640,-0.228517,1.571789,-0.242921,-0.101154,-0.004084,-0.303157,1.249759,-0.319599,8.724781,0.391418,3.318707,1,0,,38.990815,-76.937942,-9.732000,,,
2026-09-11T16:25:30.213,13.001232,1.232244,1.677194,11.409669,0.000000,41.572089,-14.302324,1.194052,-0.152399,-0.320840,-0.238965,1.609102,-0.256908,-0.099765,0.003201,-0.319356,1.692432,0.815031,9.241395,0.427830,3.371494,1,0,,38.990815,-76.937942,-9.732000,,,
2026-09-11T16:25:30.247,13.034652,1.232406,1.718733,11.411169,0.000000,39.681067,-13.651743,1.197589,-0.132289,-0.278504,-0.248980,1.646734,-0.271178,-0.053484,0.041465,-0.277020,0.905840,0.887600,8.578269,0.408018,3.425207,1,0,,38.990815,-76.937942,-9.732000,,,
2026-09-11T16:25:30.280,13.068076,1.261928,1.760784,11.684522,0.000000,36.328864,-12.498462,1.232023,-0.123639,-0.260293,-0.257984,1.684967,-0.285504,-0.039033,0.005866,-0.258810,1.029600,0.656947,11.975293,0.398209,3.462564,1,0,,38.990815,-76.937942,-9.732000,,,
2026-09-11T16:25:30.313,13.101494,1.242762,1.802243,11.507055,0.000000,29.894309,-10.284739,1.222794,-0.107776,-0.226896,-0.266125,1.723584,-0.299864,0.003946,0.054832,-0.225412,1.056078,-0.100812,8.174431,0.395023,3.447632,1,0,,38.990815,-76.937942,-9.732000,,,
2026-09-11T16:25:30.346,13.134898,1.272187,1.845092,11.779512,0.000000,27.451224,-9.444228,1.254944,-0.091252,-0.192110,-0.273123,1.762586,-0.314093,0.064903,0.022690,-0.190626,0.519851,-0.805911,9.888438,0.360755,3.384882,1,0,,38.990815,-76.937942,-9.732000,,,
2026-09-11T16:25:30.380,13.168308,1.301715,1.888910,12.052919,0.000000,22.217612,-7.643674,1.290149,-0.083696,-0.176201,-0.279276,1.802694,-0.328501,0.090407,-0.005450,-0.174718,0.692448,-1.439910,9.342207,0.344748,3.280886,1,0,,38.990815,-76.937942,-9.732000,,,
2026-09-11T16:25:30.414,13.201729,1.311695,1.933035,12.145324,0.000000,17.423453,-5.994307,1.304523,-0.072166,-0.151928,-0.284759,1.843614,-0.343070,0.102438,0.031193,-0.150445,-0.212706,0.465129,7.038821,0.277010,3.299482,1,0,,38.990815,-76.937942,-9.732000,,,
2026-09-11T16:25:30.447,13.235148,1.340962,1.977889,12.416314,0.000000,16.938681,-5.827528,1.334032,-0.067026,-0.141107,-0.289655,1.885238,-0.357791,0.087045,-0.012009,-0.139623,1.075299,-0.654986,8.988972,0.298410,3.244701,1,0,,38.990815,-76.937942,-9.732000,,,
2026-09-11T16:25:30.480,13.268555,1.360840,2.023176,12.600375,0.000000,17.005286,-5.850442,1.353752,-0.065832,-0.138593,-0.294327,1.927595,-0.372840,0.053168,0.011091,-0.137110,1.064806,0.233300,9.439587,0.321675,3.248000,1,0,,38.990815,-76.937942,-9.732000,,,
2026-09-11T16:25:30.513,13.301963,1.390448,2.069591,12.874515,0.000000,16.892676,-5.811700,1.383301,-0.076365,-0.160768,-0.299328,1.970619,-0.388485,0.009580,-0.018304,-0.159284,-0.160829,0.299789,9.435468,0.267114,3.257816,1,0,,38.990815,-76.937942,-9.732000,,,
2026-09-11T16:25:30.547,13.335370,1.390990,2.116200,12.879533,0.000000,16.961341,-5.835324,1.383782,-0.077804,-0.163798,-0.304749,2.013981,-0.404693,-0.010043,0.015706,-0.162315,0.386480,1.188860,11.573612,0.250196,3.325347,1,0,,38.990815,-76.937942,-9.732000,,,
2026-09-11T16:25:30.580,13.368781,1.401351,2.162398,12.975473,0.000000,17.006659,-5.850915,1.394051,-0.077626,-0.163423,-0.310216,2.057423,-0.421213,-0.046386,0.046402,-0.161940,0.960169,-0.519066,8.740275,0.274223,3.281652,1,0,,38.990815,-76.937942,-9.732000,,,
2026-09-11T16:25:30.614,13.402202,1.411355,2.209337,13.068100,0.000000,17.336936,-5.964542,1.403714,-0.084316,-0.177508,-0.315913,2.101069,-0.438186,-0.032266,0.023439,-0.176024,0.308321,0.954481,9.081645,0.260622,3.335227,1,0,,38.990815,-76.937942,-9.732000,,,
2026-09-11T16:25:30.647,13.435645,1.401793,2.256048,12.979562,0.000000,17.488684,-6.016749,1.394071,-0.075254,-0.158428,-0.321530,2.144660,-0.455379,-0.038463,-0.019174,-0.156945,0.597715,2.115491,12.191137,0.267670,3.461645,1,0,,38.990815,-76.937942,-9.732000,,,
2026-09-11T16:25:30.680,13.469054,1.401801,2.302657,12.979636,0.000000,17.451606,-6.003993,1.394111,-0.076574,-0.161209,-0.326870,2.188000,-0.472620,-0.044299,-0.046989,-0.159726,0.591243,0.268212,9.104102,0.275991,3.467205,1,0,,38.990815,-76.937942,-9.732000,,,
2026-09-11T16:25:30.714,13.502460,1.392076,2.348981,12.889594,0.000000,17.444739,-6.001630,1.384446,-0.077582,-0.163330,-0.332290,2.231080,-0.490076,-0.007875,-0.048922,-0.161846,0.834742,-0.362062,10.322382,0.303116,3.431994,1,0,,38.990815,-76.937942,-9.732000,,,
2026-09-11T16:25:30.748,13.535878,1.382787,2.395749,12.803579,0.000000,17.211280,-5.921312,1.375409,-0.068054,-0.143272,-0.337413,2.273833,-0.507529,-0.033169,-0.021013,-0.141788,1.067944,1.817859,10.048874,0.349374,3.536437,1,0,,38.990815,-76.937942,-9.732000,,,
2026-09-11T16:25:30.782,13.569298,1.402673,2.442870,12.987710,0.000000,17.093177,-5.880680,1.395291,-0.081008,-0.170543,-0.342657,2.316649,-0.525319,-0.098898,-0.021073,-0.169059,0.436592,1.600053,8.961121,0.358552,3.628283,1,0,,38.990815,-76.937942,-9.732000,,,
2026-09-11T16:25:30.815,13.602717,1.383593,2.489194,12.811047,0.000000,17.942557,-6.172898,1.375571,-0.091493,-0.192616,-0.348725,2.359233,-0.543718,-0.163428,-0.049914,-0.191132,0.177206,-0.295278,8.746061,0.352691,3.598109,1,0,,38.990815,-76.937942,-9.732000,,,
2026-09-11T16:25:30.847,13.636119,1.374130,2.535096,12.723423,0.000000,22.095389,-7.601625,1.362054,-0.103767,-0.218457,-0.355591,2.401023,-0.562548,-0.198093,-0.021727,-0.216973,0.530246,-0.637825,9.222174,0.370750,3.548224,1,0,,38.990815,-76.937942,-9.732000,,,
2026-09-11T16:25:30.880,13.669522,1.384311,2.580794,12.817696,0.000000,25.457205,-8.758213,1.368170,-0.119584,-0.251756,-0.363444,2.442392,-0.582083,-0.187206,-0.049598,-0.250273,1.285260,-2.364285,11.181837,0.439398,3.390182,1,0,,38.990815,-76.937942,-9.732000,,,
2026-09-11T16:25:30.915,13.702946,1.404126,2.628405,13.001170,0.000000,27.950415,-9.615969,1.384398,-0.129633,-0.272911,-0.372212,2.483817,-0.602511,-0.081707,-0.047004,-0.271427,0.631058,3.632481,9.961399,0.467529,3.624351,1,0,,38.990815,-76.937942,-9.732000,,,
2026-09-11T16:25:30.947,13.736356,1.404461,2.675230,13.004267,0.000000,28.144736,-9.682822,1.384453,-0.133453,-0.280954,-0.381465,2.525208,-0.623618,-0.042772,0.007642,-0.279470,0.437671,-0.842489,9.277189,0.482563,3.566829,1,0,,38.990815,-76.937942,-9.732000,,,
2026-09-11T16:25:30.980,13.769758,1.404924,2.721463,13.008552,0.000000,28.072638,-9.658018,1.385011,-0.126022,-0.265310,-0.390588,2.566426,-0.645047,-0.009906,-0.036328,-0.263827,-0.235262,2.039391,11.742679,0.449529,3.695114,1,0,,38.990815,-76.937942,-9.732000,,,
2026-09-11T16:25:31.013,13.803160,1.386297,2.767149,12.836083,0.000000,28.004660,-9.634631,1.366743,-0.121901,-0.256633,-0.399305,2.607252,-0.666550,-0.018237,-0.043929,-0.255150,-0.443751,1.450305,8.438622,0.402792,3.782771,1,0,,38.990815,-76.937942,-9.732000,,,
2026-09-11T16:25:31.049,13.836559,1.367655,2.812390,12.663468,0.000000,27.991614,-9.630142,1.348382,-0.121334,-0.255440,-0.407856,2.647355,-0.688090,-0.027597,-0.047187,-0.253957,-0.137685,-3.352011,10.176851,0.377602,3.558190,1,1,13.844950,38.990810,-76.937928,-9.654000,3.157858,-0.959056,3.347764
2026-09-11T16:25:31.082,13.869970,1.368015,2.858509,12.666802,0.000000,27.963462,-9.620457,1.348775,-0.115545,-0.243253,-0.416187,2.687058,-0.709760,0.024285,-0.014236,-0.241769,0.242813,0.537797,9.073309,0.375731,3.586828,1,0,,38.990810,-76.937928,-9.654000,,,
2026-09-11T16:25:31.116,13.903394,1.368563,2.903841,12.671877,0.000000,25.344596,-8.719471,1.352745,-0.107131,-0.225539,-0.424021,2.726761,-0.731572,0.014960,-0.153702,-0.224056,0.373241,-2.641225,20.131974,0.382429,3.407772,1,0,,38.990810,-76.937928,-9.654000,,,
2026-09-11T16:25:31.149,13.936798,1.330167,2.946987,12.316360,0.000000,21.739707,-7.479257,1.318850,-0.080986,-0.170497,-0.430636,2.766070,-0.752923,0.046842,0.071853,-0.169013,1.455699,-1.345669,12.754235,0.459908,3.309480,1,0,,38.990810,-76.937928,-9.654000,,,
2026-09-11T16:25:31.182,13.970203,1.310724,2.991271,12.136329,0.000000,17.481131,-6.014151,1.303509,-0.068160,-0.143495,-0.435880,2.804777,-0.773572,0.001197,0.094988,-0.142012,-1.235834,-2.264257,10.621975,0.361617,3.150386,1,0,,38.990810,-76.937928,-9.654000,,,
2026-09-11T16:25:31.216,14.003607,1.320360,3.035294,12.225551,0.000000,17.310157,-5.955329,1.313234,-0.061798,-0.130100,-0.440450,2.843433,-0.794081,-0.002653,0.049677,-0.128617,1.348512,0.251639,10.292668,0.430182,3.154830,1,0,,38.990810,-76.937928,-9.654000,,,
2026-09-11T16:25:31.249,14.037026,1.359405,3.080524,12.587079,0.000000,17.158408,-5.903122,1.352196,-0.066681,-0.140381,-0.444970,2.882756,-0.815102,-0.061955,-0.019718,-0.138897,0.638021,1.506007,8.900810,0.450362,3.241669,1,0,,38.990810,-76.937928,-9.654000,,,
2026-09-11T16:25:31.282,14.070448,1.340380,3.125435,12.410929,0.000000,17.447486,-6.002575,1.333031,-0.062569,-0.131725,-0.449517,2.922282,-0.836455,-0.126897,0.011083,-0.130242,-0.137685,-2.601116,9.219134,0.416654,3.060699,1,0,,38.990810,-76.937928,-9.654000,,,
2026-09-11T16:25:31.316,14.103854,1.340637,3.170186,12.413309,0.000000,17.246299,-5.933360,1.333455,-0.068719,-0.144671,-0.454134,2.961393,-0.857874,-0.095144,0.024662,-0.143187,-0.248795,-1.520129,11.558216,0.375143,2.952908,1,0,,38.990810,-76.937928,-9.654000,,,
2026-09-11T16:25:31.349,14.137259,1.331356,3.214346,12.327368,0.000000,17.261405,-5.938557,1.324211,-0.072366,-0.152350,-0.459095,3.000196,-0.879560,-0.034797,0.032891,-0.150866,-0.008041,0.490921,10.359647,0.351499,2.977022,1,0,,38.990810,-76.937928,-9.654000,,,
2026-09-11T16:25:31.382,14.170665,1.331696,3.258550,12.330518,0.000000,17.378134,-5.978716,1.324452,-0.076410,-0.160864,-0.464326,3.038697,-0.901493,0.041509,0.049111,-0.159380,0.781198,-0.782276,9.929724,0.377058,2.919212,1,0,,38.990810,-76.937928,-9.654000,,,
2026-09-11T16:25:31.416,14.204089,1.341620,3.303530,12.422411,0.000000,17.664466,-6.077224,1.334081,-0.077528,-0.163218,-0.469742,3.077209,-0.923794,0.099304,0.033512,-0.161734,0.312930,-3.473319,9.681027,0.366950,2.688105,1,0,,38.990810,-76.937928,-9.654000,,,
2026-09-11T16:25:31.449,14.237513,1.361404,3.348805,12.605592,0.000000,19.591193,-6.740089,1.351995,-0.103059,-0.216966,-0.476096,3.115795,-0.946928,0.135457,0.021074,-0.215482,0.059330,-0.805812,9.286211,0.340083,2.637147,1,0,,38.990810,-76.937928,-9.654000,,,
2026-09-11T16:25:31.483,14.270920,1.371566,3.394423,12.699682,0.000000,23.771491,-8.178265,1.357617,-0.109851,-0.231265,-0.483583,3.154302,-0.970976,0.097800,-0.008431,-0.229782,0.552899,-0.375104,9.465967,0.348433,2.615982,1,0,,38.990810,-76.937928,-9.654000,,,
2026-09-11T16:25:31.516,14.304324,1.381927,3.439926,12.795622,0.000000,29.765906,-10.240564,1.359913,-0.127834,-0.269124,-0.491940,3.192536,-0.995754,0.022198,-0.038606,-0.267640,-0.145335,0.046189,9.235903,0.311826,2.625674,1,0,,38.990810,-76.937928,-9.654000,,,
2026-09-11T16:25:31.550,14.337747,1.401932,3.486638,12.980854,0.000000,33.177848,-11.414397,1.374204,-0.150477,-0.316794,-0.501732,3.230482,-1.021620,-0.035736,0.001108,-0.315310,1.016852,-0.954383,10.468207,0.347238,2.574986,1,0,,38.990810,-76.937928,-9.654000,,,
2026-09-11T16:25:31.583,14.371167,1.392574,3.532620,12.894200,0.000000,37.466635,-12.889898,1.357482,-0.160936,-0.338813,-0.512687,3.267855,-1.048340,-0.110545,0.066009,-0.337330,2.386154,-3.311804,9.965812,0.465339,2.373878,1,0,,38.990810,-76.937928,-9.654000,,,
2026-09-11T16:25:31.616,14.404576,1.392860,3.578784,12.896855,0.000000,41.268592,-14.197910,1.350314,-0.150989,-0.317871,-0.523657,3.304568,-1.075268,-0.017785,0.032036,-0.316387,1.734600,-0.936241,7.543962,0.536227,2.326783,1,0,,38.990810,-76.937928,-9.654000,,,
2026-09-11T16:25:31.649,14.437979,1.403137,3.625199,12.992008,0.000000,41.091437,-14.136962,1.360642,-0.165298,-0.347996,-0.534778,3.340983,-1.102687,-0.025547,0.049836,-0.346513,0.569080,0.364023,9.761343,0.530030,2.367190,1,0,,38.990810,-76.937928,-9.654000,,,
2026-09-11T16:25:31.683,14.471387,1.422663,3.672822,13.172809,0.000000,41.040625,-14.119481,1.379683,-0.151906,-0.319803,-0.545932,3.377509,-1.130780,-0.031803,0.021328,-0.318319,0.254581,-0.068254,6.944579,0.504042,2.377101,1,0,,38.990810,-76.937928,-9.654000,,,
2026-09-11T16:25:31.717,14.504805,1.402993,3.720262,12.990676,0.000000,40.368399,-13.888211,1.361978,-0.153533,-0.323228,-0.556677,3.413860,-1.159122,-0.028983,-0.037811,-0.321744,-2.522368,1.596130,2.271220,0.298151,2.494558,1,0,,38.990810,-76.937928,-9.654000,,,
2026-09-11T16:25:31.750,14.538224,1.422515,3.767907,13.171439,0.000000,39.623389,-13.631900,1.382443,-0.151314,-0.318555,-0.567401,3.449947,-1.187871,-0.037770,0.034760,-0.317072,-1.733031,-4.031122,13.849147,0.143009,2.246547,1,0,,38.990810,-76.937928,-9.654000,,,
2026-09-11T16:25:31.784,14.571642,1.413135,3.814938,13.084581,0.000000,37.820945,-13.011793,1.376851,-0.135942,-0.286195,-0.577506,3.486103,-1.216881,-0.005345,-0.029592,-0.284711,3.106747,1.276336,6.914767,0.300149,2.341759,1,0,,38.990810,-76.937928,-9.654000,,,
2026-09-11T16:25:31.817,14.605050,1.452356,3.863472,13.447739,0.000000,35.397086,-12.177897,1.419674,-0.142159,-0.299282,-0.587285,3.522557,-1.246455,0.072495,0.152223,-0.297799,1.190429,0.507494,12.675488,0.328162,2.388142,1,0,,38.990810,-76.937928,-9.654000,,,
2026-09-11T16:25:31.850,14.638454,1.481905,3.912348,13.721346,0.000000,32.179465,-11.070917,1.454327,-0.135860,-0.286021,-0.597061,3.559792,-1.277103,0.104590,-0.003897,-0.284538,1.742838,-0.605561,9.327890,0.386228,2.361428,1,0,,38.990810,-76.937928,-9.654000,,,
2026-09-11T16:25:31.883,14.671863,1.492190,3.962272,13.816570,0.000000,30.122275,-10.363168,1.467848,-0.144415,-0.304031,-0.606918,3.597371,-1.308605,0.013992,-0.012914,-0.302547,-0.221238,-0.731086,8.840401,0.314737,2.328847,1,0,,38.990810,-76.937928,-9.654000,,,
2026-09-11T16:25:31.917,14.705278,1.502093,4.013358,13.908264,0.000000,30.168967,-10.379232,1.477514,-0.128566,-0.270666,-0.616519,3.635039,-1.340599,-0.066993,-0.028828,-0.269182,-0.545054,-0.886129,9.345443,0.227263,2.283588,1,0,,38.990810,-76.937928,-9.654000,,,
2026-09-11T16:25:31.950,14.738696,1.512350,4.063829,14.003237,0.000000,30.072150,-10.345923,1.487761,-0.130930,-0.275642,-0.625648,3.672808,-1.372958,-0.098635,0.001168,-0.274158,0.031087,-2.226698,11.180758,0.179025,2.152737,1,0,,38.990810,-76.937928,-9.654000,,,
2026-09-11T16:25:31.983,14.772103,1.532430,4.114391,14.189171,0.000000,30.243811,-10.404981,1.507231,-0.132013,-0.277923,-0.634894,3.710634,-1.405991,-0.047593,0.017774,-0.276440,0.706569,0.523283,10.648061,0.174078,2.201844,1,0,,38.990810,-76.937928,-9.654000,,,
2026-09-11T16:25:32.017,14.805507,1.562054,4.166662,14.463461,0.000000,29.988379,-10.317103,1.536798,-0.136541,-0.287455,-0.644337,3.748746,-1.439938,-0.056977,0.045236,-0.285971,1.197196,-1.252505,9.525199,0.201137,2.137017,1,0,,38.990810,-76.937928,-9.654000,,,
2026-09-11T16:25:32.051,14.838927,1.591762,4.219753,14.738539,0.000000,29.902549,-10.287574,1.566173,-0.130974,-0.275734,-0.653748,3.787350,-1.474840,-0.043156,-0.015623,-0.274251,0.926042,0.594185,10.884989,0.212663,2.191742,1,1,14.844434,38.990802,-76.937916,-9.682000,4.269295,-1.869001,5.149338
2026-09-11T16:25:32.083,14.872346,1.611388,4.273664,14.920258,0.000000,29.726767,-10.227099,1.585786,-0.131598,-0.277048,-0.662985,3.826324,-1.510535,0.014647,0.005140,-0.275565,1.646733,-0.670481,10.218726,0.277075,2.164506,1,0,,38.990802,-76.937916,-9.682000,,,
2026-09-11T16:25:32.116,14.905752,1.650799,4.328943,15.285177,0.000000,29.106726,-10.013782,1.625651,-0.133810,-0.281705,-0.672318,3.865700,-1.547230,-0.005556,0.032550,-0.280221,-0.182796,1.225439,9.246592,0.226439,2.261429,1,0,,38.990802,-76.937916,-9.682000,,,
2026-09-11T16:25:32.149,14.939161,1.641352,4.383105,15.197699,0.000000,28.757224,-9.893540,1.616943,-0.144125,-0.303421,-0.682092,3.905002,-1.584787,-0.113163,-0.012370,-0.301938,0.044914,-0.313715,10.646001,0.191416,2.259827,1,0,,38.990802,-76.937916,-9.682000,,,
2026-09-11T16:25:32.183,14.972571,1.612312,4.437131,14.928814,0.000000,27.661338,-9.516515,1.590123,-0.118221,-0.248886,-0.691318,3.943657,-1.622141,0.030633,0.012322,-0.247403,-1.026168,-0.030793,9.228744,0.087550,2.270409,1,0,,38.990802,-76.937916,-9.682000,,,
2026-09-11T16:25:32.218,15.005988,1.622133,4.491498,15.019753,0.000000,25.531363,-8.783726,1.603109,-0.115856,-0.243907,-0.699552,3.982115,-1.659330,-0.047177,-0.039810,-0.242424,0.719220,-1.603682,10.062604,0.100244,2.178787,1,0,,38.990802,-76.937916,-9.682000,,,
