timestamp,time_s,speed_mps,distance_m,wheel_omega_rad_s,motor_current_A,steer_motor_deg,steer_column_deg,vx_mps,vy_mps,yaw_rate_rad_s,heading_rad,x_m,y_m,gyro_x_rad_s,gyro_y_rad_s,gyro_z_rad_s,accel_x_mps2,accel_y_mps2,accel_z_mps2,grade_deg,bank_deg,moving,gps_new_fix,gps_time_s,gps_latitude_deg,gps_longitude_deg,gps_altitude_m,gps_east_m,gps_north_m,gps_sigma_m
2026-09-11T16:30:31.868,0.000008,0.331231,0.001595,3.066954,0.000000,-10.697592,3.680364,0.330548,0.016904,0.035586,0.000000,0.000000,0.000000,0.015060,-0.019626,0.037070,0.869752,-1.559061,11.009044,3.015394,-8.442996,1,0,,,,,,,
2026-09-11T16:30:31.902,0.033429,0.254256,0.009297,2.354223,0.000000,-10.587042,3.642331,0.253742,0.008516,0.017929,0.000894,0.009764,0.000429,-0.023493,0.013322,0.019412,-0.298024,-1.931126,9.092334,2.943328,-8.466912,1,0,,,,,,,
2026-09-11T16:30:31.936,0.066849,0.322792,0.019687,2.988810,0.000000,-9.971808,3.430668,0.322213,0.005194,0.010935,0.001377,0.019388,0.000669,0.023684,0.001598,0.012418,0.360983,1.270255,9.398595,2.917350,-8.280687,1,0,,,,,,,
2026-09-11T16:30:31.969,0.100271,0.264931,0.028893,2.453061,0.000000,-9.927862,3.415549,0.264460,0.011679,0.024588,0.001970,0.029191,0.000967,0.026590,0.008115,0.026072,1.168855,-0.719906,8.910617,2.940307,-8.227160,1,0,,,,,,,
2026-09-11T16:30:32.003,0.133694,0.284380,0.038280,2.633145,0.000000,-9.927862,3.415549,0.283875,0.007595,0.015990,0.002648,0.038354,0.001310,0.025264,0.001093,0.017474,0.957914,0.289198,8.742236,2.947366,-8.108008,1,0,,,,,,,
2026-09-11T16:30:32.037,0.167114,0.323959,0.050311,2.999616,0.000000,-9.927862,3.415549,0.323383,0.004750,0.010000,0.003083,0.048500,0.001546,0.022166,0.005088,0.011484,1.381659,2.042137,9.533829,2.981756,-7.875403,1,0,,,,,,,
2026-09-11T16:30:32.070,0.200538,0.333774,0.060793,3.090502,0.000000,-9.927862,3.415549,0.333181,0.019608,0.041280,0.003940,0.059471,0.001992,-0.004550,0.000134,0.042763,1.530230,-1.763530,9.409775,3.025957,-7.895201,1,1,0.177130,38.990749,-76.937894,-5.860000,0.000000,0.000000,3.183821
2026-09-11T16:30:32.104,0.233963,0.392692,0.074510,3.636034,0.000000,-10.038412,3.453582,0.391979,0.031360,0.066021,0.005733,0.071586,0.002903,0.091272,0.001941,0.067504,1.254467,-1.198373,9.693678,3.050446,-7.878580,1,0,,38.990749,-76.937894,-5.860000,,,
2026-09-11T16:30:32.137,0.267383,0.363518,0.086450,3.365908,0.000000,-12.160147,4.183537,0.362549,0.016733,0.035227,0.007425,0.084189,0.003789,0.093575,0.130941,0.036711,-1.659383,-3.461061,9.971990,2.875398,-8.009398,1,0,,38.990749,-76.937894,-5.860000,,,
2026-09-11T16:30:32.170,0.300803,0.305787,0.097342,2.831359,0.000000,-13.992804,4.814038,0.304708,0.008710,0.018336,0.008320,0.095335,0.004301,0.059865,0.071340,0.019820,0.209568,-0.093555,9.299450,2.818041,-7.917858,1,0,,38.990749,-76.937894,-5.860000,,,
2026-09-11T16:30:32.204,0.334223,0.325224,0.108142,3.011336,0.000000,-15.277518,5.256027,0.323857,0.013540,0.028505,0.009102,0.105835,0.004765,0.034407,-0.035081,0.029988,1.252800,-0.654692,8.721839,2.824735,-7.864315,1,0,,38.990749,-76.937894,-5.860000,,,
2026-09-11T16:30:32.237,0.367642,0.364855,0.121085,3.378286,0.000000,-15.107229,5.197441,0.363355,0.020318,0.042774,0.010294,0.117312,0.005442,-0.051432,-0.030594,0.044258,0.445124,2.104801,10.418095,2.772689,-7.631270,1,0,,38.990749,-76.937894,-5.860000,,,
2026-09-11T16:30:32.270,0.401056,0.355130,0.132933,3.288244,0.000000,-13.505972,4.646550,0.353963,0.017868,0.037616,0.011637,0.129288,0.006211,-0.067316,-0.036528,0.039100,0.322541,-0.222415,7.845810,2.709543,-7.552953,1,0,,38.990749,-76.937894,-5.860000,,,
2026-09-11T16:30:32.304,0.434470,0.365662,0.146058,3.385757,0.000000,-10.942038,3.764463,0.364873,0.009498,0.019995,0.012599,0.141291,0.006814,-0.027953,0.009295,0.021478,0.414527,-0.414625,9.115379,2.646872,-7.487690,1,0,,38.990749,-76.937894,-5.860000,,,
2026-09-11T16:30:32.337,0.467886,0.346224,0.157588,3.205780,0.000000,-9.658011,3.322710,0.345642,-0.001781,-0.003748,0.012871,0.153160,0.007094,0.002317,0.009746,-0.002265,0.660086,0.007159,10.329247,2.600988,-7.395026,1,0,,38.990749,-76.937894,-5.860000,,,
2026-09-11T16:30:32.370,0.501302,0.385503,0.171122,3.569469,0.000000,-5.971411,2.054384,0.385255,0.001455,0.003063,0.012859,0.165371,0.007246,0.027350,-0.002593,0.004546,0.452381,-0.253110,9.552070,2.539190,-7.320581,1,0,,38.990749,-76.937894,-5.860000,,,
2026-09-11T16:30:32.404,0.534734,0.424797,0.184748,3.933305,0.000000,-0.149344,0.051380,0.424797,-0.015898,-0.033470,0.012351,0.178914,0.007175,0.047089,-0.011404,-0.031986,1.674780,1.892585,8.958963,2.546264,-7.105702,1,0,,38.990749,-76.937894,-5.860000,,,
2026-09-11T16:30:32.438,0.568145,0.463381,0.200471,4.290568,0.000000,4.771845,-1.641690,0.463191,-0.012794,-0.026935,0.011342,0.193752,0.006871,0.081887,-0.018961,-0.025451,1.379207,-0.911920,10.659142,2.527475,-7.076647,1,0,,38.990749,-76.937894,-5.860000,,,
2026-09-11T16:30:32.471,0.601559,0.502307,0.217287,4.650995,0.000000,6.826288,-2.348494,0.501886,-0.018930,-0.039853,0.010226,0.209881,0.006515,0.124829,-0.002851,-0.038369,1.115408,0.006669,10.184402,2.491528,-6.987442,1,0,,38.990749,-76.937894,-5.860000,,,
2026-09-11T16:30:32.505,0.634988,0.521836,0.234786,4.831813,0.000000,7.342645,-2.526139,0.521329,-0.015937,-0.033551,0.008999,0.226988,0.006096,0.122747,0.003887,-0.032067,2.916988,1.880229,9.691520,2.570626,-6.777038,1,0,,38.990749,-76.937894,-5.860000,,,
2026-09-11T16:30:32.538,0.668400,0.619039,0.255841,5.731843,0.000000,7.342645,-2.526139,0.618437,-0.013300,-0.028000,0.007971,0.246033,0.005768,0.108063,-0.053736,-0.026517,3.586586,-0.751091,8.640051,2.684922,-6.740833,1,0,,38.990749,-76.937894,-5.860000,,,
2026-09-11T16:30:32.571,0.701819,0.667258,0.278809,6.178318,0.000000,8.323862,-2.863714,0.666425,-0.029718,-0.062564,0.006457,0.267507,0.005204,0.085979,0.091330,-0.061080,-0.275371,0.015789,11.880462,2.540012,-6.653393,1,0,,38.990749,-76.937894,-5.860000,,,
2026-09-11T16:30:32.605,0.735239,0.686894,0.301595,6.360126,0.000000,13.679697,-4.706318,0.684578,-0.026853,-0.056532,0.004467,0.290087,0.004382,-0.063338,0.003222,-0.055048,2.044098,0.192210,9.757519,2.543503,-6.555624,1,0,,38.990749,-76.937894,-5.860000,,,
2026-09-11T16:30:32.638,0.768654,0.745398,0.326386,6.901829,0.000000,16.847880,-5.796289,0.741587,-0.042458,-0.089385,0.002029,0.313917,0.003300,-0.133344,-0.004161,-0.087901,1.181701,0.144354,9.188439,2.491741,-6.460295,1,0,,38.990749,-76.937894,-5.860000,,,
2026-09-11T16:30:32.671,0.802069,0.774755,0.352180,7.173662,0.000000,20.329173,-6.993981,0.768990,-0.049390,-0.103980,-0.001201,0.339156,0.001775,-0.120920,-0.005079,-0.102496,1.827862,0.013925,9.304354,2.484369,-6.373653,1,0,,38.990749,-76.937894,-5.860000,,,
2026-09-11T16:30:32.705,0.835497,0.813628,0.379477,7.533596,0.000000,24.464152,-8.416566,0.804866,-0.066481,-0.139961,-0.005278,0.365454,-0.000248,-0.097950,-0.001596,-0.138477,1.398526,0.552311,9.788410,2.453962,-6.250717,1,0,,38.990749,-76.937894,-5.860000,,,
2026-09-11T16:30:32.738,0.868914,0.843087,0.407732,7.806363,0.000000,27.288326,-9.388185,0.831795,-0.070447,-0.148310,-0.010095,0.392782,-0.002747,-0.062664,0.014422,-0.146826,1.522090,-0.688623,9.486365,2.435782,-6.209391,1,0,,38.990749,-76.937894,-5.860000,,,
2026-09-11T16:30:32.772,0.902338,0.882120,0.437627,8.167781,0.000000,27.952998,-9.616857,0.869724,-0.078795,-0.165884,-0.015346,0.421183,-0.005604,0.016396,0.027965,-0.164401,2.126082,0.563686,10.738674,2.465312,-6.085527,1,0,,38.990749,-76.937894,-5.860000,,,
2026-09-11T16:30:32.805,0.935765,0.960000,0.469846,8.888893,0.000000,27.897380,-9.597723,0.946563,-0.079990,-0.168401,-0.020933,0.451486,-0.008812,0.029966,-0.018735,-0.166917,1.947012,1.558963,9.354662,2.492619,-5.897216,1,0,,38.990749,-76.937894,-5.860000,,,
2026-09-11T16:30:32.838,0.969180,0.989384,0.502886,9.160963,0.000000,27.886394,-9.593943,0.975546,-0.082024,-0.172681,-0.026632,0.483526,-0.012283,-0.008962,-0.006903,-0.171198,1.231421,0.317539,8.433621,2.476562,-5.791374,1,0,,38.990749,-76.937894,-5.860000,,,
2026-09-11T16:30:32.872,1.002600,1.038547,0.537748,9.616177,0.000000,27.858241,-9.584257,1.024051,-0.085240,-0.179454,-0.032516,0.516842,-0.016067,-0.078180,-0.023413,-0.177970,1.231617,0.899760,9.573154,2.464606,-5.647807,1,0,,38.990749,-76.937894,-5.860000,,,
2026-09-11T16:30:32.905,1.036026,1.058155,0.572975,9.797728,0.000000,27.886394,-9.593943,1.043355,-0.079091,-0.166506,-0.038298,0.551275,-0.020036,-0.081022,-0.025631,-0.165023,0.961542,0.274096,8.905615,2.438614,-5.547232,1,0,,38.990749,-76.937894,-5.860000,,,
2026-09-11T16:30:32.939,1.069443,1.087837,0.609251,10.072564,0.000000,27.671474,-9.520002,1.072855,-0.075602,-0.159161,-0.043739,0.586498,-0.024070,-0.098552,-0.018822,-0.157678,0.147786,-0.866712,9.826558,2.364162,-5.522259,1,0,,38.990749,-76.937894,-5.860000,,,
2026-09-11T16:30:32.972,1.102863,1.059146,0.644478,9.806903,0.000000,25.058101,-8.620906,1.047179,-0.065540,-0.137979,-0.048704,0.621777,-0.028062,-0.060665,-0.035002,-0.136496,0.373731,1.220340,9.988956,2.309875,-5.363438,1,0,,38.990749,-76.937894,-5.860000,,,
2026-09-11T16:30:33.006,1.136284,1.079334,0.680753,9.993835,0.000000,20.494655,-7.050913,1.071172,-0.052146,-0.109780,-0.052844,0.657031,-0.031823,-0.023220,0.004105,-0.108297,0.109834,-0.921727,9.350445,2.241392,-5.347546,1,0,,38.990749,-76.937894,-5.860000,,,
2026-09-11T16:30:33.039,1.169704,1.040879,0.715707,9.637766,0.000000,17.382091,-5.980077,1.035214,-0.044169,-0.092988,-0.056233,0.692089,-0.035348,-0.012483,0.013684,-0.091505,-1.301048,-1.618097,8.550614,2.087716,-5.378535,1,0,,38.990749,-76.937894,-5.860000,,,
2026-09-11T16:30:33.073,1.203142,1.070575,0.751982,9.912733,0.000000,15.453990,-5.316740,1.065969,-0.048701,-0.102529,-0.059502,0.727071,-0.038930,0.005589,0.017221,-0.101046,0.649887,2.983085,9.850584,2.069067,-5.108823,1,1,1.187064,38.990754,-76.937894,-5.848000,0.052288,0.633255,2.889731
2026-09-11T16:30:33.106,1.236564,1.051423,0.787118,9.735397,0.000000,10.771066,-3.705642,1.049225,-0.014029,-0.029535,-0.061709,0.762290,-0.042117,0.077301,0.005410,-0.028051,-0.065803,1.671347,11.262447,2.007303,-4.932742,1,0,,38.990754,-76.937894,-5.848000,,,
2026-09-11T16:30:33.139,1.269977,1.081233,0.823439,10.011421,0.000000,4.713480,-1.621610,1.080800,-0.000053,-0.000111,-0.062204,0.797791,-0.044556,0.075259,-0.014080,0.001373,-0.024419,1.123842,10.179989,1.951368,-4.796307,1,0,,38.990754,-76.937894,-5.848000,,,
2026-09-11T16:30:33.173,1.303391,1.081775,0.859167,10.016439,0.000000,1.394922,-0.479904,1.081737,0.013511,0.028445,-0.061730,0.833866,-0.046569,0.027469,0.005684,0.029928,-0.437279,-0.826995,9.641506,1.873036,-4.790198,1,0,,38.990754,-76.937894,-5.848000,,,
2026-09-11T16:30:33.206,1.336812,1.081855,0.895488,10.017173,0.000000,-1.822699,0.627075,1.081790,0.017322,0.036467,-0.060646,0.869984,-0.048265,0.007000,0.003066,0.037950,1.307128,-1.617509,7.701260,1.910131,-4.836114,1,0,,38.990754,-76.937894,-5.848000,,,
2026-09-11T16:30:33.239,1.370233,1.072245,0.931581,9.928195,0.000000,-2.147482,0.738813,1.072156,0.016060,0.033810,-0.059471,0.905945,-0.049869,-0.055956,0.089778,0.035294,1.120606,0.706667,12.845339,1.937110,-4.730220,1,0,,38.990754,-76.937894,-5.848000,,,
2026-09-11T16:30:33.273,1.403648,1.110954,0.968722,10.286609,0.000000,-2.446860,0.841809,1.110834,0.008529,0.017955,-0.058607,0.942379,-0.051611,-0.003055,0.023253,0.019439,0.920844,0.842391,10.560095,1.952532,-4.615651,1,0,,38.990754,-76.937894,-5.848000,,,
2026-09-11T16:30:33.307,1.437075,1.101567,1.006182,10.199697,0.000000,-2.588995,0.890709,1.101434,0.018953,0.039902,-0.057640,0.979318,-0.053300,-0.009399,-0.020589,0.041385,0.299593,2.763024,11.163008,1.927096,-4.379084,1,0,,38.990754,-76.937894,-5.848000,,,
2026-09-11T16:30:33.340,1.470493,1.111474,1.043232,10.291422,0.000000,-2.625387,0.903230,1.111336,0.011625,0.024474,-0.056564,1.016260,-0.054900,-0.051200,0.000428,0.025957,0.628508,2.354675,9.536771,1.925375,-4.170717,1,0,,38.990754,-76.937894,-5.848000,,,
2026-09-11T16:30:33.373,1.503910,1.131376,1.081330,10.475700,0.000000,-2.699545,0.928743,1.131227,0.011793,0.024827,-0.055740,1.053693,-0.056612,-0.089982,0.000148,0.026311,0.515438,-0.387657,9.843719,1.917246,-4.142836,1,0,,38.990754,-76.937894,-5.848000,,,
2026-09-11T16:30:33.407,1.537339,1.141535,1.119428,10.569773,0.000000,-2.699545,0.928743,1.141386,0.009000,0.018947,-0.055008,1.091639,-0.058367,-0.011546,0.013189,0.020431,-0.216335,2.516779,12.250075,1.863203,-3.926203,1,0,,38.990754,-76.937894,-5.848000,,,
2026-09-11T16:30:33.440,1.570757,1.122268,1.156843,10.391373,0.000000,-2.632940,0.905828,1.122128,0.005441,0.011455,-0.054500,1.129416,-0.060196,0.068311,0.018204,0.012939,0.246441,2.319861,9.220311,1.838578,-3.724320,1,0,,38.990754,-76.937894,-5.848000,,,
2026-09-11T16:30:33.474,1.604174,1.122476,1.194303,10.393294,0.000000,-2.588995,0.890709,1.122340,0.008660,0.018232,-0.054004,1.166876,-0.061994,0.045611,-0.008120,0.019715,0.255365,2.015365,9.145976,1.812922,-3.544980,1,0,,38.990754,-76.937894,-5.848000,,,
2026-09-11T16:30:33.507,1.637593,1.083686,1.230305,10.034130,0.000000,-2.676886,0.920947,1.083546,0.007244,0.015250,-0.053445,1.203696,-0.063709,0.043294,-0.015116,0.016734,-0.820817,-0.816011,9.742515,1.717785,-3.551095,1,0,,38.990754,-76.937894,-5.848000,,,
2026-09-11T16:30:33.540,1.671011,1.084299,1.266762,10.039808,0.000000,-2.632940,0.905828,1.084164,0.000187,0.000394,-0.053184,1.239872,-0.065515,0.054766,-0.011148,0.001878,0.246735,1.003711,10.771625,1.691120,-3.438035,1,0,,38.990754,-76.937894,-5.848000,,,
2026-09-11T16:30:33.574,1.704430,1.084640,1.302673,10.042958,0.000000,-0.787237,0.270839,1.084627,-0.003060,-0.006442,-0.053285,1.276057,-0.067491,0.006095,-0.008126,-0.004959,0.436788,1.331841,11.783377,1.675389,-3.304476,1,0,,38.990754,-76.937894,-5.848000,,,
2026-09-11T16:30:33.607,1.737858,1.065752,1.338401,9.868072,0.000000,2.383005,-0.819841,1.065643,-0.013985,-0.029442,-0.053884,1.311929,-0.069700,-0.028486,-0.012676,-0.027959,0.702254,-0.094242,9.569721,1.677792,-3.263319,1,0,,38.990754,-76.937894,-5.848000,,,
2026-09-11T16:30:33.640,1.771276,1.085935,1.374129,10.054951,0.000000,4.841196,-1.665549,1.085476,-0.016108,-0.033911,-0.054943,1.347792,-0.072157,-0.005539,-0.001121,-0.032428,0.864064,0.156906,9.355054,1.690726,-3.205991,1,0,,38.990754,-76.937894,-5.848000,,,
2026-09-11T16:30:33.674,1.804699,1.076556,1.410450,9.968114,0.000000,6.528284,-2.245969,1.075729,-0.026812,-0.056446,-0.056453,1.383813,-0.074884,-0.002319,-0.017790,-0.054963,0.563686,-0.895445,10.367198,1.681487,-3.216001,1,0,,38.990754,-76.937894,-5.848000,,,
2026-09-11T16:30:33.708,1.838117,1.106183,1.447409,10.242438,0.000000,7.651636,-2.632444,1.105016,-0.031854,-0.067060,-0.058517,1.420134,-0.077957,0.019670,0.000332,-0.065577,-0.160829,-0.774431,10.252166,1.622711,-3.217182,1,0,,38.990754,-76.937894,-5.848000,,,
2026-09-11T16:30:33.741,1.871540,1.096680,1.483730,10.154447,0.000000,8.463938,-2.911905,1.095264,-0.032077,-0.067531,-0.060766,1.456775,-0.081215,0.015726,-0.009634,-0.066047,0.739127,-0.098263,10.206369,1.619597,-3.174500,1,0,,38.990754,-76.937894,-5.848000,,,
2026-09-11T16:30:33.774,1.904959,1.136210,1.521828,10.520460,0.000000,9.908640,-3.408936,1.134199,-0.035873,-0.075523,-0.063156,1.493887,-0.084655,0.005561,-0.014675,-0.074039,0.430414,-0.606443,9.803708,1.592688,-3.164497,1,0,,38.990754,-76.937894,-5.848000,,,
2026-09-11T16:30:33.808,1.938407,1.155995,1.560382,10.703661,0.000000,13.687937,-4.709153,1.152093,-0.043474,-0.091525,-0.065950,1.531957,-0.088446,-0.045598,-0.014960,-0.090041,1.033229,0.835429,11.132215,1.603951,-3.059728,1,0,,38.990754,-76.937894,-5.848000,,,
2026-09-11T16:30:33.841,1.971828,1.165697,1.599164,10.793486,0.000000,15.428583,-5.307999,1.160698,-0.043359,-0.091283,-0.069005,1.570419,-0.092500,-0.071678,-0.017386,-0.089799,0.370495,1.088342,9.522552,1.569038,-2.939783,1,0,,38.990754,-76.937894,-5.848000,,,
2026-09-11T16:30:33.875,2.005248,1.175259,1.638674,10.882028,0.000000,15.405924,-5.300203,1.170234,-0.039930,-0.084062,-0.071935,1.609175,-0.096631,-0.012063,-0.005989,-0.082579,0.776883,0.619486,9.952279,1.557229,-2.852073,1,0,,38.990754,-76.937894,-5.848000,,,
2026-09-11T16:30:33.908,2.038668,1.194702,1.678641,11.062059,0.000000,15.348246,-5.280360,1.189632,-0.033638,-0.070817,-0.074523,1.648413,-0.100743,-0.008615,0.018280,-0.069333,0.252129,-0.014906,10.029261,1.508043,-2.807386,1,0,,38.990754,-76.937894,-5.848000,,,
2026-09-11T16:30:33.941,2.072084,1.204700,1.718744,11.154627,0.000000,13.499796,-4.644425,1.200744,-0.030573,-0.064365,-0.076781,1.688156,-0.104832,0.074120,-0.019313,-0.062882,1.256428,1.291045,8.287894,1.520854,-2.679007,1,0,,38.990754,-76.937894,-5.848000,,,
2026-09-11T16:30:33.975,2.105504,1.214802,1.759258,11.248167,0.000000,11.012766,-3.788796,1.212147,-0.016971,-0.035728,-0.078454,1.728292,-0.108750,0.108902,-0.018204,-0.034245,1.191704,-0.331759,9.627287,1.524284,-2.659438,1,0,,38.990754,-76.937894,-5.848000,,,
2026-09-11T16:30:34.008,2.138921,1.215261,1.800227,11.252415,0.000000,9.131357,-3.141522,1.213434,-0.013186,-0.027761,-0.079515,1.768654,-0.112450,0.069997,-0.030811,-0.026277,0.920746,0.613210,7.952997,1.506303,-2.579466,1,0,,38.990754,-76.937894,-5.848000,,,
2026-09-11T16:30:34.042,2.172334,1.234969,1.841333,11.434899,0.000000,8.858072,-3.047502,1.233223,-0.012455,-0.026222,-0.080417,1.809364,-0.116142,0.058106,-0.021486,-0.024738,1.085106,0.897505,9.819007,1.500302,-2.482064,1,0,,38.990754,-76.937894,-5.848000,,,
2026-09-11T16:30:34.075,2.205752,1.234876,1.882940,11.434040,0.000000,8.858072,-3.047502,1.233130,-0.018913,-0.039817,-0.081520,1.850397,-0.119998,0.036072,0.020896,-0.038333,0.994885,-1.506400,8.547182,1.487722,-2.540428,1,1,2.179355,38.990764,-76.937893,-5.769000,0.157295,1.759289,2.890731
2026-09-11T16:30:34.108,2.239174,1.264341,1.925686,11.706859,0.000000,9.311258,-3.203414,1.262365,-0.034101,-0.071792,-0.083385,1.891884,-0.124316,-0.009519,-0.003952,-0.070309,1.561317,2.524624,10.111539,1.508889,-2.334215,1,0,,38.990764,-76.937893,-5.769000,,,
2026-09-11T16:30:34.142,2.272591,1.293687,1.968979,11.978582,0.000000,12.535745,-4.312756,1.290024,-0.036110,-0.076021,-0.085855,1.934279,-0.129090,-0.058758,-0.065144,-0.074537,-0.069823,-0.075119,13.037255,1.423274,-2.298296,1,0,,38.990764,-76.937893,-5.769000,,,
2026-09-11T16:30:34.175,2.306006,1.332912,2.013594,12.341777,0.000000,16.255304,-5.592421,1.326568,-0.057830,-0.121748,-0.089159,1.977690,-0.134475,-0.110800,0.030857,-0.120264,0.958404,-1.468546,7.218479,1.408031,-2.348943,1,0,,38.990764,-76.937893,-5.769000,,,
2026-09-11T16:30:34.209,2.339426,1.372186,2.059668,12.705426,0.000000,16.162607,-5.560530,1.365729,-0.068595,-0.144410,-0.093607,2.022297,-0.140685,-0.100897,-0.054848,-0.142927,1.377736,0.635961,7.488652,1.421888,-2.260358,1,0,,38.990764,-76.937893,-5.769000,,,
2026-09-11T16:30:34.242,2.372841,1.431157,2.107746,13.251452,0.000000,16.453745,-5.660692,1.424178,-0.077968,-0.164144,-0.098762,2.068458,-0.147602,-0.027343,-0.021474,-0.162661,2.966512,1.980551,16.016515,1.537085,-2.083309,1,0,,38.990764,-76.937893,-5.769000,,,
2026-09-11T16:30:34.276,2.406260,1.460784,2.156599,13.525776,0.000000,16.197626,-5.572578,1.453880,-0.074727,-0.157320,-0.104133,2.116044,-0.155012,0.051253,0.007690,-0.155836,1.927105,0.287923,12.825922,1.582416,-2.018194,1,0,,38.990764,-76.937893,-5.769000,,,
2026-09-11T16:30:34.309,2.439674,1.470691,2.205908,13.617506,0.000000,16.442759,-5.656912,1.463528,-0.074330,-0.156484,-0.109376,2.164242,-0.162682,0.095059,-0.018242,-0.155001,1.347630,1.462073,7.912398,1.589836,-1.877753,1,0,,38.990764,-76.937893,-5.769000,,,
2026-09-11T16:30:34.342,2.473088,1.500233,2.256584,13.891043,0.000000,16.545069,-5.692111,1.492835,-0.075905,-0.159799,-0.114660,2.213043,-0.170698,0.113429,0.033645,-0.158316,0.570355,-1.118743,9.954142,1.546937,-1.905393,1,0,,38.990764,-76.937893,-5.769000,,,
2026-09-11T16:30:34.376,2.506511,1.539317,2.308490,14.252940,0.000000,18.734781,-6.445452,1.529588,-0.091347,-0.192310,-0.120544,2.262874,-0.179402,0.003578,-0.007356,-0.190827,0.575160,-0.562706,10.927844,1.509027,-1.893115,1,0,,38.990764,-76.937893,-5.769000,,,
2026-09-11T16:30:34.409,2.539918,1.549120,2.360397,14.343699,0.000000,22.584803,-7.770001,1.534897,-0.101360,-0.213390,-0.127321,2.313271,-0.188924,-0.052822,0.051465,-0.211907,0.886913,-2.434403,9.769287,1.499482,-2.000011,1,0,,38.990764,-76.937893,-5.769000,,,
2026-09-11T16:30:34.442,2.573331,1.539456,2.411984,14.254225,0.000000,28.574413,-9.830647,1.516852,-0.122921,-0.258780,-0.135209,2.363323,-0.199311,-0.108516,0.014120,-0.257297,-0.014318,-2.223462,8.319864,1.440812,-2.087876,1,0,,38.990764,-76.937893,-5.769000,,,
2026-09-11T16:30:34.476,2.606748,1.559181,2.464984,14.436859,0.000000,32.178615,-11.070624,1.530166,-0.154076,-0.324370,-0.144953,2.413087,-0.211003,-0.090326,0.040080,-0.322887,-0.146119,-1.812171,9.946395,1.384326,-2.141419,1,0,,38.990764,-76.937893,-5.769000,,,
2026-09-11T16:30:34.509,2.640171,1.588784,2.517711,14.710966,0.000000,35.938000,-12.363991,1.551936,-0.170885,-0.359757,-0.156386,2.463192,-0.224104,-0.101473,0.011444,-0.358274,1.322231,3.277775,9.291997,1.433146,-1.860610,1,0,,38.990764,-76.937893,-5.769000,,,
2026-09-11T16:30:34.543,2.673589,1.617960,2.571850,14.981114,0.000000,40.387463,-13.894769,1.570616,-0.184704,-0.388850,-0.168894,2.513713,-0.238417,-0.063174,-0.013360,-0.387367,0.266054,1.708318,10.150471,1.419817,-1.681252,1,0,,38.990764,-76.937893,-5.769000,,,
2026-09-11T16:30:34.577,2.707013,1.618263,2.625853,14.983916,0.000000,41.069989,-14.129583,1.569304,-0.190962,-0.402025,-0.182111,2.564284,-0.253760,-0.006881,0.009131,-0.400541,0.474446,1.285554,10.297669,1.424409,-1.529943,1,0,,38.990764,-76.937893,-5.769000,,,
2026-09-11T16:30:34.609,2.740428,1.647801,2.680721,15.257419,0.000000,41.098141,-14.139269,1.597881,-0.185788,-0.391133,-0.195363,2.615078,-0.269874,-0.045096,-0.024067,-0.389650,0.720691,-1.406274,7.956331,1.450956,-1.555026,1,0,,38.990764,-76.937893,-5.769000,,,
2026-09-11T16:30:34.643,2.773841,1.609595,2.734451,14.903661,0.000000,41.023984,-14.113756,1.561007,-0.188501,-0.396844,-0.208528,2.665525,-0.286581,-0.128021,-0.010137,-0.395361,-0.263407,-1.140710,8.021938,1.417926,-1.562994,1,0,,38.990764,-76.937893,-5.769000,,,
2026-09-11T16:30:34.677,2.807264,1.590868,2.788043,14.730263,0.000000,41.242337,-14.188877,1.542336,-0.191648,-0.403469,-0.221902,2.714832,-0.303860,-0.047762,0.045614,-0.401985,1.443147,-4.249025,10.239418,1.494315,-1.772007,1,0,,38.990764,-76.937893,-5.769000,,,
2026-09-11T16:30:34.710,2.840690,1.543003,2.840132,14.287064,0.000000,41.619992,-14.318805,1.495069,-0.202210,-0.425705,-0.235760,2.762779,-0.321780,-0.032045,-0.028552,-0.424221,-0.221532,-1.677231,8.115003,1.460171,-1.811231,1,0,,38.990764,-76.937893,-5.769000,,,
2026-09-11T16:30:34.743,2.874104,1.533866,2.891993,14.202467,0.000000,42.570996,-14.645985,1.484026,-0.203830,-0.429116,-0.250041,2.809456,-0.340334,-0.006855,0.000731,-0.427633,-1.756469,0.129742,8.214442,1.328762,-1.732972,1,0,,38.990764,-76.937893,-5.769000,,,
2026-09-11T16:30:34.776,2.907526,1.485993,2.940755,13.759195,0.000000,43.445782,-14.946943,1.435715,-0.191620,-0.403411,-0.263954,2.854967,-0.359121,0.061916,-0.047021,-0.401927,1.065689,-2.604940,7.125708,1.382547,-1.836421,1,0,,38.990764,-76.937893,-5.769000,,,
2026-09-11T16:30:34.810,2.940940,1.466431,2.989289,13.578067,0.000000,43.085293,-14.822922,1.417630,-0.188778,-0.397427,-0.277333,2.899203,-0.377988,0.022166,-0.019932,-0.395943,1.214946,-0.064920,9.510784,1.443620,-1.775239,1,0,,38.990764,-76.937893,-5.769000,,,
2026-09-11T16:30:34.844,2.974352,1.456808,3.038233,13.488959,0.000000,42.954144,-14.777802,1.408620,-0.196429,-0.413535,-0.290881,2.942722,-0.397399,0.042582,-0.033014,-0.412051,-1.184741,1.273884,9.887163,1.348604,-1.626819,1,0,,38.990764,-76.937893,-5.769000,,,
2026-09-11T16:30:34.877,3.007778,1.437627,3.086266,13.311363,0.000000,42.959637,-14.779692,1.390062,-0.182160,-0.383495,-0.304202,2.985587,-0.417159,0.054327,-0.065428,-0.382011,-0.868575,0.373143,11.934693,1.273199,-1.541540,1,0,,38.990764,-76.937893,-5.769000,,,
2026-09-11T16:30:34.910,3.041192,1.428246,3.133706,13.224504,0.000000,42.766690,-14.713311,1.381413,-0.180155,-0.379273,-0.316946,3.027824,-0.437072,0.014323,-0.035113,-0.377790,0.921923,0.208489,10.169888,1.309713,-1.468492,1,0,,38.990764,-76.937893,-5.769000,,,
2026-09-11T16:30:34.943,3.074602,1.447969,3.182240,13.407119,0.000000,42.554516,-14.640315,1.400956,-0.167253,-0.352112,-0.329163,3.070057,-0.457332,0.001007,-0.037927,-0.350628,0.827093,1.373519,7.019600,1.333544,-1.322839,1,0,,38.990764,-76.937893,-5.769000,,,
2026-09-11T16:30:34.978,3.108026,1.448234,3.231139,13.409573,0.000000,40.988278,-14.101472,1.404592,-0.157622,-0.331836,-0.340594,3.112554,-0.477870,-0.033950,-0.032034,-0.330353,1.132080,0.535933,9.548441,1.372400,-1.234746,1,0,,38.990764,-76.937893,-5.769000,,,
2026-09-11T16:30:35.010,3.141442,1.448778,3.279399,13.414608,0.000000,39.356122,-13.539950,1.408512,-0.146476,-0.308370,-0.351290,3.155049,-0.498587,-0.080010,0.003667,-0.306887,-0.220650,-2.316429,9.904913,1.320178,-1.334357,1,0,,38.990764,-76.937893,-5.769000,,,
2026-09-11T16:30:35.044,3.174855,1.468518,3.328982,13.597386,0.000000,37.642941,-12.950553,1.431164,-0.138417,-0.291403,-0.361310,3.197850,-0.519598,-0.094167,-0.044023,-0.289920,1.208964,-0.222611,9.255222,1.355570,-1.298441,1,0,,38.990764,-76.937893,-5.769000,,,
2026-09-11T16:30:35.078,3.208384,1.488236,3.378837,13.779964,0.000000,36.097989,-12.419033,1.453413,-0.131531,-0.276908,-0.370838,3.241382,-0.541134,-0.081175,-0.019129,-0.275424,1.243974,-0.797085,9.493524,1.388833,-1.301062,1,1,3.182672,38.990777,-76.937888,-5.843000,0.579054,3.118091,3.047719
2026-09-11T16:30:35.111,3.241800,1.488861,3.428328,13.785748,0.000000,34.193921,-11.763964,1.457589,-0.129479,-0.272588,-0.380019,3.285032,-0.563026,-0.070383,-0.028209,-0.271104,0.555449,-3.470966,10.581964,1.372962,-1.477087,1,0,,38.990777,-76.937888,-5.843000,,,
2026-09-11T16:30:35.145,3.275214,1.499143,3.478366,13.880957,0.000000,30.223050,-10.397838,1.474525,-0.109861,-0.231287,-0.388437,3.328949,-0.585097,-0.000199,0.000767,-0.229804,-0.056388,-2.372523,8.794310,1.314193,-1.583699,1,0,,38.990777,-76.937888,-5.843000,,,
2026-09-11T16:30:35.178,3.308643,1.499840,3.528495,13.887408,0.000000,28.183713,-9.696231,1.478414,-0.104477,-0.219951,-0.395979,3.373189,-0.607273,0.077264,-0.069168,-0.218468,1.028914,-0.433846,9.093805,1.322814,-1.564629,1,0,,38.990777,-76.937888,-5.843000,,,
2026-09-11T16:30:35.211,3.342068,1.519568,3.578898,14.070078,0.000000,24.223828,-8.333886,1.503522,-0.091429,-0.192482,-0.402872,3.417828,-0.629672,0.099281,0.001398,-0.190998,1.057745,1.727343,8.866585,1.327274,-1.408126,1,0,,38.990777,-76.937888,-5.843000,,,
2026-09-11T16:30:35.244,3.375483,1.500576,3.629164,13.894226,0.000000,20.295529,-6.982407,1.489447,-0.085703,-0.180428,-0.409102,3.462601,-0.652138,0.015484,-0.024418,-0.178944,-0.401386,-0.881029,8.916304,1.230836,-1.423615,1,0,,38.990777,-76.937888,-5.843000,,,
2026-09-11T16:30:35.278,3.408907,1.500760,3.679612,13.895930,0.000000,19.404950,-6.676015,1.490584,-0.083893,-0.176617,-0.415069,3.507098,-0.674682,-0.000569,-0.013225,-0.175134,-0.139352,0.784630,9.516373,1.149229,-1.331431,1,0,,38.990777,-76.937888,-5.843000,,,
2026-09-11T16:30:35.311,3.442317,1.520206,3.730652,14.075981,0.000000,19.523739,-6.716883,1.509772,-0.092592,-0.194931,-0.421276,3.551702,-0.697730,-0.010681,-0.024023,-0.193447,0.517693,1.268882,10.531558,1.111026,-1.206961,1,0,,38.990777,-76.937888,-5.843000,,,
2026-09-11T16:30:35.345,3.475732,1.539810,3.782194,14.257497,0.000000,21.369443,-7.351872,1.527151,-0.096319,-0.202777,-0.427921,3.596635,-0.721509,-0.048576,-0.025181,-0.201293,1.408921,-0.761290,9.870786,1.132172,-1.214276,1,0,,38.990777,-76.937888,-5.843000,,,
2026-09-11T16:30:35.378,3.509160,1.559413,3.834465,14.439013,0.000000,23.027005,-7.922135,1.544531,-0.105813,-0.222765,-0.435033,3.641855,-0.746050,-0.064905,0.001162,-0.221281,1.010183,-1.213769,10.038774,1.129283,-1.248586,1,0,,38.990777,-76.937888,-5.843000,,,
2026-09-11T16:30:35.411,3.542573,1.569423,3.886964,14.531695,0.000000,23.945737,-8.238212,1.553228,-0.116553,-0.245375,-0.442854,3.687122,-0.771407,-0.065831,0.025389,-0.243892,1.141886,1.203374,9.007997,1.139982,-1.123646,1,0,,38.990777,-76.937888,-5.843000,,,
2026-09-11T16:30:35.445,3.575982,1.628030,3.941787,15.074356,0.000000,24.261593,-8.346878,1.610785,-0.118882,-0.250277,-0.451134,3.733081,-0.797803,-0.021431,0.012179,-0.248794,2.028211,1.653793,10.394951,1.213582,-0.969541,1,0,,38.990777,-76.937888,-5.843000,,,
2026-09-11T16:30:35.478,3.609410,1.686388,3.998205,15.614707,0.000000,24.543805,-8.443970,1.668108,-0.134809,-0.283809,-0.460060,3.780424,-0.825726,-0.008765,-0.072223,-0.282325,2.881880,0.216923,12.024424,1.341920,-0.905551,1,0,,38.990777,-76.937888,-5.843000,,,
2026-09-11T16:30:35.512,3.642830,1.735336,4.056172,16.067930,0.000000,24.742245,-8.512240,1.716220,-0.139684,-0.294072,-0.469717,3.828917,-0.855184,0.063595,-0.018452,-0.292588,2.325157,0.745403,12.667544,1.431399,-0.806052,1,0,,38.990777,-76.937888,-5.843000,,,
2026-09-11T16:30:35.545,3.676251,1.764736,4.115279,16.340152,0.000000,25.481763,-8.766661,1.744119,-0.136145,-0.286622,-0.479420,3.878242,-0.885708,0.012577,-0.022942,-0.285138,1.421376,-2.342515,8.739785,1.465191,-0.907845,1,0,,38.990777,-76.937888,-5.843000,,,
2026-09-11T16:30:35.578,3.709679,1.784940,4.174933,16.527219,0.000000,26.491131,-9.113921,1.762405,-0.142827,-0.300689,-0.489237,3.927937,-0.917124,0.002115,0.036654,-0.299205,0.272919,0.004315,9.072328,1.431505,-0.854645,1,0,,38.990777,-76.937888,-5.843000,,,
2026-09-11T16:30:35.612,3.743092,1.775574,4.234678,16.440496,0.000000,27.133145,-9.334798,1.752060,-0.141489,-0.297871,-0.499237,3.977372,-0.949156,0.019478,-0.040067,-0.296387,0.054231,-1.466977,7.752941,1.389956,-0.897796,1,0,,38.990777,-76.937888,-5.843000,,,
2026-09-11T16:30:35.646,3.776507,1.776174,4.293784,16.446051,0.000000,27.431836,-9.437558,1.752133,-0.142331,-0.299644,-0.509220,4.026340,-0.981593,0.003579,0.022813,-0.298160,-0.836703,2.499911,9.949533,1.296502,-0.683544,1,0,,38.990777,-76.937888,-5.843000,,,
2026-09-11T16:30:35.679,3.809931,1.718405,4.351342,15.911160,0.000000,27.527279,-9.470394,1.694985,-0.137933,-0.290386,-0.519080,4.074199,-1.013998,-0.005167,0.007745,-0.288902,-0.133959,0.171813,7.454231,1.259468,-0.624441,1,0,,38.990777,-76.937888,-5.843000,,,
2026-09-11T16:30:35.712,3.843354,1.718483,4.408808,15.911877,0.000000,28.019604,-9.639772,1.694218,-0.148191,-0.311982,-0.529147,4.120840,-1.046481,-0.070305,-0.058048,-0.310498,1.214946,2.348399,10.496646,1.320836,-0.422768,1,0,,38.990777,-76.937888,-5.843000,,,
2026-09-11T16:30:35.746,3.876774,1.728045,4.466547,16.000418,0.000000,28.270917,-9.726233,1.703207,-0.153216,-0.322560,-0.539750,4.167128,-1.079733,-0.101434,-0.044637,-0.321076,0.442476,-1.874247,10.390636,1.339587,-0.495284,1,0,,38.990777,-76.937888,-5.843000,,,
2026-09-11T16:30:35.779,3.910200,1.728285,4.524560,16.002636,0.000000,28.999447,-9.976874,1.702149,-0.150172,-0.316153,-0.550425,4.213165,-1.113578,-0.101084,0.006626,-0.314669,-1.006849,-0.255267,5.486134,1.272217,-0.462939,1,0,,38.990777,-76.937888,-5.843000,,,
2026-09-11T16:30:35.812,3.943625,1.690004,4.581024,15.648182,0.000000,29.408688,-10.117668,1.663722,-0.145474,-0.306262,-0.560827,4.258350,-1.147444,0.025866,-0.023582,-0.304778,-4.986387,0.874557,-4.311984,0.953164,-0.359678,1,0,,38.990777,-76.937888,-5.843000,,,
2026-09-11T16:30:35.846,3.977037,1.651683,4.635984,15.293358,0.000000,29.754758,-10.236729,1.625391,-0.139072,-0.292783,-0.570834,4.302187,-1.180912,0.030961,0.007751,-0.291299,-1.603191,-1.515912,8.785091,0.856077,-0.414442,1,0,,38.990777,-76.937888,-5.843000,,,
2026-09-11T16:30:35.879,4.010462,1.632876,4.690624,15.119226,0.000000,29.760251,-10.238618,1.606875,-0.149717,-0.315194,-0.580995,4.344863,-1.214376,0.074988,-0.008014,-0.313711,-0.822680,-1.085008,8.673492,0.808659,-0.438750,1,0,,38.990777,-76.937888,-5.843000,,,
2026-09-11T16:30:35.913,4.043876,1.594423,4.743579,14.763177,0.000000,29.975857,-10.312795,1.568665,-0.144248,-0.303681,-0.591335,4.386346,-1.247813,0.080290,0.068172,-0.302197,-0.049720,-2.231699,13.377546,0.807684,-0.538930,1,0,,38.990777,-76.937888,-5.843000,,,
2026-09-11T16:30:35.946,4.077285,1.546429,4.795668,14.318789,0.000000,30.584225,-10.522096,1.520425,-0.144589,-0.304397,-0.601492,4.426330,-1.280784,0.060814,0.038309,-0.302914,-0.210745,-2.852362,7.315565,0.789663,-0.679021,1,0,,38.990777,-76.937888,-5.843000,,,
2026-09-11T16:30:35.980,4.110736,1.547213,4.847620,14.326046,0.000000,31.429486,-10.812897,1.519742,-0.149427,-0.314582,-0.611845,4.465301,-1.313815,0.003387,-0.066764,-0.313099,-0.233006,1.585833,8.643680,0.767783,-0.529233,1,0,,38.990777,-76.937888,-5.843000,,,
2026-09-11T16:30:36.013,4.144146,1.528490,4.898569,14.152684,0.000000,32.079739,-11.036608,1.500221,-0.148321,-0.312254,-0.622316,4.503567,-1.347061,-0.026282,0.014538,-0.310771,-1.067454,0.938693,9.332204,0.691275,-0.423790,1,0,,38.990777,-76.937888,-5.843000,,,
2026-09-11T16:30:36.047,4.177561,1.499785,4.948197,13.886897,0.000000,32.171750,-11.068263,1.471888,-0.137349,-0.289156,-0.632365,4.540969,-1.380072,-0.031853,0.096269,-0.287672,-0.271840,-2.122551,5.871732,0.663202,-0.520361,1,1,4.182789,38.990788,-76.937877,-5.966000,1.478028,4.370517,3.717699
2026-09-11T16:30:36.080,4.210986,1.490543,4.998235,13.801323,0.000000,31.996655,-11.008024,1.463118,-0.148091,-0.311770,-0.642408,4.577549,-1.413094,-0.096054,-0.020350,-0.310286,1.012831,-0.466012,8.603865,0.711714,-0.506687,1,0,,38.990788,-76.937877,-5.966000,,,
2026-09-11T16:30:36.113,4.244401,1.520148,5.048546,14.075448,0.000000,31.818127,-10.946603,1.492489,-0.141491,-0.297877,-0.652593,4.614015,-1.446741,-0.058384,0.023766,-0.296393,0.281843,-9.767620,15.284645,0.709102,-1.095888,1,0,,38.990788,-76.937877,-5.966000,,,
2026-09-11T16:30:36.147,4.277815,1.510794,5.099222,13.988831,0.000000,32.133298,-11.055034,1.482759,-0.147682,-0.310909,-0.662764,4.650401,-1.480949,-0.046389,0.075819,-0.309426,0.302045,0.085024,9.171571,0.707433,-1.039859,1,0,,38.990788,-76.937877,-5.966000,,,
2026-09-11T16:30:36.180,4.311240,1.530257,5.150536,14.169045,0.000000,33.319134,-11.463005,1.499733,-0.151417,-0.318772,-0.673288,4.686434,-1.515750,-0.151752,-0.068564,-0.317288,0.693820,0.265270,8.114513,0.725604,-0.971660,1,0,,38.990788,-76.937877,-5.966000,,,
2026-09-11T16:30:36.214,4.344661,1.559805,5.202670,14.442635,0.000000,34.021573,-11.704670,1.527370,-0.140318,-0.295407,-0.683551,4.722756,-1.551292,-0.060344,0.009668,-0.293923,0.972231,-1.324388,6.501221,0.755213,-1.008872,1,0,,38.990788,-76.937877,-5.966000,,,
2026-09-11T16:30:36.247,4.378075,1.579970,5.255351,14.629353,0.000000,33.546414,-11.541197,1.548025,-0.170059,-0.358019,-0.694468,4.759115,-1.587960,-0.058741,0.063810,-0.356536,2.071263,3.631501,19.869744,0.854722,-0.718261,1,0,,38.990788,-76.937877,-5.966000,,,
2026-09-11T16:30:36.281,4.411502,1.580381,5.308078,14.633160,0.000000,33.218884,-11.428515,1.549047,-0.131159,-0.276124,-0.705067,4.795473,-1.625150,-0.012283,0.206185,-0.274641,1.124823,-4.580490,4.667573,0.893299,-0.970611,1,0,,38.990788,-76.937877,-5.966000,,,
2026-09-11T16:30:36.314,4.444923,1.600411,5.361169,14.818618,0.000000,32.975812,-11.344889,1.569140,-0.145352,-0.306004,-0.714794,4.831977,-1.662617,-0.219442,0.098534,-0.304521,3.480772,2.916105,8.643581,1.085974,-0.731467,1,0,,38.990788,-76.937877,-5.966000,,,
2026-09-11T16:30:36.347,4.478390,1.610256,5.415856,14.909778,0.000000,32.637982,-11.228664,1.579432,-0.148487,-0.312605,-0.725145,4.868344,-1.701052,-0.187061,0.073542,-0.311122,0.202900,-1.659776,9.834011,1.067355,-0.790371,1,0,,38.990788,-76.937877,-5.966000,,,
2026-09-11T16:30:36.382,4.511812,1.591438,5.469266,14.735537,0.000000,31.798901,-10.939989,1.562516,-0.135445,-0.285148,-0.735135,4.904302,-1.739607,-0.109419,0.103816,-0.283665,-0.907213,2.571892,8.976909,0.978951,-0.577752,1,0,,38.990788,-76.937877,-5.966000,,,
2026-09-11T16:30:36.415,4.545232,1.553082,5.521172,14.380385,0.000000,29.486279,-10.144362,1.528802,-0.114213,-0.240449,-0.743917,4.939656,-1.777501,-0.064395,0.077204,-0.238965,0.277430,0.145629,16.277862,0.970694,-0.529590,1,0,,38.990788,-76.937877,-5.966000,,,
2026-09-11T16:30:36.447,4.578640,1.582901,5.574309,14.656490,0.000000,27.079587,-9.316372,1.562022,-0.121789,-0.256397,-0.752217,4.974816,-1.815511,0.019652,0.001706,-0.254914,1.508949,2.154031,9.834795,1.048441,-0.349921,1,0,,38.990788,-76.937877,-5.966000,,,
2026-09-11T16:30:36.481,4.612059,1.592986,5.627583,14.749869,0.000000,22.257275,-7.657319,1.578781,-0.086913,-0.182974,-0.759558,5.010613,-1.854048,-0.012332,-0.000399,-0.181490,0.772274,-0.661360,10.157434,1.082767,-0.361605,1,0,,38.990788,-76.937877,-5.966000,,,
2026-09-11T16:30:36.515,4.645477,1.564354,5.680173,14.484762,0.000000,16.936459,-5.826763,1.556272,-0.076300,-0.160633,-0.765300,5.046612,-1.892201,0.040492,-0.003360,-0.159149,-0.971937,0.366082,9.542949,1.007095,-0.309188,1,0,,38.990788,-76.937877,-5.966000,,,
2026-09-11T16:30:36.548,4.678878,1.516275,5.730530,14.039587,0.000000,16.672101,-5.735814,1.508684,-0.054925,-0.115631,-0.769913,5.081925,-1.929321,-0.093823,-0.030592,-0.114148,1.244758,2.213361,8.200615,1.078529,-0.142792,1,0,,38.990788,-76.937877,-5.966000,,,
2026-09-11T16:30:36.581,4.712285,1.497016,5.780841,13.861260,0.000000,16.736645,-5.758020,1.489463,-0.053594,-0.112830,-0.773730,5.116550,-1.965548,-0.017375,-0.002921,-0.111346,-0.823268,-3.819396,9.839404,1.017931,-0.368869,1,0,,38.990788,-76.937877,-5.966000,,,
2026-09-11T16:30:36.614,4.745688,1.487214,5.830925,13.770504,0.000000,16.548504,-5.693293,1.479878,-0.055838,-0.117554,-0.777577,5.150677,-2.001576,-0.089614,-0.022487,-0.116070,0.345390,-1.178563,9.807925,1.035064,-0.421225,1,0,,38.990788,-76.937877,-5.966000,,,
2026-09-11T16:30:36.648,4.779094,1.487195,5.880552,13.770321,0.000000,16.744885,-5.760855,1.479684,-0.068511,-0.144234,-0.781950,5.184368,-2.037810,-0.049357,-0.042240,-0.142750,0.203292,2.298875,8.104314,1.039431,-0.245504,1,0,,38.990788,-76.937877,-5.966000,,,
2026-09-11T16:30:36.681,4.812509,1.458821,5.929405,13.507606,0.000000,18.725171,-6.442146,1.449610,-0.082170,-0.172989,-0.787250,5.217224,-2.074169,-0.070368,0.009977,-0.171506,-0.522302,-1.533270,9.945022,0.993543,-0.317225,1,0,,38.990788,-76.937877,-5.966000,,,
2026-09-11T16:30:36.715,4.845924,1.439736,5.977438,13.330890,0.000000,20.528302,-7.062489,1.428812,-0.091830,-0.193327,-0.793370,5.248997,-2.110385,0.003409,0.018046,-0.191843,-0.621055,-0.078551,10.658848,0.942613,-0.292377,1,0,,38.990788,-76.937877,-5.966000,,,
2026-09-11T16:30:36.748,4.879331,1.430271,6.024696,13.243249,0.000000,21.405148,-7.364156,1.418473,-0.096498,-0.203153,-0.799993,5.279996,-2.146591,0.046859,0.060984,-0.201669,0.859063,-1.404214,10.703959,0.987328,-0.352795,1,0,,38.990788,-76.937877,-5.966000,,,
2026-09-11T16:30:36.781,4.912741,1.411249,6.071590,13.067119,0.000000,22.367825,-7.695353,1.398539,-0.080598,-0.169679,-0.806221,5.310549,-2.182504,0.027076,0.041230,-0.168195,0.464835,0.090319,9.601593,1.001601,-0.319151,1,0,,38.990788,-76.937877,-5.966000,,,
2026-09-11T16:30:36.815,4.946146,1.411743,6.118893,13.071697,0.000000,23.653226,-8.137578,1.397529,-0.101672,-0.214047,-0.812630,5.340564,-2.218410,0.168249,0.132735,-0.212564,1.561905,-0.355001,12.298520,1.081810,-0.310690,1,0,,38.990788,-76.937877,-5.966000,,,
2026-09-11T16:30:36.849,4.979562,1.402574,6.166379,12.986800,0.000000,24.175076,-8.317113,1.387823,-0.111328,-0.234375,-0.820122,5.369842,-2.254756,0.175992,0.102222,-0.232891,-0.264289,2.058514,14.033709,1.039763,-0.144463,1,0,,38.990788,-76.937877,-5.966000,,,
2026-09-11T16:30:36.882,5.012981,1.383752,6.212498,12.812517,0.000000,23.998608,-8.256402,1.369410,-0.087990,-0.185242,-0.827134,5.398710,-2.290819,0.168005,0.029042,-0.183758,0.432473,0.233889,8.113042,1.039545,-0.102770,1,0,,38.990788,-76.937877,-5.966000,,,
2026-09-11T16:30:36.915,5.046383,1.403818,6.259300,12.998315,0.000000,23.874325,-8.213644,1.389418,-0.093227,-0.196268,-0.833506,5.427559,-2.326871,0.100303,-0.064398,-0.194785,1.140611,-1.651832,8.651525,1.078189,-0.182290,1,0,,38.990788,-76.937877,-5.966000,,,
2026-09-11T16:30:36.948,5.079783,1.433366,6.307105,13.271906,0.000000,23.911404,-8.226401,1.418617,-0.103025,-0.216895,-0.840405,5.456530,-2.363891,-0.009646,-0.002264,-0.215411,-0.425707,-4.360723,11.685310,1.003559,-0.433869,1,0,,38.990788,-76.937877,-5.966000,,,
2026-09-11T16:30:36.982,5.113191,1.443627,6.355138,13.366912,0.000000,25.775647,-8.867768,1.426370,-0.109157,-0.229805,-0.847867,5.485453,-2.401764,-0.094453,-0.041337,-0.228322,0.748345,0.542014,7.713421,0.994374,-0.364254,1,0,,38.990788,-76.937877,-5.966000,,,
2026-09-11T16:30:37.016,5.146607,1.444082,6.403399,13.371127,0.000000,27.296567,-9.391021,1.424728,-0.114531,-0.241117,-0.855735,5.514014,-2.440069,-0.140825,-0.018091,-0.239634,0.624684,-0.345782,10.594713,0.969075,-0.351821,1,0,,38.990788,-76.937877,-5.966000,,,
2026-09-11T16:30:37.048,5.180008,1.444521,6.451477,13.375195,0.000000,27.584958,-9.490238,1.424751,-0.113285,-0.238494,-0.863745,5.542189,-2.478607,-0.128592,-0.002977,-0.237011,0.803263,-0.600461,8.802743,0.949282,-0.356246,1,1,5.178236,38.990797,-76.937864,-5.837000,2.626342,5.340878,5.306941
2026-09-11T16:30:37.082,5.213415,1.454323,6.500376,13.465954,0.000000,27.645383,-9.511026,1.434332,-0.117974,-0.248367,-0.871877,5.570116,-2.517539,-0.100919,-0.011696,-0.246884,1.288692,-0.591145,10.592849,0.958225,-0.358956,1,0,,38.990797,-76.937864,-5.837000,,,
2026-09-11T16:30:37.116,5.246819,1.463982,6.549502,13.555393,0.000000,27.489514,-9.457402,1.444084,-0.112470,-0.236779,-0.879980,5.597941,-2.556933,-0.066466,0.029424,-0.235295,0.716376,-0.643807,9.570898,0.928199,-0.365968,1,0,,38.990797,-76.937864,-5.837000,,,
2026-09-11T16:30:37.149,5.280228,1.503247,6.599950,13.918952,0.000000,27.471661,-9.451260,1.482841,-0.109457,-0.230436,-0.887785,5.626078,-2.597089,-0.026519,0.026427,-0.228952,1.760784,-0.617525,9.791156,0.969170,-0.371217,1,0,,38.990797,-76.937864,-5.837000,,,
2026-09-11T16:30:37.182,5.313633,1.542656,6.651219,14.283852,0.000000,27.293820,-9.390076,1.521985,-0.106006,-0.223171,-0.895361,5.654803,-2.638401,0.007416,-0.034484,-0.221687,2.015463,-1.350670,10.996491,1.033908,-0.423965,1,0,,38.990797,-76.937864,-5.837000,,,
2026-09-11T16:30:37.216,5.347039,1.630255,6.705951,15.094955,0.000000,26.855740,-9.239360,1.609105,-0.110745,-0.233146,-0.902983,5.684508,-2.681597,0.017301,-0.092704,-0.231663,3.119201,-0.971741,11.426120,1.173286,-0.449322,1,0,,38.990797,-76.937864,-5.837000,,,
2026-09-11T16:30:37.250,5.380451,1.689013,6.762915,15.639009,0.000000,26.787762,-9.215973,1.667211,-0.115165,-0.242452,-0.910928,5.715256,-2.727034,0.018828,0.049762,-0.240969,1.870324,-0.222415,8.368603,1.232309,-0.424040,1,0,,38.990797,-76.937864,-5.837000,,,
2026-09-11T16:30:37.283,5.413863,1.727997,6.821020,15.999971,0.000000,26.775403,-9.211721,1.705712,-0.125462,-0.264130,-0.919391,5.746420,-2.774151,-0.041292,0.070750,-0.262647,1.169835,-2.436266,9.221487,1.243975,-0.539285,1,0,,38.990797,-76.937864,-5.837000,,,
2026-09-11T16:30:37.316,5.447283,1.767260,6.880172,16.363516,0.000000,26.778149,-9.212666,1.744464,-0.132367,-0.278668,-0.928462,5.777726,-2.822754,-0.073415,0.057880,-0.277184,1.141788,-2.360951,10.534009,1.250116,-0.646105,1,0,,38.990797,-76.937864,-5.837000,,,
2026-09-11T16:30:37.349,5.480692,1.767798,6.938960,16.368501,0.000000,29.541211,-10.163261,1.740059,-0.151237,-0.318394,-0.938435,5.808554,-2.872350,-0.137810,0.106730,-0.316911,-0.626351,-1.060001,7.147969,1.141858,-0.663144,1,0,,38.990797,-76.937864,-5.837000,,,
2026-09-11T16:30:37.383,5.514097,1.778336,6.998112,16.466074,0.000000,32.537732,-11.194174,1.744503,-0.166822,-0.351204,-0.949619,5.838387,-2.922602,-0.057489,0.044710,-0.349721,-1.440107,0.686858,6.962427,0.985444,-0.563188,1,0,,38.990797,-76.937864,-5.837000,,,
2026-09-11T16:30:37.417,5.547513,1.740112,7.056763,16.112147,0.000000,38.193631,-13.140011,1.694551,-0.187399,-0.394524,-0.962078,5.866704,-2.972944,-0.005664,-0.048325,-0.393041,-0.730694,-2.338298,8.121966,0.884430,-0.656460,1,0,,38.990797,-76.937864,-5.837000,,,
2026-09-11T16:30:37.451,5.580926,1.730945,7.114594,16.027272,0.000000,42.853207,-14.743076,1.673957,-0.213685,-0.449864,-0.976185,5.893033,-3.023125,-0.030924,-0.040435,-0.448380,-1.478941,-0.858376,11.459953,0.748274,-0.647461,1,0,,38.990797,-76.937864,-5.837000,,,
2026-09-11T16:30:37.484,5.614339,1.731205,7.172197,16.029673,0.000000,43.845410,-15.084430,1.671553,-0.232797,-0.490098,-0.991889,5.917765,-3.073795,0.043194,-0.030995,-0.488615,-0.365592,-0.225651,9.189027,0.698157,-0.593335,1,0,,38.990797,-76.937864,-5.837000,,,
2026-09-11T16:30:37.517,5.647745,1.711860,7.228843,15.850559,0.000000,45.459714,-15.639810,1.648480,-0.231209,-0.486755,-1.008205,5.941205,-3.124643,0.046463,-0.064216,-0.485271,0.636255,-1.781378,9.754969,0.726013,-0.641556,1,0,,38.990797,-76.937864,-5.837000,,,
2026-09-11T16:30:37.550,5.681147,1.760377,7.287539,16.299787,0.000000,47.032132,-16.180779,1.690644,-0.241330,-0.508064,-1.024820,5.963840,-3.176214,0.029160,0.004268,-0.506580,1.874933,-1.057941,10.142920,0.842205,-0.638783,1,0,,38.990797,-76.937864,-5.837000,,,
2026-09-11T16:30:37.584,5.714560,1.789977,7.347557,16.573858,0.000000,48.873715,-16.814352,1.713450,-0.262603,-0.552849,-1.042544,5.985700,-3.229382,-0.124004,-0.024603,-0.551366,0.265760,-0.127977,6.402370,0.855321,-0.570147,1,0,,38.990797,-76.937864,-5.837000,,,
2026-09-11T16:30:37.618,5.747974,1.790515,7.407986,16.578842,0.000000,51.050381,-17.563205,1.707049,-0.264063,-0.555923,-1.061068,6.006404,-3.283365,-0.189636,0.054413,-0.554439,0.604874,-2.087640,10.253049,0.891955,-0.628970,1,0,,38.990797,-76.937864,-5.837000,,,
2026-09-11T16:30:37.650,5.781385,1.800584,7.467822,16.672074,0.000000,52.831540,-18.175988,1.710740,-0.263739,-0.555241,-1.079631,6.026062,-3.337687,-0.237031,0.050471,-0.553757,-1.568083,-0.961640,8.504425,0.784694,-0.614222,1,0,,38.990797,-76.937864,-5.837000,,,
2026-09-11T16:30:37.684,5.814804,1.752279,7.526336,16.224806,0.000000,52.799267,-18.164886,1.664951,-0.256289,-0.539556,-1.097924,6.044517,-3.391689,-0.217099,0.040906,-0.538072,-1.964174,-0.631842,10.072803,0.647074,-0.581625,1,0,,38.990797,-76.937864,-5.837000,,,
2026-09-11T16:30:37.717,5.848210,1.733269,7.584531,16.048789,0.000000,52.277417,-17.985350,1.648574,-0.233997,-0.492625,-1.115165,6.061979,-3.444844,-0.212748,-0.083319,-0.491141,-0.749228,-1.406372,12.503577,0.589727,-0.605086,1,0,,38.990797,-76.937864,-5.837000,,,
2026-09-11T16:30:37.751,5.881618,1.675556,7.639537,15.514412,0.000000,43.913388,-15.107817,1.617644,-0.212532,-0.447435,-1.130868,6.078882,-3.497253,-0.112618,0.125437,-0.445952,0.288316,0.850139,9.914425,0.598880,-0.488014,1,0,,38.990797,-76.937864,-5.837000,,,
2026-09-11T16:30:37.785,5.915039,1.598634,7.692719,14.802163,0.000000,40.830350,-14.047139,1.550829,-0.170938,-0.359870,-1.144358,6.095300,-3.547999,-0.105682,0.179404,-0.358386,1.803247,2.817353,8.721544,0.705926,-0.255611,1,0,,38.990797,-76.937864,-5.837000,,,
2026-09-11T16:30:37.818,5.948458,1.599441,7.746220,14.809639,0.000000,35.258908,-12.130358,1.563729,-0.136956,-0.288329,-1.155189,6.111873,-3.597601,-0.121265,0.096677,-0.286845,-1.276434,-0.625272,9.771052,0.616503,-0.255522,1,0,,38.990797,-76.937864,-5.837000,,,
2026-09-11T16:30:37.851,5.981865,1.570938,7.798446,14.545720,0.000000,28.172726,-9.692452,1.548514,-0.110158,-0.231911,-1.163879,6.128874,-3.646904,-0.077045,0.058571,-0.230427,-0.212902,-0.994492,5.945576,0.597343,-0.285253,1,0,,38.990797,-76.937864,-5.837000,,,
2026-09-11T16:30:37.884,6.015270,1.551962,7.850945,14.370014,0.000000,22.818265,-7.850320,1.537417,-0.079007,-0.166330,-1.170530,6.146211,-3.695547,-0.007116,0.058793,-0.164846,-0.181227,-1.266823,10.629134,0.580233,-0.338957,1,0,,38.990797,-76.937864,-5.837000,,,
2026-09-11T16:30:37.917,6.048676,1.552316,7.902259,14.373296,0.000000,14.792065,-5.089013,1.546197,-0.071382,-0.150277,-1.175819,6.163839,-3.744007,0.006264,-0.005402,-0.148794,0.217021,0.715591,8.613671,0.586947,-0.265342,1,0,,38.990797,-76.937864,-5.837000,,,
2026-09-11T16:30:37.950,6.082079,1.561690,7.954347,14.460097,0.000000,11.608774,-3.993844,1.557898,-0.033265,-0.070032,-1.179498,6.182085,-3.792566,0.007560,-0.054898,-0.068549,-0.371672,1.213475,12.008145,0.552021,-0.168321,1,0,,38.990797,-76.937864,-5.837000,,,
2026-09-11T16:30:37.985,6.115499,1.523653,8.006755,14.107897,0.000000,6.361429,-2.188565,1.522541,-0.005443,-0.011458,-1.180860,6.201087,-3.840410,0.067818,0.005453,-0.009975,0.827583,-0.361473,10.311693,0.590731,-0.180175,1,0,,38.990797,-76.937864,-5.837000,,,
2026-09-11T16:30:38.017,6.148916,1.553023,8.058479,14.379838,0.000000,4.618036,-1.588774,1.552425,-0.001797,-0.003782,-1.181115,6.220499,-3.887979,0.030842,0.012275,-0.002299,-0.238498,1.471488,10.131250,0.553585,-0.074045,1,0,,38.990797,-76.937864,-5.837000,,,
2026-09-11T16:30:38.050,6.182322,1.543733,8.109246,14.293829,0.000000,3.693125,-1.270570,1.543354,-0.000757,-0.001593,-1.181204,6.240102,-3.935829,0.022775,0.001948,-0.000109,-0.851413,2.579934,10.736321,0.473646,0.102348,1,1,6.180422,38.990802,-76.937848,-5.829000,4.038254,5.994889,3.731742
2026-09-11T16:30:38.084,6.215723,1.553621,8.161471,14.385376,0.000000,3.628580,-1.248365,1.553252,0.005775,0.012158,-1.181028,6.259825,-3.983635,-0.064316,0.063529,0.013641,-1.135708,-1.678212,8.614848,0.372252,0.000000,1,0,,38.990802,-76.937848,-5.829000,,,
2026-09-11T16:30:38.117,6.249129,1.554002,8.213515,14.388912,0.000000,3.407480,-1.172298,1.553677,-0.002004,-0.004218,-1.180895,6.279606,-4.031613,-0.066879,0.034454,-0.002735,0.494942,1.792558,12.249094,0.367013,0.124909,1,0,,38.990802,-76.937848,-5.829000,,,
2026-09-11T16:30:38.151,6.282532,1.554177,8.265421,14.390526,0.000000,3.397180,-1.168755,1.553853,0.002168,0.004564,-1.180889,6.299335,-4.079616,-0.053165,0.125587,0.006047,-0.446693,0.169753,2.532175,0.291353,0.142584,1,0,,38.990802,-76.937848,-5.829000,,,
2026-09-11T16:30:38.185,6.315943,1.544863,8.317874,14.304290,0.000000,1.938745,-0.667000,1.544759,0.012612,0.026552,-1.180370,6.319252,-4.127395,-0.054755,0.049444,0.028035,-4.516060,-0.332740,-4.681499,-0.051176,0.125368,1,0,,38.990802,-76.937848,-5.829000,,,
2026-09-11T16:30:38.217,6.349360,1.545311,8.369735,14.308433,0.000000,0.722009,-0.248398,1.545296,0.019685,0.041442,-1.179234,6.339427,-4.174923,-0.039998,-0.017418,0.042926,0.094634,0.547113,12.743055,-0.096223,0.163777,1,0,,38.990802,-76.937848,-5.829000,,,
2026-09-11T16:30:38.250,6.382762,1.565348,8.422279,14.493961,0.000000,0.405466,-0.139495,1.565343,0.013745,0.028937,-1.178058,6.359798,-4.222717,-0.108721,-0.009091,0.030421,-1.438439,0.092379,7.239956,-0.242196,0.173547,1,0,,38.990802,-76.937848,-5.829000,,,
2026-09-11T16:30:38.284,6.416165,1.546621,8.473411,14.320562,0.000000,0.706903,-0.243201,1.546607,0.008393,0.017670,-1.177280,6.380049,-4.270585,-0.073244,0.056485,0.019154,1.883759,-0.676659,8.737823,-0.175940,0.134634,1,0,,38.990802,-76.937848,-5.829000,,,
2026-09-11T16:30:38.318,6.449571,1.566401,8.525500,14.503712,0.000000,0.508463,-0.174930,1.566394,-0.003270,-0.006883,-1.177100,6.400071,-4.318573,-0.057473,0.025030,-0.005400,-0.456303,-1.342432,12.709124,-0.267792,0.055550,1,0,,38.990802,-76.937848,-5.829000,,,
2026-09-11T16:30:38.352,6.482983,1.605646,8.579457,14.867092,0.000000,1.046106,-0.359899,1.605614,-0.011322,-0.023835,-1.177613,6.420160,-4.367609,-0.024179,-0.086474,-0.022352,2.662211,4.232844,6.492591,-0.157295,0.339775,1,0,,38.990802,-76.937848,-5.829000,,,
2026-09-11T16:30:38.385,6.516394,1.702669,8.637060,15.765456,0.000000,2.467462,-0.848898,1.702482,-0.016148,-0.033995,-1.178579,6.440884,-4.418842,-0.081576,-0.096920,-0.032512,2.153737,-1.291830,7.876211,-0.082952,0.264732,1,0,,38.990802,-76.937848,-5.829000,,,
2026-09-11T16:30:38.417,6.549803,1.751433,8.695118,16.216975,0.000000,2.833444,-0.974809,1.751180,-0.021092,-0.044404,-1.179888,6.462326,-4.472404,-0.008946,-0.130841,-0.042920,1.894743,-0.906429,9.341717,-0.031359,0.216738,1,0,,38.990802,-76.937848,-5.829000,,,
2026-09-11T16:30:38.451,6.583205,1.790500,8.754635,16.578705,0.000000,3.007166,-1.034575,1.790208,-0.017333,-0.036492,-1.181240,6.484231,-4.527347,0.172832,-0.069953,-0.035008,0.739716,1.852084,9.982483,-0.055678,0.346878,1,0,,38.990802,-76.937848,-5.829000,,,
2026-09-11T16:30:38.486,6.616611,1.800579,8.814608,16.672030,0.000000,3.101236,-1.066939,1.800267,-0.023279,-0.049009,-1.182668,6.506339,-4.583098,0.181234,0.057493,-0.047525,1.200628,-0.961444,8.713699,-0.040540,0.295100,1,0,,38.990802,-76.937848,-5.829000,,,
2026-09-11T16:30:38.519,6.650029,1.820185,8.876677,16.853566,0.000000,3.299677,-1.135210,1.819828,-0.019583,-0.041228,-1.184175,6.528526,-4.639376,0.231119,0.084519,-0.039745,1.293595,-1.180525,9.923840,-0.012929,0.228845,1,0,,38.990802,-76.937848,-5.829000,,,
2026-09-11T16:30:38.552,6.683446,1.888731,8.939019,17.488248,0.000000,5.192072,-1.786263,1.887813,-0.024193,-0.050932,-1.185715,6.551162,-4.697046,0.234237,0.235552,-0.049448,1.074907,-1.363222,9.767620,0.001477,0.152872,1,0,,38.990802,-76.937848,-5.829000,,,
2026-09-11T16:30:38.584,6.716850,1.918135,9.002592,17.760506,0.000000,11.696665,-4.024082,1.913406,-0.056989,-0.119976,-1.188570,6.573668,-4.756425,0.036999,0.176880,-0.118493,-0.291258,2.612786,-2.494910,-0.067326,0.343544,1,0,,38.990802,-76.937848,-5.829000,,,
2026-09-11T16:30:38.618,6.750262,1.918598,9.067486,17.764793,0.000000,19.740031,-6.791295,1.905136,-0.089553,-0.188532,-1.193724,6.595035,-4.816581,0.065575,-0.035144,-0.187048,-1.768531,-3.775462,10.208134,-0.218268,0.127282,1,0,,38.990802,-76.937848,-5.829000,,,
2026-09-11T16:30:38.651,6.783667,1.977374,9.134386,18.309015,0.000000,29.996455,-10.319881,1.945386,-0.165021,-0.347413,-1.202675,6.614482,-4.878025,0.057899,-0.098213,-0.345929,-0.093065,2.958274,16.992081,-0.245498,0.369457,1,0,,38.990802,-76.937848,-5.829000,,,
2026-09-11T16:30:38.686,6.817076,2.017052,9.202379,18.676407,0.000000,33.613017,-11.564111,1.976108,-0.205188,-0.431975,-1.215694,6.631867,-4.941477,0.036282,0.034631,-0.430492,-3.213639,-0.919766,18.474650,-0.465809,0.369628,1,0,,38.990802,-76.937848,-5.829000,,,
2026-09-11T16:30:38.720,6.850494,2.007539,9.269461,18.588324,0.000000,41.276669,-14.200689,1.946193,-0.225105,-0.473905,-1.230831,6.647431,-5.005541,-0.099799,-0.085883,-0.472421,-4.300706,2.399001,4.928430,-0.750326,0.588965,1,0,,38.990802,-76.937848,-5.829000,,,
2026-09-11T16:30:38.752,6.883902,1.909786,9.333171,17.683202,0.000000,41.180539,-14.167617,1.851698,-0.210057,-0.442225,-1.246134,6.661267,-5.067878,0.104914,-0.043134,-0.440742,-5.179873,5.145451,10.985213,-1.088426,0.976754,1,0,,38.990802,-76.937848,-5.829000,,,
2026-09-11T16:30:38.785,6.917309,1.900144,9.395969,17.593928,0.000000,40.144391,-13.811144,1.845207,-0.186893,-0.393460,-1.260093,6.674259,-5.128612,0.205928,0.030213,-0.391976,0.719024,2.755080,13.175823,-1.036424,1.199633,1,0,,38.990802,-76.937848,-5.829000,,,
2026-09-11T16:30:38.819,6.950727,1.881140,9.458448,17.417965,0.000000,37.697186,-12.969215,1.833154,-0.173439,-0.365134,-1.272768,6.686935,-5.189052,0.048455,-0.073299,-0.363651,-1.262508,-0.507102,7.978887,-1.106965,1.205384,1,0,,38.990802,-76.937848,-5.829000,,,
2026-09-11T16:30:38.854,6.984146,1.862134,9.520881,17.241983,0.000000,34.916958,-12.012715,1.821356,-0.164489,-0.346292,-1.284656,6.699113,-5.249156,0.019328,0.027381,-0.344809,-1.371754,3.367015,9.496564,-1.181976,1.459244,1,0,,38.990802,-76.937848,-5.829000,,,
2026-09-11T16:30:38.887,7.017548,1.804265,9.581492,16.706158,0.000000,31.308636,-10.771320,1.772476,-0.150688,-0.317238,-1.295738,6.710681,-5.308286,0.052842,0.083329,-0.315754,-0.800713,0.347744,8.470494,-1.217144,1.510479,1,0,,38.990802,-76.937848,-5.829000,,,
2026-09-11T16:30:38.920,7.050948,1.785475,9.640918,16.532172,0.000000,30.285534,-10.419335,1.756033,-0.139048,-0.292734,-1.305924,6.721735,-5.366369,0.011746,0.072714,-0.291250,-0.743834,-0.009905,11.412391,-1.244130,1.534896,1,0,,38.990802,-76.937848,-5.829000,,,
2026-09-11T16:30:38.954,7.084351,1.756821,9.699614,16.266864,0.000000,30.054135,-10.339725,1.728292,-0.127982,-0.269436,-1.315313,6.732398,-5.423750,-0.056967,0.037963,-0.267952,-0.226730,-0.320089,8.845991,-1.239362,1.535854,1,0,,38.990802,-76.937848,-5.829000,,,
2026-09-11T16:30:38.987,7.117772,1.776635,9.759268,16.450322,0.000000,30.380292,-10.451935,1.747156,-0.147129,-0.309745,-1.324991,6.742346,-5.481149,-0.075314,-0.005458,-0.308262,0.173087,-0.037363,7.142968,-1.215634,1.559983,1,0,,38.990802,-76.937848,-5.829000,,,
2026-09-11T16:30:39.020,7.151189,1.786937,9.818283,16.545715,0.000000,30.247082,-10.406106,1.757546,-0.137147,-0.288730,-1.334991,6.751698,-5.539152,-0.060437,-0.062656,-0.287246,0.202605,-0.095026,10.822619,-1.194928,1.577930,1,0,,38.990802,-76.937848,-5.829000,,,
2026-09-11T16:30:39.054,7.184597,1.787297,9.878621,16.549051,0.000000,28.864178,-9.930337,1.760520,-0.128452,-0.270425,-1.344331,6.760842,-5.597371,-0.046603,-0.021458,-0.268941,0.065606,0.466404,8.889238,-1.186390,1.629961,1,1,7.175468,38.990806,-76.937828,-5.934000,5.707716,6.408534,5.177277
2026-09-11T16:30:39.087,7.218003,1.777911,9.937636,16.462143,0.000000,26.983456,-9.283299,1.754626,-0.120520,-0.253726,-1.353086,6.769718,-5.655559,-0.002770,0.002282,-0.252243,-0.188876,-0.032264,11.112994,-1.198461,1.647160,1,0,,38.990806,-76.937828,-5.934000,,,
2026-09-11T16:30:39.120,7.251408,1.768448,9.996059,16.374520,0.000000,24.256100,-8.344989,1.749724,-0.105828,-0.222796,-1.361045,6.778439,-5.713560,0.032169,-0.008093,-0.221313,1.009399,0.213099,11.226653,-1.137504,1.676457,1,0,,38.990806,-76.937828,-5.934000,,,
2026-09-11T16:30:39.154,7.284810,1.768559,10.054802,16.375547,0.000000,20.618939,-7.093672,1.755022,-0.097709,-0.205703,-1.368202,6.787094,-5.771550,0.015229,0.006494,-0.204220,1.274276,-0.103068,8.979950,-1.064395,1.683115,1,0,,38.990806,-76.937828,-5.934000,,,
2026-09-11T16:30:39.187,7.318399,1.768721,10.114820,16.377049,0.000000,19.218869,-6.611996,1.756957,-0.114939,-0.241977,-1.375720,6.795243,-5.830073,0.016561,-0.009195,-0.240493,0.825132,-0.626547,0.832388,-1.025141,1.659862,1,0,,38.990806,-76.937828,-5.934000,,,
2026-09-11T16:30:39.221,7.351808,1.798420,10.175613,16.652034,0.000000,19.168744,-6.594751,1.786520,-0.065474,-0.137840,-1.382065,6.803573,-5.888756,-0.044788,0.060990,-0.136356,-3.113611,-3.719662,13.504051,-1.241385,1.425336,1,0,,38.990806,-76.937828,-5.934000,,,
2026-09-11T16:30:39.254,7.385206,1.750279,10.233307,16.206289,0.000000,19.168057,-6.594515,1.738699,-0.097462,-0.205183,-1.387793,6.811780,-5.947110,-0.020341,0.043601,-0.203700,-0.037559,-2.517563,12.137004,-1.255694,1.278367,1,0,,38.990806,-76.937828,-5.934000,,,
2026-09-11T16:30:39.287,7.418611,1.769820,10.292277,16.387220,0.000000,19.340405,-6.653809,1.757899,-0.107496,-0.226308,-1.395000,6.818832,-6.005186,-0.003967,-0.007808,-0.224824,1.750389,0.039129,7.954076,-1.155239,1.301012,1,0,,38.990806,-76.937828,-5.934000,,,
2026-09-11T16:30:39.321,7.452029,1.779806,10.352386,16.479683,0.000000,19.369244,-6.663731,1.767782,-0.113545,-0.239042,-1.402775,6.825269,-6.063859,-0.044486,0.063354,-0.237559,0.281059,-0.434435,8.101372,-1.151761,1.294375,1,0,,38.990806,-76.937828,-5.934000,,,
2026-09-11T16:30:39.355,7.485436,1.809297,10.412860,16.752746,0.000000,19.522366,-6.716410,1.796880,-0.108306,-0.228012,-1.410577,6.831340,-6.123207,-0.066625,0.034261,-0.226528,0.144256,-0.410703,8.962886,-1.160391,1.288516,1,0,,38.990806,-76.937828,-5.934000,,,
2026-09-11T16:30:39.388,7.518859,1.790599,10.472696,16.579623,0.000000,19.386410,-6.669637,1.778481,-0.103536,-0.217970,-1.418030,6.837156,-6.182778,-0.078957,-0.026457,-0.216486,0.160045,-0.446203,12.070319,-1.170398,1.278995,1,0,,38.990806,-76.937828,-5.934000,,,
2026-09-11T16:30:39.421,7.552267,1.810419,10.532805,16.763136,0.000000,19.112439,-6.575380,1.798510,-0.096466,-0.203086,-1.425063,6.842736,-6.242360,-0.024923,0.001859,-0.201602,1.286142,-1.281925,10.921372,-1.108857,1.214080,1,0,,38.990806,-76.937828,-5.934000,,,
2026-09-11T16:30:39.455,7.585666,1.811017,10.592960,16.768672,0.000000,18.839841,-6.481597,1.799441,-0.090467,-0.190458,-1.431635,6.848176,-6.302280,-0.009642,0.017482,-0.188974,0.743932,0.512103,9.277778,-1.086044,1.264454,1,0,,38.990806,-76.937828,-5.934000,,,
2026-09-11T16:30:39.488,7.619090,1.801579,10.653799,16.681287,0.000000,18.306317,-6.298045,1.790706,-0.097791,-0.205875,-1.438259,6.853185,-6.362150,-0.042862,0.016032,-0.204392,0.237909,-0.265858,9.431742,-1.105541,1.265641,1,0,,38.990806,-76.937828,-5.934000,,,
2026-09-11T16:30:39.521,7.652509,1.830844,10.715138,16.952260,0.000000,18.179974,-6.254578,1.819946,-0.089754,-0.188957,-1.444856,6.857851,-6.422384,-0.035889,-0.011212,-0.187473,0.790318,-1.433830,12.078459,-1.099042,1.189639,1,0,,38.990806,-76.937828,-5.934000,,,
2026-09-11T16:30:39.555,7.685915,1.830923,10.775931,16.952994,0.000000,18.120236,-6.234026,1.820096,-0.090869,-0.191303,-1.451208,6.862302,-6.483094,-0.041207,-0.016689,-0.189820,1.266137,-0.968014,8.816767,-1.065525,1.144917,1,0,,38.990806,-76.937828,-5.934000,,,
2026-09-11T16:30:39.588,7.719322,1.840903,10.837362,17.045402,0.000000,18.197140,-6.260484,1.829925,-0.097396,-0.205045,-1.457828,6.866251,-6.544015,-0.036528,0.004538,-0.203561,1.919652,-1.854339,10.761524,-0.990677,1.045110,1,0,,38.990806,-76.937828,-5.934000,,,
2026-09-11T16:30:39.621,7.752729,1.870448,10.899841,17.318959,0.000000,18.241086,-6.275603,1.859239,-0.101492,-0.213667,-1.464822,6.869680,-6.605630,-0.009379,-0.005937,-0.212183,1.356750,-1.527778,9.345640,-0.954236,0.968957,1,0,,38.990806,-76.937828,-5.934000,,,
2026-09-11T16:30:39.656,7.786135,1.880315,10.962913,17.410323,0.000000,18.388028,-6.326156,1.868865,-0.108223,-0.227838,-1.472196,6.872553,-6.667933,-0.019368,0.110778,-0.226355,1.117370,-1.733816,8.968182,-0.935459,0.882169,1,0,,38.990806,-76.937828,-5.934000,,,
2026-09-11T16:30:39.688,7.819557,1.900067,11.026303,17.593211,0.000000,18.636593,-6.411672,1.888182,-0.107283,-0.225860,-1.479778,6.874910,-6.730775,0.018480,0.028081,-0.224376,2.418908,-0.733145,9.646409,-0.832586,0.861094,1,0,,38.990806,-76.937828,-5.934000,,,
2026-09-11T16:30:39.722,7.852964,1.958771,11.092155,18.136770,0.000000,18.681912,-6.427263,1.946460,-0.116282,-0.244804,-1.487640,6.876757,-6.794909,0.032659,0.082510,-0.243321,1.650851,-0.237419,11.761410,-0.782368,0.875562,1,0,,38.990806,-76.937828,-5.934000,,,
2026-09-11T16:30:39.756,7.886369,2.027070,11.160011,18.769165,0.000000,18.548703,-6.381434,2.014510,-0.118813,-0.250132,-1.495907,6.878061,-6.861170,0.018172,0.067484,-0.248648,2.499421,-1.070396,9.325830,-0.677172,0.837768,1,0,,38.990806,-76.937828,-5.934000,,,
2026-09-11T16:30:39.789,7.919779,2.085901,11.229736,19.313894,0.000000,19.171490,-6.595696,2.072095,-0.126728,-0.266795,-1.504542,6.878779,-6.929554,-0.001640,0.039451,-0.265312,1.823841,-0.595460,13.130026,-0.612430,0.834272,1,0,,38.990806,-76.937828,-5.934000,,,
2026-09-11T16:30:39.822,7.953195,2.115405,11.300509,19.587087,0.000000,19.735226,-6.789642,2.100570,-0.130812,-0.275394,-1.513601,6.878782,-6.999404,0.045844,0.088382,-0.273911,0.930749,-0.289492,10.077510,-0.600942,0.852270,1,0,,38.990806,-76.937828,-5.934000,,,
2026-09-11T16:30:39.856,7.986606,2.135231,11.371966,19.770655,0.000000,19.963879,-6.868307,2.119908,-0.134408,-0.282964,-1.522928,6.878058,-7.070042,-0.004880,0.103800,-0.281481,0.626939,-1.118841,7.876996,-0.603801,0.817801,1,0,,38.990806,-76.937828,-5.934000,,,
2026-09-11T16:30:39.889,8.020011,2.144851,11.443377,19.859729,0.000000,20.008511,-6.883662,2.129390,-0.131982,-0.277856,-1.532296,6.876676,-7.141143,0.011711,0.059452,-0.276373,-0.042463,0.261347,8.082935,-0.646398,0.872453,1,0,,38.990806,-76.937828,-5.934000,,,
2026-09-11T16:30:39.922,8.053415,2.164652,11.515746,20.043076,0.000000,19.910321,-6.849881,2.149201,-0.140875,-0.296579,-1.541890,6.874528,-7.212716,-0.002566,0.014741,-0.295095,0.279391,0.277528,9.158333,-0.663195,0.930502,1,0,,38.990806,-76.937828,-5.934000,,,
2026-09-11T16:30:39.956,8.086816,2.164757,11.588296,20.044047,0.000000,19.916501,-6.852007,2.149296,-0.138036,-0.290602,-1.551696,6.871595,-7.284592,0.044267,-0.003179,-0.289119,0.329602,-1.643006,11.094656,-0.669775,0.862882,1,0,,38.990806,-76.937828,-5.934000,,,
2026-09-11T16:30:39.989,8.120238,2.184561,11.661439,20.227414,0.000000,19.900021,-6.846338,2.168984,-0.137774,-0.290050,-1.561399,6.868013,-7.356813,0.026816,0.010611,-0.288567,0.932514,-0.136018,9.780270,-0.626724,0.893773,1,0,,38.990806,-76.937828,-5.934000,,,
2026-09-11T16:30:40.023,8.153643,2.175220,11.734445,20.140925,0.000000,19.867062,-6.834998,2.159761,-0.127822,-0.269099,-1.570738,6.863919,-7.429133,0.012608,0.004678,-0.267615,-0.766978,0.411095,9.671122,-0.680480,0.956589,1,0,,38.990806,-76.937828,-5.934000,,,
2026-09-11T16:30:40.056,8.187043,2.146565,11.805628,19.875598,0.000000,20.494656,-7.050914,2.130331,-0.127515,-0.268452,-1.579715,6.859340,-7.500757,-0.077000,0.032007,-0.266969,-0.545054,-0.600559,9.074486,-0.711365,0.952682,1,1,8.184222,38.990806,-76.937807,-5.906000,7.548014,6.440966,5.177866
2026-09-11T16:30:40.089,8.220457,2.108501,11.875718,19.523158,0.000000,22.895169,-7.876778,2.088608,-0.139132,-0.292909,-1.589094,6.853929,-7.571175,-0.082117,-0.005281,-0.291425,0.780609,-0.686564,9.491562,-0.654080,0.945833,1,0,,38.990806,-76.937807,-5.906000,,,
2026-09-11T16:30:40.123,8.253872,2.109219,11.946218,19.529809,0.000000,25.194745,-8.667917,2.085129,-0.150452,-0.316740,-1.599280,6.847462,-7.640774,-0.122868,-0.039360,-0.315257,-0.030204,-1.210239,8.230231,-0.649235,0.908330,1,0,,38.990806,-76.937807,-5.906000,,,
2026-09-11T16:30:40.156,8.287279,2.100140,12.016125,19.445739,0.000000,26.898312,-9.254006,2.072807,-0.163626,-0.344477,-1.610325,6.839859,-7.710005,-0.089407,-0.012428,-0.342993,-0.206136,-1.832078,9.576488,-0.655054,0.834498,1,0,,38.990806,-76.937807,-5.906000,,,
2026-09-11T16:30:40.189,8.320686,2.071253,12.084939,19.178267,0.000000,26.942258,-9.269125,2.044208,-0.159732,-0.336277,-1.621696,6.831358,-7.778459,-0.031098,0.070313,-0.334794,-0.695880,-0.374320,5.368258,-0.692114,0.854047,1,0,,38.990806,-76.937807,-5.906000,,,
2026-09-11T16:30:40.223,8.354091,2.070956,12.154618,19.175521,0.000000,26.209607,-9.017067,2.045363,-0.122378,-0.257637,-1.631615,6.822840,-7.846396,0.071900,-0.226627,-0.256154,1.288300,3.755947,24.940567,-0.601722,1.130118,1,0,,38.990806,-76.937807,-5.906000,,,
2026-09-11T16:30:40.257,8.387492,2.032382,12.221381,18.818356,0.000000,26.171841,-9.004074,2.007338,-0.140280,-0.295326,-1.640850,6.814040,-7.913646,-0.005517,0.060238,-0.293842,2.727131,-0.866908,11.497317,-0.422459,1.108418,1,0,,38.990806,-76.937807,-5.906000,,,
2026-09-11T16:30:40.290,8.420914,1.984077,12.288144,18.371088,0.000000,26.035885,-8.957300,1.959881,-0.147120,-0.309726,-1.650961,6.804280,-7.979393,-0.040071,-0.027500,-0.308242,0.786297,1.385385,12.047568,-0.370201,1.233605,1,0,,38.990806,-76.937807,-5.906000,,,
2026-09-11T16:30:40.323,8.454327,1.994157,12.355362,18.464414,0.000000,25.553860,-8.791466,1.970728,-0.141369,-0.297619,-1.661108,6.793886,-8.044411,-0.008377,0.064950,-0.296135,0.441299,1.411275,9.826362,-0.341221,1.357725,1,0,,38.990806,-76.937807,-5.906000,,,
2026-09-11T16:30:40.356,8.487730,1.994434,12.421988,18.466979,0.000000,22.910962,-7.882212,1.975590,-0.111286,-0.234287,-1.669991,6.783450,-8.109626,-0.056826,-0.023602,-0.232803,-0.505141,-2.842850,6.893977,-0.380083,1.197313,1,0,,38.990806,-76.937807,-5.906000,,,
2026-09-11T16:30:40.389,8.521138,2.004723,12.489161,18.562250,0.000000,20.590100,-7.083750,1.989421,-0.120406,-0.253487,-1.678139,6.772772,-8.175106,-0.065481,-0.237574,-0.252004,2.517367,-0.640570,20.007920,-0.226163,1.183778,1,0,,38.990806,-76.937807,-5.906000,,,
2026-09-11T16:30:40.422,8.554544,2.005352,12.555879,18.568075,0.000000,18.515744,-6.370095,1.992971,-0.121921,-0.256676,-1.686660,6.761341,-8.240758,-0.082694,0.130711,-0.255192,4.239513,1.806385,11.672954,0.035793,1.329126,1,0,,38.990806,-76.937807,-5.906000,,,
2026-09-11T16:30:40.457,8.587952,2.015730,12.623644,18.664165,0.000000,18.342023,-6.310329,2.003517,-0.114859,-0.241809,-1.694987,6.749420,-8.306561,-0.098581,0.010136,-0.240325,1.678114,0.885050,11.179287,0.127732,1.411532,1,0,,38.990806,-76.937807,-5.906000,,,
2026-09-11T16:30:40.489,8.621450,2.045153,12.691728,18.936606,0.000000,18.167615,-6.250326,2.032996,-0.088896,-0.187150,-1.702172,6.737418,-8.373184,-0.139284,-0.052176,-0.185667,0.143667,-1.462956,13.774323,0.116793,1.334215,1,0,,38.990806,-76.937807,-5.906000,,,
2026-09-11T16:30:40.522,8.654854,2.074510,12.761180,19.208422,0.000000,17.271542,-5.942044,2.063363,-0.073308,-0.154334,-1.707875,6.725575,-8.440624,-0.067994,-0.126027,-0.152850,-0.581436,-0.286550,8.358992,0.053534,1.330043,1,0,,38.990806,-76.937807,-5.906000,,,
2026-09-11T16:30:40.556,8.688413,1.996550,12.827442,18.486575,0.000000,16.442074,-5.656677,1.986828,-0.085013,-0.178974,-1.713468,6.713474,-8.507548,-0.121030,0.092388,-0.177490,-0.372947,-2.011246,3.514703,0.000532,1.216255,1,0,,38.990806,-76.937807,-5.906000,,,
2026-09-11T16:30:40.591,8.721834,2.006463,12.895070,18.578359,0.000000,15.415539,-5.303511,1.997873,-0.090689,-0.190924,-1.719649,6.700897,-8.573003,-0.063942,0.026174,-0.189440,1.550628,-1.338902,9.927860,0.075655,1.149368,1,0,,38.990806,-76.937807,-5.906000,,,
2026-09-11T16:30:40.623,8.755242,2.045727,12.963155,18.941920,0.000000,13.398175,-4.609464,2.039111,-0.058458,-0.123070,-1.724894,6.688257,-8.639288,-0.043580,-0.046681,-0.121586,1.510911,1.500712,7.728425,0.151014,1.258477,1,0,,38.990806,-76.937807,-5.906000,,,
2026-09-11T16:30:40.656,8.788644,2.036290,13.031148,18.854533,0.000000,11.316950,-3.893446,2.031590,-0.049400,-0.103999,-1.728686,6.675915,-8.706169,-0.056565,0.090390,-0.102516,-0.385205,0.496216,8.530413,0.102076,1.298836,1,0,,38.990806,-76.937807,-5.906000,,,
2026-09-11T16:30:40.690,8.822052,2.026826,13.098685,18.766910,0.000000,8.399393,-2.889699,2.024249,-0.033337,-0.070184,-1.731596,6.663801,-8.772839,0.021504,0.056602,-0.068700,0.934574,0.254679,9.604241,0.140599,1.318655,1,0,,38.990806,-76.937807,-5.906000,,,
2026-09-11T16:30:40.725,8.855469,2.027182,13.166679,18.770208,0.000000,5.893137,-2.027455,2.025913,-0.015500,-0.032632,-1.733314,6.652103,-8.839500,0.000239,0.030363,-0.031149,0.010983,0.549565,11.546448,0.122091,1.352425,1,0,,38.990806,-76.937807,-5.906000,,,
2026-09-11T16:30:40.757,8.888890,2.027602,13.234307,18.774096,0.000000,5.320474,-1.830438,2.026568,-0.010578,-0.022270,-1.734231,6.640685,-8.906250,-0.037302,0.030920,-0.020786,0.343625,-0.395208,10.231965,0.123517,1.323333,1,0,,38.990806,-76.937807,-5.906000,,,
2026-09-11T16:30:40.791,8.922310,2.027969,13.302210,18.777487,0.000000,5.122721,-1.762404,2.027009,-0.009448,-0.019890,-1.734936,6.629311,-8.973023,-0.022858,0.059397,-0.018406,-0.965661,0.255365,8.496188,0.029667,1.336347,1,0,,38.990806,-76.937807,-5.906000,,,
2026-09-11T16:30:40.823,8.955716,2.047968,13.369702,18.962669,0.000000,4.938013,-1.698858,2.047068,-0.017627,-0.037110,-1.735888,6.617713,-9.040079,-0.033608,0.064671,-0.035626,-2.404493,2.190315,12.182115,-0.164824,1.476672,1,0,,38.990806,-76.937807,-5.906000,,,
2026-09-11T16:30:40.856,8.989118,1.999868,13.435872,18.517293,0.000000,4.649622,-1.599641,1.999088,-0.020525,-0.043210,-1.737229,6.605935,-9.106622,-0.088215,-0.108919,-0.041726,-1.238972,6.364222,7.301247,-0.281527,1.886058,1,0,,38.990806,-76.937807,-5.906000,,,
2026-09-11T16:30:40.891,9.022524,2.009862,13.502817,18.609829,0.000000,5.052683,-1.738308,2.008937,-0.011103,-0.023374,-1.738341,6.594286,-9.172550,-0.037430,-0.067698,-0.021890,-1.346159,0.934280,7.969865,-0.408041,1.937186,1,0,,38.990806,-76.937807,-5.906000,,,
2026-09-11T16:30:40.926,9.055941,2.029331,13.571312,18.790098,0.000000,5.083582,-1.748939,2.028385,-0.024758,-0.052122,-1.739603,6.582404,-9.238955,-0.059323,0.013614,-0.050638,-0.689996,-1.021363,12.237130,-0.499280,1.865017,1,0,,38.990806,-76.937807,-5.906000,,,
2026-09-11T16:30:40.959,9.089353,2.000524,13.638348,18.523373,0.000000,5.387079,-1.853353,1.999478,-0.039718,-0.083616,-1.741870,6.569963,-9.305093,-0.040702,0.040734,-0.082133,-0.080415,0.489646,8.810785,-0.556074,1.895397,1,0,,38.990806,-76.937807,-5.906000,,,
2026-09-11T16:30:40.992,9.122761,2.020425,13.706159,18.707639,0.000000,5.503809,-1.893512,2.019322,-0.031439,-0.066187,-1.744373,6.557280,-9.371025,-0.008771,-0.039428,-0.064704,0.893974,-1.194842,8.086270,-0.554055,1.814295,1,0,,38.990806,-76.937807,-5.906000,,,
2026-09-11T16:30:41.025,9.156166,2.088538,13.775929,19.338311,0.000000,5.783274,-1.989658,2.087278,-0.039813,-0.083816,-1.746878,6.544177,-9.438362,-0.061489,-0.032602,-0.082332,1.257605,-0.355687,7.356459,-0.531626,1.791052,1,0,,38.990806,-76.937807,-5.906000,,,
2026-09-11T16:30:41.058,9.189569,2.137428,13.846748,19.791000,0.000000,6.551630,-2.254001,2.135774,-0.048304,-0.101693,-1.749976,6.530264,-9.507524,-0.043413,-0.038010,-0.100209,1.329488,-0.750895,9.877552,-0.505394,1.745237,1,1,9.176845,38.990803,-76.937784,-5.955000,9.525008,6.059753,5.177866
2026-09-11T16:30:41.092,9.222994,2.157409,13.919709,19.976014,0.000000,7.118112,-2.448892,2.155439,-0.051853,-0.109164,-1.753500,6.515711,-9.577768,-0.034883,0.034048,-0.107680,1.791479,-0.656555,9.506076,-0.450759,1.707180,1,0,,38.990803,-76.937784,-5.955000,,,
2026-09-11T16:30:41.125,9.256411,2.187134,13.992533,20.251239,0.000000,7.386591,-2.541258,2.184983,-0.058462,-0.123077,-1.757381,6.500584,-9.648718,0.058137,0.016605,-0.121593,1.598876,0.145727,8.917187,-0.408006,1.723640,1,0,,38.990803,-76.937784,-5.955000,,,
2026-09-11T16:30:41.157,9.289813,2.255907,14.067817,20.888030,0.000000,7.342645,-2.526139,2.253715,-0.055636,-0.117129,-1.761392,6.484812,-9.721175,0.100981,0.021729,-0.115645,0.357649,-0.623703,10.190973,-0.443609,1.689827,1,0,,38.990803,-76.937784,-5.955000,,,
2026-09-11T16:30:41.191,9.323222,2.304778,14.145016,21.340539,0.000000,7.230036,-2.487398,2.302607,-0.053130,-0.111853,-1.765217,6.468466,-9.795533,0.149453,-0.078630,-0.110369,2.597782,-0.029224,13.171410,-0.334569,1.694423,1,0,,38.990803,-76.937784,-5.955000,,,
2026-09-11T16:30:41.225,9.356629,2.343596,14.223035,21.699961,0.000000,7.444269,-2.561102,2.341255,-0.044304,-0.093271,-1.768644,6.451752,-9.871298,0.187911,-0.058157,-0.091787,2.121276,0.849550,12.930853,-0.256961,1.753278,1,0,,38.990803,-76.937784,-5.955000,,,
2026-09-11T16:30:41.258,9.390039,2.382560,14.303287,22.060740,0.000000,7.521860,-2.587796,2.380130,-0.036849,-0.077578,-1.771498,6.434809,-9.948340,0.149229,0.002979,-0.076094,0.959973,0.180638,9.162647,-0.246562,1.766032,1,0,,38.990803,-76.937784,-5.955000,,,
2026-09-11T16:30:41.291,9.423445,2.392666,14.383129,22.154319,0.000000,7.606317,-2.616852,2.390171,-0.036569,-0.076986,-1.774079,6.417622,-10.026152,0.087182,-0.035147,-0.075503,0.668617,-0.002942,10.243733,-0.242606,1.766726,1,0,,38.990803,-76.937784,-5.955000,,,
2026-09-11T16:30:41.325,9.456849,2.412627,14.463473,22.339135,0.000000,7.606317,-2.616852,2.410111,-0.049982,-0.105225,-1.777123,6.399900,-10.104356,0.053144,-0.019276,-0.103742,0.578788,-1.453542,12.785812,-0.235622,1.678088,1,0,,38.990803,-76.937784,-5.955000,,,
2026-09-11T16:30:41.359,9.490259,2.383999,14.543588,22.074063,0.000000,7.803385,-2.684651,2.381382,-0.052511,-0.110550,-1.780727,6.381687,-10.182316,0.086588,0.100618,-0.109066,-2.746941,1.348218,-2.324666,-0.436495,1.772292,1,0,,38.990803,-76.937784,-5.955000,,,
2026-09-11T16:30:41.391,9.523681,2.355456,14.622610,21.809778,0.000000,7.322046,-2.519053,2.353180,-0.040397,-0.085047,-1.783996,6.363556,-10.259345,0.168804,0.250863,-0.083563,-1.733227,-0.700293,7.367148,-0.560282,1.728831,1,0,,38.990803,-76.937784,-5.955000,,,
2026-09-11T16:30:41.425,9.557089,2.375264,14.701723,21.993182,0.000000,7.199823,-2.477003,2.373044,-0.025184,-0.053019,-1.786302,6.345692,-10.336253,0.109557,0.017101,-0.051535,0.331171,-2.229444,5.787297,-0.538392,1.582145,1,0,,38.990803,-76.937784,-5.955000,,,
2026-09-11T16:30:41.458,9.590492,2.356394,14.780608,21.818463,0.000000,7.122919,-2.450545,2.354239,-0.031244,-0.065777,-1.788286,6.327812,-10.413161,0.026097,-0.044683,-0.064293,-1.634867,-1.037249,5.887030,-0.635345,1.516095,1,0,,38.990803,-76.937784,-5.955000,,,
2026-09-11T16:30:41.493,9.623911,2.356760,14.859447,21.821854,0.000000,7.122919,-2.450545,2.354605,-0.037565,-0.079083,-1.790707,6.309618,-10.489720,-0.065012,-0.104683,-0.077600,-0.334701,-0.384421,9.700738,-0.641467,1.495016,1,0,,38.990803,-76.937784,-5.955000,,,
2026-09-11T16:30:41.526,9.657330,2.308139,14.936509,21.371658,0.000000,7.171671,-2.467318,2.305999,-0.039804,-0.083798,-1.793428,6.291267,-10.565414,-0.088593,-0.095817,-0.082315,-1.604270,-1.698021,7.307916,-0.728203,1.389629,1,0,,38.990803,-76.937784,-5.955000,,,
2026-09-11T16:30:41.558,9.690730,2.279316,15.012022,21.104774,0.000000,7.518427,-2.586615,2.276993,-0.046099,-0.097051,-1.796449,6.272857,-10.639716,-0.054986,-0.091102,-0.095567,-0.328327,0.378341,13.407162,-0.730649,1.421538,1,0,,38.990803,-76.937784,-5.955000,,,
2026-09-11T16:30:41.592,9.724140,2.240787,15.086805,20.748028,0.000000,10.234110,-3.520909,2.236557,-0.054780,-0.115327,-1.799996,6.254217,-10.712792,0.018738,0.022198,-0.113843,0.005590,-0.502100,10.422998,-0.712150,1.398541,1,0,,38.990803,-76.937784,-5.955000,,,
2026-09-11T16:30:41.626,9.757547,2.221775,15.161087,20.571994,0.000000,15.898249,-5.469581,2.211659,-0.079675,-0.167737,-1.804724,6.234980,-10.784594,0.041933,0.103324,-0.166253,-0.834938,-1.071573,6.045211,-0.752297,1.346277,1,0,,38.990803,-76.937784,-5.955000,,,
2026-09-11T16:30:41.660,9.790949,2.202921,15.234595,20.397419,0.000000,17.615549,-6.060395,2.190609,-0.106413,-0.224027,-1.811267,6.214684,-10.855326,-0.031544,-0.318464,-0.222544,5.272055,-5.727476,23.363461,-0.399110,1.001252,1,0,,38.990803,-76.937784,-5.955000,,,
2026-09-11T16:30:41.693,9.824374,2.183985,15.307464,20.222080,0.000000,22.835429,-7.856225,2.163486,-0.141348,-0.297576,-1.819985,6.193031,-10.924917,0.049899,0.057821,-0.296092,6.174561,-3.174020,14.200912,0.006968,0.834966,1,0,,38.990803,-76.937784,-5.955000,,,
2026-09-11T16:30:41.725,9.857783,2.175068,15.379924,20.139514,0.000000,27.596629,-9.494253,2.145274,-0.175307,-0.369067,-1.831121,6.169777,-10.993234,0.018655,0.110268,-0.367583,0.021378,-3.232468,15.157158,0.008333,0.676390,1,0,,38.990803,-76.937784,-5.955000,,,
2026-09-11T16:30:41.759,9.891187,2.185414,15.452292,20.235311,0.000000,28.639644,-9.853088,2.153178,-0.189038,-0.397974,-1.843931,6.144984,-11.060880,0.003831,-0.107330,-0.396490,0.647141,0.112678,5.371004,0.045561,0.740143,1,0,,38.990803,-76.937784,-5.955000,,,
2026-09-11T16:30:41.792,9.924600,2.205045,15.525526,20.417085,0.000000,29.087337,-10.007111,2.171498,-0.201854,-0.424956,-1.857680,6.118739,-11.128509,0.003029,-0.172612,-0.423472,1.743132,1.223870,6.568690,0.142495,0.879355,1,0,,38.990803,-76.937784,-5.955000,,,
2026-09-11T16:30:41.827,9.958015,2.205105,15.599990,20.417638,0.000000,29.139522,-10.025065,2.171437,-0.179004,-0.376850,-1.871076,6.091651,-11.196123,0.017138,0.021611,-0.375367,-1.232892,-0.502297,7.988889,0.041008,0.898600,1,0,,38.990803,-76.937784,-5.955000,,,
2026-09-11T16:30:41.860,9.991425,2.205024,15.673133,20.416887,0.000000,28.305248,-9.738044,2.173252,-0.161902,-0.340846,-1.883065,6.064338,-11.263607,-0.023391,0.029447,-0.339363,-0.542994,-1.989279,10.023279,-0.014290,0.816428,1,0,,38.990803,-76.937784,-5.955000,,,
2026-09-11T16:30:41.893,10.024850,2.205281,15.746732,20.419269,0.000000,26.426585,-9.091715,2.177575,-0.149497,-0.314731,-1.894022,6.036676,-11.331054,-0.049262,0.019674,-0.313248,0.656261,-1.047939,9.271207,0.003559,0.792463,1,0,,38.990803,-76.937784,-5.955000,,,
2026-09-11T16:30:41.926,10.058257,2.225150,15.820877,20.603241,0.000000,26.210979,-9.017539,2.197648,-0.133271,-0.280571,-1.903965,6.008646,-11.398713,-0.110081,0.121837,-0.279087,-0.044914,-2.666722,8.214050,-0.033253,0.659628,1,0,,38.990803,-76.937784,-5.955000,,,
2026-09-11T16:30:41.959,10.091657,2.235397,15.894795,20.698116,0.000000,25.999492,-8.944779,2.208211,-0.166667,-0.350879,-1.914510,5.979493,-11.466450,0.190052,0.212883,-0.349395,1.271628,5.226160,8.048122,0.008380,1.048911,1,0,,38.990803,-76.937784,-5.955000,,,
2026-09-11T16:30:41.993,10.125064,2.235559,15.969214,20.699623,0.000000,25.893748,-8.908400,2.208592,-0.141886,-0.298708,-1.925361,5.949411,-11.534013,-0.144179,0.080795,-0.297225,-1.861204,-5.614111,7.714401,-0.154148,0.725396,1,0,,38.990803,-76.937784,-5.955000,,,
2026-09-11T16:30:42.027,10.158481,2.255492,16.045228,20.884185,0.000000,24.381068,-8.387982,2.231365,-0.138749,-0.292102,-1.935232,5.918922,-11.601805,-0.165724,-0.049781,-0.290619,1.096383,-6.003631,7.767455,-0.122582,0.379650,1,0,,38.990803,-76.937784,-5.955000,,,
2026-09-11T16:30:42.059,10.191885,2.314349,16.122108,21.429157,0.000000,19.416621,-6.680030,2.298637,-0.129374,-0.272366,-1.944660,5.887441,-11.670750,-0.165410,-0.133234,-0.270883,3.903439,-0.330876,4.686696,0.089424,0.403076,1,1,10.177237,38.990796,-76.937760,-6.052000,11.612196,5.324013,5.216907
2026-09-11T16:30:42.093,10.225295,2.246829,16.196709,20.803968,0.000000,16.972163,-5.839047,2.235171,-0.120197,-0.253047,-1.953437,5.855601,-11.739596,-0.133238,-0.052571,-0.251563,-0.387755,0.494549,5.269407,0.020832,0.475728,1,0,,38.990796,-76.937760,-6.052000,,,
2026-09-11T16:30:42.127,10.258701,2.237476,16.270991,20.717370,0.000000,16.041072,-5.518717,2.227105,-0.088723,-0.186785,-1.960784,5.824286,-11.807322,-0.019288,0.015312,-0.185302,-0.525538,-2.797543,7.342043,-0.056200,0.324969,1,0,,38.990796,-76.937760,-6.052000,,,
2026-09-11T16:30:42.161,10.292120,2.276183,16.347324,21.075767,0.000000,14.235881,-4.897666,2.267872,-0.070993,-0.149459,-1.966402,5.793070,-11.875688,-0.035730,-0.055031,-0.147975,2.193846,-1.377638,11.440340,0.045133,0.262707,1,0,,38.990796,-76.937760,-6.052000,,,
2026-09-11T16:30:42.194,10.325544,2.325075,16.425844,21.528473,0.000000,11.448099,-3.938566,2.319584,-0.051041,-0.107455,-1.970696,5.761491,-11.945580,-0.018346,-0.075628,-0.105971,0.706667,1.078437,12.030406,0.051045,0.354260,1,0,,38.990796,-76.937760,-6.052000,,,
2026-09-11T16:30:42.226,10.358951,2.335273,16.502998,21.622895,0.000000,7.061121,-2.429285,2.333174,-0.028115,-0.059189,-1.973479,5.729917,-12.016606,-0.008387,-0.018885,-0.057705,1.710966,-1.045389,13.794524,0.122553,0.300194,1,0,,38.990796,-76.937760,-6.052000,,,
2026-09-11T16:30:42.260,10.392358,2.325813,16.580652,21.535309,0.000000,4.771158,-1.641453,2.324859,-0.007548,-0.015890,-1.974733,5.698833,-12.087936,0.041045,0.003522,-0.014407,0.116405,0.078747,10.164887,0.091527,0.312892,1,0,,38.990796,-76.937760,-6.052000,,,
2026-09-11T16:30:42.294,10.425766,2.345532,16.659036,21.717888,0.000000,2.920648,-1.004810,2.345171,-0.003230,-0.006801,-1.975112,5.667993,-12.159589,0.033841,0.022021,-0.005317,0.304006,1.047350,10.106636,0.078128,0.386742,1,0,,38.990796,-76.937760,-6.052000,,,
2026-09-11T16:30:42.328,10.459182,2.355890,16.738012,21.813795,0.000000,2.222330,-0.764563,2.355680,0.017577,0.037005,-1.974608,5.637334,-12.231901,0.062746,-0.075955,0.038489,0.566628,-0.960365,8.419401,0.082091,0.323226,1,0,,38.990796,-76.937760,-6.052000,,,
2026-09-11T16:30:42.360,10.492606,2.356432,16.817033,21.818816,0.000000,2.343180,-0.806140,2.356199,0.007246,0.015254,-1.973734,5.606807,-12.304488,0.013706,-0.007575,0.016738,0.824151,-1.744995,9.486561,0.099946,0.212942,1,0,,38.990796,-76.937760,-6.052000,,,
2026-09-11T16:30:42.394,10.526013,2.366691,16.895964,21.913809,0.000000,2.292368,-0.788659,2.366467,0.002791,0.005875,-1.973381,5.576040,-12.377128,0.048216,0.023530,0.007359,-0.149257,-1.024599,9.998468,0.059981,0.151951,1,0,,38.990796,-76.937760,-6.052000,,,
2026-09-11T16:30:42.427,10.559416,2.357323,16.974712,21.827066,0.000000,2.178385,-0.749444,2.357121,0.000904,0.001904,-1.973251,5.545193,-12.449738,0.087832,-0.036032,0.003387,-0.033637,-0.615465,9.028787,0.035903,0.118713,1,0,,38.990796,-76.937760,-6.052000,,,
2026-09-11T16:30:42.460,10.592822,2.366870,17.053506,21.915460,0.000000,2.222330,-0.764563,2.366659,-0.001115,-0.002348,-1.973259,5.514286,-12.522333,0.136580,-0.013826,-0.000864,-0.369220,-0.216041,9.569231,-0.004981,0.112324,1,0,,38.990796,-76.937760,-6.052000,,,
2026-09-11T16:30:42.495,10.626240,2.357660,17.133302,21.830183,0.000000,2.178385,-0.749444,2.357458,0.000538,0.001132,-1.973279,5.483358,-12.594958,0.141712,-0.022105,0.002616,-0.305575,-0.033343,11.232439,-0.040765,0.117292,1,0,,38.990796,-76.937760,-6.052000,,,
2026-09-11T16:30:42.528,10.659660,2.367741,17.212096,21.923525,0.000000,2.222330,-0.764563,2.367530,0.000869,0.001829,-1.973230,5.452455,-12.667612,0.209141,-0.054078,0.003313,0.321462,0.891424,8.904929,-0.034326,0.181936,1,0,,38.990796,-76.937760,-6.052000,,,
2026-09-11T16:30:42.560,10.693065,2.368101,17.290617,21.926861,0.000000,2.420770,-0.832834,2.367851,-0.003233,-0.006805,-1.973313,5.421438,-12.740369,0.169037,-0.049285,-0.005322,-0.101793,-1.606525,9.643075,-0.052834,0.085596,1,0,,38.990796,-76.937760,-6.052000,,,
2026-09-11T16:30:42.594,10.726478,2.368442,17.369821,21.930015,0.000000,3.104669,-1.068120,2.368030,-0.011970,-0.025201,-1.973847,5.390191,-12.813058,0.137189,-0.094353,-0.023717,1.260841,-1.263195,8.220719,0.018597,0.015328,1,0,,38.990796,-76.937760,-6.052000,,,
2026-09-11T16:30:42.628,10.759885,2.340048,17.447384,21.667107,0.000000,5.727655,-1.970524,2.338664,-0.031500,-0.066315,-1.975376,5.358632,-12.885068,-0.016866,0.137588,-0.064832,-3.075464,-1.332724,-6.665188,-0.191092,-0.052476,1,0,,38.990796,-76.937760,-6.052000,,,
2026-09-11T16:30:42.662,10.793303,2.321105,17.526132,21.491716,0.000000,9.402582,-3.234833,2.317407,-0.064046,-0.134833,-1.978737,5.326422,-12.955903,-0.044846,-0.007853,-0.133350,-2.504226,1.080595,8.845598,-0.359496,0.046786,1,0,,38.990796,-76.937760,-6.052000,,,
2026-09-11T16:30:42.695,10.826754,2.321555,17.604334,21.495877,0.000000,18.083841,-6.221505,2.307882,-0.101988,-0.214711,-1.984583,5.292980,-13.025714,-0.135910,-0.022810,-0.213228,-0.069921,-0.111502,9.014371,-0.366482,0.079691,1,0,,38.990796,-76.937760,-6.052000,,,
2026-09-11T16:30:42.728,10.860159,2.331452,17.681669,21.587517,0.000000,22.187235,-7.633223,2.310792,-0.142840,-0.300715,-1.993192,5.257923,-13.094549,-0.227145,-0.006648,-0.299232,-0.075119,0.581142,8.753318,-0.375237,0.169879,1,0,,38.990796,-76.937760,-6.052000,,,
2026-09-11T16:30:42.761,10.893567,2.331371,17.759551,21.586765,0.000000,25.191310,-8.666735,2.304750,-0.177530,-0.373748,-2.004459,5.221055,-13.162466,-0.187247,-0.058314,-0.372264,-0.196427,-2.569833,8.389001,-0.393725,0.066030,1,0,,38.990796,-76.937760,-6.052000,,,
2026-09-11T16:30:42.796,10.926993,2.331570,17.838072,21.588614,0.000000,25.816844,-8.881942,2.303612,-0.174123,-0.366575,-2.016832,5.182943,-13.229651,-0.105472,-0.143812,-0.365091,-1.666248,-1.051861,12.500929,-0.509073,0.060420,1,0,,38.990796,-76.937760,-6.052000,,,
2026-09-11T16:30:42.828,10.960412,2.322525,17.915225,21.504858,0.000000,24.885066,-8.561376,2.296645,-0.153130,-0.322379,-2.028344,5.144464,-13.296421,0.000221,0.137923,-0.320896,0.353726,0.814344,7.556318,-0.492409,0.168894,1,0,,38.990796,-76.937760,-6.052000,,,
2026-09-11T16:30:42.862,10.993827,2.303315,17.992606,21.326993,0.000000,17.502254,-6.021418,2.290607,-0.127585,-0.268601,-2.038217,5.106072,-13.362918,0.126422,0.094890,-0.267117,-3.535788,3.762223,-4.608831,-0.727011,0.458760,1,0,,38.990796,-76.937760,-6.052000,,,
2026-09-11T16:30:42.895,11.027239,2.313200,18.069714,21.418521,0.000000,15.353053,-5.282014,2.303378,-0.086977,-0.183109,-2.045764,5.068037,-13.429677,0.187512,0.097297,-0.181626,-0.563196,-0.182502,7.508266,-0.768712,0.477698,1,0,,38.990796,-76.937760,-6.052000,,,
2026-09-11T16:30:42.929,11.060656,2.265199,18.145728,20.974061,0.000000,11.549036,-3.973292,2.259754,-0.040443,-0.085142,-2.050246,5.031128,-13.496426,0.090377,-0.000417,-0.083659,0.812677,-0.877793,5.793082,-0.722868,0.436606,1,0,,38.990796,-76.937760,-6.052000,,,
2026-09-11T16:30:42.962,11.094074,2.275529,18.222152,21.069713,0.000000,8.689844,-2.989625,2.272432,-0.053856,-0.113382,-2.053563,4.994687,-13.562828,0.205241,0.137801,-0.111898,-1.033719,3.099392,12.187999,-0.793900,0.657509,1,0,,38.990796,-76.937760,-6.052000,,,
2026-09-11T16:30:42.995,11.127481,2.285715,18.298439,21.164025,0.000000,6.877100,-2.365975,2.283766,-0.036640,-0.077136,-2.056745,4.957912,-13.629475,0.010086,0.141618,-0.075653,0.645081,2.766260,11.293142,-0.752785,0.849078,1,0,,38.990796,-76.937760,-6.052000,,,
2026-09-11T16:30:43.028,11.160888,2.305340,18.375137,21.345744,0.000000,5.808679,-1.998399,2.303938,-0.021107,-0.044435,-2.058776,4.921200,-13.696747,-0.044567,-0.137559,-0.042952,2.698594,-0.046680,0.990668,-0.581556,0.851817,1,0,,38.990796,-76.937760,-6.052000,,,
2026-09-11T16:30:43.063,11.194306,2.324813,18.453520,21.526050,0.000000,4.883768,-1.680195,2.323814,-0.026941,-0.056717,-2.060466,4.884180,-13.764639,0.048797,-0.023150,-0.055234,-2.281321,2.699280,6.622725,-0.738726,1.034093,1,0,,38.990796,-76.937760,-6.052000,,,
2026-09-11T16:30:43.096,11.227731,2.305639,18.530901,21.348511,0.000000,4.846689,-1.667439,2.304663,-0.011103,-0.023374,-2.061805,4.847192,-13.832579,-0.118952,0.006319,-0.021891,0.234869,1.155027,12.442285,-0.735917,1.109410,1,1,11.201722,38.990787,-76.937737,-6.139000,13.607051,4.252465,3.275684
2026-09-11T16:30:43.129,11.261137,2.286531,18.607143,21.171581,0.000000,4.859049,-1.671691,2.285558,-0.016543,-0.034827,-2.062777,4.810600,-13.899957,-0.085157,-0.016313,-0.033343,0.068941,-1.385287,11.005905,-0.746557,1.021216,1,0,,38.990787,-76.937737,-6.139000,,,
2026-09-11T16:30:43.162,11.294543,2.286695,18.683203,21.173102,0.000000,5.078775,-1.747285,2.285632,-0.030417,-0.064036,-2.064428,4.773787,-13.966852,-0.071143,0.016245,-0.062553,-0.280274,-1.726657,11.335017,-0.785849,0.916241,1,0,,38.990787,-76.937737,-6.139000,,,
2026-09-11T16:30:43.196,11.327949,2.287233,18.759809,21.178086,0.000000,7.729914,-2.659374,2.284770,-0.045345,-0.095463,-2.067092,4.736413,-14.033428,-0.003093,-0.050734,-0.093980,1.610546,-0.179658,6.276550,-0.706900,0.917121,1,0,,38.990787,-76.937737,-6.139000,,,
2026-09-11T16:30:43.229,11.361369,2.239137,18.835003,20.732747,0.000000,14.250986,-4.902862,2.230944,-0.082159,-0.172966,-2.071578,4.698464,-14.098682,0.014395,0.019293,-0.171483,1.912983,-3.347304,4.259322,-0.607400,0.723890,1,0,,38.990787,-76.937737,-6.139000,,,
2026-09-11T16:30:43.262,11.394773,2.249425,18.909467,20.828010,0.000000,15.926401,-5.479266,2.239147,-0.087474,-0.184156,-2.077542,4.659943,-14.162698,-0.045270,0.004271,-0.182672,2.818824,-2.076068,6.235853,-0.447083,0.616818,1,0,,38.990787,-76.937737,-6.139000,,,
2026-09-11T16:30:43.296,11.428182,2.269403,18.985572,21.012992,0.000000,16.021158,-5.511866,2.258910,-0.120039,-0.252714,-2.084840,4.620212,-14.226565,0.124154,0.006472,-0.251231,0.065606,-0.929965,9.928939,-0.464438,0.595299,1,0,,38.990787,-76.937737,-6.139000,,,
2026-09-11T16:30:43.330,11.461588,2.308733,19.062953,21.377162,0.000000,16.202433,-5.574231,2.297816,-0.120822,-0.254361,-2.093310,4.579011,-14.290685,0.204055,-0.070431,-0.252878,0.175049,-0.292827,4.265795,-0.473875,0.616109,1,0,,38.990787,-76.937737,-6.139000,,,
2026-09-11T16:30:43.364,11.494993,2.327916,19.141200,21.554777,0.000000,16.208613,-5.576358,2.316899,-0.112388,-0.236606,-2.101510,4.536903,-14.355360,0.184212,-0.009924,-0.235123,0.516222,-1.364988,5.598911,-0.459261,0.565001,1,0,,38.990787,-76.937737,-6.139000,,,
2026-09-11T16:30:43.397,11.528526,2.357324,19.220131,21.827071,0.000000,16.225779,-5.582263,2.346144,-0.132067,-0.278036,-2.110139,4.493514,-14.420524,0.084362,-0.125787,-0.276552,1.276924,2.555319,13.655564,-0.392843,0.775533,1,0,,38.990787,-76.937737,-6.139000,,,
2026-09-11T16:30:43.429,11.561931,2.396474,19.299836,22.189572,0.000000,18.434031,-6.341983,2.381808,-0.139374,-0.293418,-2.119684,4.448753,-14.485740,-0.079753,-0.127631,-0.291935,0.538875,-5.018651,10.790061,-0.372065,0.496100,1,0,,38.990787,-76.937737,-6.139000,,,
2026-09-11T16:30:43.463,11.595338,2.406460,19.380635,22.282035,0.000000,22.275126,-7.663461,2.384966,-0.156082,-0.328593,-2.130073,4.402664,-14.550850,-0.279677,0.008963,-0.327109,1.257801,-0.654005,7.304876,-0.304489,0.507533,1,0,,38.990787,-76.937737,-6.139000,,,
2026-09-11T16:30:43.497,11.628745,2.406913,19.461069,22.286231,0.000000,25.982326,-8.938874,2.377680,-0.181540,-0.382189,-2.141946,4.355296,-14.615008,-0.323533,0.100158,-0.380706,0.543975,-1.343511,8.629068,-0.285562,0.482331,1,0,,38.990787,-76.937737,-6.139000,,,
2026-09-11T16:30:43.531,11.662154,2.397903,19.541094,22.202805,0.000000,27.944072,-9.613786,2.364226,-0.189285,-0.398495,-2.154987,4.306855,-14.677981,-0.301618,0.013989,-0.397011,0.626057,-0.737852,10.821933,-0.258153,0.498742,1,0,,38.990787,-76.937737,-6.139000,,,
2026-09-11T16:30:43.564,11.695569,2.417817,19.622348,22.387197,0.000000,28.017543,-9.639063,2.383683,-0.196317,-0.413299,-2.168550,4.257307,-14.740261,-0.241790,0.002513,-0.411816,-0.761584,-1.275355,10.865474,-0.312182,0.482986,1,0,,38.990787,-76.937737,-6.139000,,,
2026-09-11T16:30:43.597,11.728976,2.388984,19.701416,22.120222,0.000000,28.141826,-9.681821,2.354957,-0.200616,-0.422350,-2.182508,4.206856,-14.801605,-0.123754,0.055094,-0.420866,-0.284099,-0.768743,12.092875,-0.328806,0.500786,1,0,,38.990787,-76.937737,-6.139000,,,
2026-09-11T16:30:43.630,11.762382,2.350477,19.779663,21.763676,0.000000,28.380779,-9.764029,2.316429,-0.205194,-0.431988,-2.196778,4.156077,-14.861231,-0.030372,0.012393,-0.430504,-1.864931,-0.733243,8.996032,-0.445400,0.521077,1,0,,38.990787,-76.937737,-6.139000,,,
2026-09-11T16:30:43.664,11.795786,2.330857,19.857272,21.582013,0.000000,28.325847,-9.745131,2.297224,-0.203011,-0.427392,-2.211131,4.104989,-14.919317,0.040505,-0.016765,-0.425909,-1.951720,-2.329079,8.693890,-0.559000,0.436715,1,0,,38.990787,-76.937737,-6.139000,,,
2026-09-11T16:30:43.698,11.829203,2.301788,19.934789,21.312854,0.000000,28.743327,-9.888759,2.267591,-0.193505,-0.407379,-2.225079,4.053714,-14.976165,0.049082,-0.029742,-0.405896,-0.902800,-2.758218,12.441697,-0.591522,0.321736,1,0,,38.990787,-76.937737,-6.139000,,,
2026-09-11T16:30:43.731,11.862625,2.273256,20.010393,21.048663,0.000000,30.774425,-10.587531,2.234554,-0.210508,-0.443176,-2.239293,4.002180,-15.031390,0.033651,0.009813,-0.441692,0.462482,-0.843470,9.418601,-0.525264,0.336216,1,0,,38.990787,-76.937737,-6.139000,,,
2026-09-11T16:30:43.764,11.896043,2.293065,20.087000,21.232084,0.000000,32.845348,-11.300005,2.248613,-0.229691,-0.483560,-2.254778,3.949562,-15.085206,-0.048037,-0.084285,-0.482076,-0.553683,-0.795712,10.113402,-0.517287,0.359903,1,0,,38.990787,-76.937737,-6.139000,,,
2026-09-11T16:30:43.797,11.929452,2.264437,20.162467,20.967011,0.000000,36.543622,-12.572347,2.210140,-0.237340,-0.499664,-2.271202,3.896027,-15.137566,-0.082018,0.091547,-0.498181,-1.083145,-0.688035,4.326302,-0.533803,0.391384,1,0,,38.990787,-76.937737,-6.139000,,,
2026-09-11T16:30:43.831,11.962858,2.245647,20.237706,20.793025,0.000000,42.419247,-14.593778,2.173194,-0.258531,-0.544276,-2.288639,3.842073,-15.187738,-0.178797,-0.112063,-0.542792,-4.758187,2.050865,4.644822,-0.778572,0.604734,1,0,,38.990787,-76.937737,-6.139000,,,
2026-09-11T16:30:43.865,11.996279,2.256014,20.313902,20.889021,0.000000,44.278683,-15.233492,2.176745,-0.280541,-0.590612,-2.307604,3.787020,-15.236039,-0.319476,-0.006786,-0.589128,-1.540527,-3.130479,9.165688,-0.808166,0.487206,1,0,,38.990787,-76.937737,-6.139000,,,
2026-09-11T16:30:43.898,12.029703,2.285897,20.390736,21.165713,0.000000,48.728146,-16.764270,2.188745,-0.312575,-0.658052,-2.328471,3.730172,-15.282812,-0.337507,-0.002551,-0.656568,-0.138274,-1.134335,11.487608,-0.740520,0.510151,1,0,,38.990787,-76.937737,-6.139000,,,
2026-09-11T16:30:43.931,12.063125,2.247572,20.465246,20.810853,0.000000,54.465756,-18.738219,2.128442,-0.338287,-0.712183,-2.351369,3.672196,-15.327086,-0.464068,0.068040,-0.710699,-1.935735,-0.151415,8.271419,-0.785492,0.601330,1,0,,38.990787,-76.937737,-6.139000,,,
2026-09-11T16:30:43.964,12.096530,2.169710,20.537295,20.089904,0.000000,57.482876,-19.776219,2.041743,-0.358721,-0.755203,-2.375878,3.614429,-15.367684,-0.465793,0.050679,-0.753719,-2.667605,-2.165995,9.375158,-0.876735,0.562850,1,0,,38.990787,-76.937737,-6.139000,,,
2026-09-11T16:30:43.997,12.129941,2.101821,20.607339,19.461304,0.000000,59.648559,-20.521293,1.968443,-0.367172,-0.772994,-2.401407,3.557272,-15.404652,-0.424315,0.030001,-0.771510,-2.254549,-1.803051,9.547362,-0.933407,0.546951,1,0,,38.990787,-76.937737,-6.139000,,,
2026-09-11T16:30:44.032,12.163362,2.024402,20.675287,18.744458,0.000000,60.142257,-20.691144,1.893825,-0.363837,-0.765973,-2.427124,3.500956,-15.438449,-0.347649,0.067035,-0.764490,-2.450878,-0.924277,9.449394,-0.995044,0.583492,1,0,,38.990787,-76.937737,-6.139000,,,
2026-09-11T16:30:44.065,12.196780,1.947196,20.739817,18.029590,0.000000,60.045440,-20.657835,1.821999,-0.352069,-0.741197,-2.452307,3.445832,-15.469412,-0.249882,0.087628,-0.739714,-2.622887,-1.937598,9.044870,-1.067020,0.547583,1,1,12.196950,38.990774,-76.937717,-6.267000,15.295671,2.852891,2.918556
2026-09-11T16:30:44.099,12.230198,1.860230,20.801704,17.224352,0.000000,60.110671,-20.680277,1.740367,-0.337409,-0.710335,-2.476561,3.392235,-15.497743,-0.177056,0.103250,-0.708852,-1.065394,-2.198259,10.160572,-1.037497,0.487817,1,0,,38.990774,-76.937717,-6.267000,,,
2026-09-11T16:30:44.131,12.263603,1.802341,20.861221,16.688343,0.000000,59.832580,-20.584603,1.687269,-0.313897,-0.660836,-2.499463,3.340176,-15.523925,-0.108664,0.126954,-0.659352,-2.933267,-0.427276,10.945693,-1.122857,0.535432,1,0,,38.990774,-76.937717,-6.267000,,,
2026-09-11T16:30:44.165,12.297009,1.696228,20.917593,15.705817,0.000000,60.053680,-20.660670,1.587138,-0.332362,-0.699711,-2.522189,3.289658,-15.547475,-0.161385,0.126170,-0.698227,-1.104131,0.317539,11.079651,-1.084414,0.630407,1,0,,38.990774,-76.937717,-6.267000,,,
2026-09-11T16:30:44.199,12.330417,1.677616,20.973191,15.533482,0.000000,60.048187,-20.658780,1.569742,-0.340368,-0.716564,-2.545846,3.239955,-15.568353,-0.090919,0.083616,-0.715081,-0.545152,-1.850319,11.070041,-1.013937,0.585041,1,0,,38.990774,-76.937717,-6.267000,,,
2026-09-11T16:30:44.233,12.363857,1.620002,21.027831,15.000022,0.000000,59.922531,-20.615550,1.516264,-0.352476,-0.742054,-2.570234,3.190525,-15.587122,0.002836,0.071531,-0.740571,-2.204535,-1.268294,7.090208,-1.058163,0.577837,1,0,,38.990774,-76.937717,-6.267000,,,
2026-09-11T16:30:44.265,12.397278,1.542552,21.080467,14.282887,0.000000,59.802368,-20.574209,1.444165,-0.322324,-0.678578,-2.593974,3.142618,-15.603836,-0.041857,-0.048654,-0.677094,-2.503834,2.123826,4.575489,-1.125257,0.780814,1,0,,38.990774,-76.937717,-6.267000,,,
2026-09-11T16:30:44.298,12.430685,1.475220,21.128682,13.659440,0.000000,59.748123,-20.555547,1.381296,-0.277438,-0.584080,-2.615064,3.096944,-15.619387,-0.004552,0.229421,-0.582597,-1.603093,1.896704,6.998712,-1.136799,0.955561,1,0,,38.990774,-76.937717,-6.267000,,,
2026-09-11T16:30:44.332,12.464094,1.456037,21.177626,13.481827,0.000000,58.468215,-20.115212,1.367223,-0.374666,-0.788771,-2.637997,3.051643,-15.632516,0.020792,0.006199,-0.787288,-1.711751,-6.045702,7.347927,-1.160486,0.632230,1,0,,38.990774,-76.937717,-6.267000,,,
2026-09-11T16:30:44.365,12.497503,1.436774,21.225841,13.303464,0.000000,58.384445,-20.086392,1.349384,-0.367890,-0.774505,-2.664111,3.005774,-15.642956,-0.056688,-0.019751,-0.773022,-1.378913,-2.496087,8.345361,-1.166091,0.539914,1,0,,38.990774,-76.937717,-6.267000,,,
2026-09-11T16:30:44.400,12.530925,1.368622,21.271823,12.672430,0.000000,58.162658,-20.010089,1.286002,-0.253069,-0.532777,-2.685957,2.961763,-15.653517,-0.275199,0.201334,-0.531293,-1.450502,-4.389457,14.285445,-1.181677,0.302782,1,0,,38.990774,-76.937717,-6.267000,,,
2026-09-11T16:30:44.432,12.564331,1.310073,21.315162,12.130305,0.000000,58.363159,-20.079068,1.230446,-0.322565,-0.679085,-2.706198,2.919707,-15.662956,-0.131866,0.124188,-0.677601,-2.763318,0.275273,5.504080,-1.283247,0.379816,1,0,,38.990774,-76.937717,-6.267000,,,
2026-09-11T16:30:44.465,12.597736,1.271659,21.357407,11.774618,0.000000,57.942245,-19.934259,1.195467,-0.349330,-0.735432,-2.729825,2.878167,-15.669384,-0.129335,0.041916,-0.733949,-0.960561,-0.623703,10.202447,-1.265131,0.400673,1,0,,38.990774,-76.937717,-6.267000,,,
2026-09-11T16:30:44.500,12.631149,1.242977,21.398787,11.509047,0.000000,56.746795,-19.522980,1.171515,-0.375744,-0.791039,-2.755326,2.837034,-15.673588,-0.095234,0.151314,-0.789556,0.070706,-2.446563,9.799099,-1.182633,0.306458,1,0,,38.990774,-76.937717,-6.267000,,,
2026-09-11T16:30:44.534,12.664571,1.175367,21.437705,10.883032,0.000000,55.555465,-19.113119,1.110574,-0.404065,-0.850664,-2.782761,2.796785,-15.675342,-0.034459,0.157877,-0.849180,0.217512,-2.816862,11.359239,-1.095419,0.190460,1,0,,38.990774,-76.937717,-6.267000,,,
2026-09-11T16:30:44.567,12.697991,1.136653,21.475985,10.524565,0.000000,53.111007,-18.272135,1.079341,-0.435945,-0.917779,-2.812311,2.757617,-15.674476,-0.022052,0.160453,-0.916295,-2.282694,-0.297730,8.258572,-1.170405,0.241724,1,0,,38.990774,-76.937717,-6.267000,,,
2026-09-11T16:30:44.599,12.731400,1.088303,21.511395,10.076879,0.000000,50.685775,-17.437767,1.038288,-0.461372,-0.971310,-2.843868,2.719359,-15.671135,0.054534,0.097430,-0.969826,-0.424334,-1.896214,10.195582,-1.119716,0.190166,1,0,,38.990774,-76.937717,-6.267000,,,
2026-09-11T16:30:44.632,12.764808,1.040352,21.545710,9.632888,0.000000,45.461090,-15.640283,1.001831,-0.497447,-1.047257,-2.877586,2.682195,-15.665200,0.054440,0.106894,-1.045773,-0.827289,-0.424040,10.536657,-1.093962,0.237036,1,0,,38.990774,-76.937717,-6.267000,,,
2026-09-11T16:30:44.667,12.798337,1.001940,21.578705,9.277222,0.000000,42.895782,-14.757723,0.968888,-0.539564,-1.135924,-2.914186,2.645941,-15.656382,0.127894,0.123177,-1.134440,-0.773941,-1.818839,9.778211,-1.065735,0.196345,1,0,,38.990774,-76.937717,-6.267000,,,
2026-09-11T16:30:44.700,12.831758,0.934761,21.610012,8.655196,0.000000,42.783859,-14.719217,0.904085,-0.567604,-1.194955,-2.953136,2.611517,-15.644761,0.153087,0.056508,-1.193472,-0.701764,2.730564,9.892753,-1.037051,0.449305,1,0,,38.990774,-76.937717,-6.267000,,,
2026-09-11T16:30:44.733,12.865162,0.896464,21.640044,8.300592,0.000000,42.476242,-14.613386,0.867464,-0.600862,-1.264973,-2.994222,2.579104,-15.630478,0.227720,0.092059,-1.263489,-1.546411,-0.747953,8.770676,-1.068908,0.475462,1,0,,38.990774,-76.937717,-6.267000,,,
2026-09-11T16:30:44.766,12.898568,0.838703,21.668253,7.765769,0.000000,42.735107,-14.702445,0.811241,-0.562099,-1.183366,-3.035116,2.548827,-15.614783,0.127481,0.145158,-1.181882,-0.828662,-2.712912,10.417899,-1.059130,0.365364,1,0,,38.990774,-76.937717,-6.267000,,,
2026-09-11T16:30:44.801,12.931974,0.819925,21.694867,7.591896,0.000000,43.020751,-14.800717,0.792720,-0.573266,-1.206877,-3.075040,2.520507,-15.598214,0.161912,0.116740,-1.205393,-1.662521,-4.933235,11.699824,-1.106905,0.112661,1,0,,38.990774,-76.937717,-6.267000,,,
2026-09-11T16:30:44.834,12.965391,0.752676,21.720114,6.969225,0.000000,44.431121,-15.285936,0.726048,-0.536891,-1.130296,-3.114092,2.494280,-15.580904,0.155687,0.148752,-1.128813,-0.836507,-2.168446,8.997013,-1.104200,0.032750,1,0,,38.990774,-76.937717,-6.267000,,,
2026-09-11T16:30:44.866,12.998796,0.714340,21.743037,6.614260,0.000000,44.028747,-15.147505,0.689521,-0.551057,-1.160120,-3.152348,2.470494,-15.562946,0.272923,0.070595,-1.158637,-2.325353,-1.462073,6.930360,-1.201687,-0.001901,1,0,,38.990774,-76.937717,-6.267000,,,
2026-09-11T16:30:44.901,13.032203,0.637075,21.764000,5.898838,0.000000,42.766006,-14.713075,0.616185,-0.547978,-1.153637,-3.190995,2.449249,-15.543968,0.356739,0.065105,-1.152154,0.177010,0.182894,11.244599,-1.139687,0.064470,1,0,,38.990774,-76.937717,-6.267000,,,
2026-09-11T16:30:44.935,13.065626,0.598705,21.784690,5.543561,0.000000,38.694198,-13.312224,0.582617,-0.575650,-1.211895,-3.230526,2.430573,-15.523866,0.371129,0.046245,-1.210411,0.298907,-3.438898,9.969146,-1.076338,-0.104555,1,0,,38.990774,-76.937717,-6.267000,,,
2026-09-11T16:30:44.967,13.099036,0.599239,21.805425,5.548505,0.000000,33.439987,-11.504583,0.587199,-0.588150,-1.238210,-3.271456,2.413279,-15.502411,0.414240,-0.020802,-1.236727,0.405603,-1.560336,10.765054,-1.012895,-0.148761,1,0,,38.990774,-76.937717,-6.267000,,,
2026-09-11T16:30:45.000,13.132454,0.619054,21.826433,5.731980,0.000000,27.750442,-9.547170,0.610480,-0.570496,-1.201044,-3.312213,2.396388,-15.480269,0.315554,-0.035390,-1.199561,-0.465031,-6.587617,10.693564,-1.012039,-0.517417,1,0,,38.990774,-76.937717,-6.267000,,,
2026-09-11T16:30:45.033,13.165862,0.590323,21.845619,5.465955,0.000000,28.202941,-9.702847,0.581879,-0.499684,-1.051966,-3.349847,2.380173,-15.458971,0.200297,0.042566,-1.050483,-1.040584,-4.028082,8.375860,-1.052134,-0.724148,1,0,,38.990774,-76.937717,-6.267000,,,
2026-09-11T16:30:45.066,13.199262,0.580806,21.864623,5.377834,0.000000,28.136337,-9.679932,0.572537,-0.408684,-0.860387,-3.381784,2.364728,-15.439894,0.064518,0.017897,-0.858903,0.093065,-2.277595,9.039378,-1.020813,-0.823058,1,1,13.198525,38.990763,-76.937714,-6.227000,15.615015,1.638828,2.918556
2026-09-11T16:30:45.101,13.232683,0.571240,21.883581,5.289259,0.000000,27.520416,-9.468033,0.563458,-0.301835,-0.635442,-3.406779,2.349295,-15.423650,-0.078378,0.086874,-0.633959,0.610268,-0.942713,10.484486,-0.960991,-0.843237,1,0,,38.990763,-76.937714,-6.227000,,,
2026-09-11T16:30:45.135,13.266105,0.561521,21.902402,5.199271,0.000000,25.196807,-8.668626,0.555107,-0.272190,-0.573031,-3.426975,2.333909,-15.409338,-0.086363,-0.020723,-0.571547,0.706569,1.561317,10.029653,-0.901247,-0.703689,1,0,,38.990763,-76.937714,-6.227000,,,
2026-09-11T16:30:45.167,13.299508,0.551987,21.921360,5.110988,0.000000,22.034805,-7.580781,0.547162,-0.082342,-0.173351,-3.439440,2.317961,-15.398369,-0.322664,0.083750,-0.171868,-0.208587,-1.251034,10.588927,-0.907498,-0.762151,1,0,,38.990763,-76.937714,-6.227000,,,
2026-09-11T16:30:45.200,13.332917,0.551987,21.939816,5.110988,0.000000,18.955886,-6.521521,0.548415,-0.159084,-0.334914,-3.447931,2.301694,-15.389076,-0.188053,-0.008203,-0.333430,-0.073354,1.573281,8.023017,-0.907928,-0.631489,1,0,,38.990763,-76.937714,-6.227000,,,
2026-09-11T16:30:45.235,13.366326,0.542167,21.957908,5.020066,0.000000,14.610107,-5.026413,0.540082,0.006432,0.013541,-3.453299,2.285141,-15.381115,-0.274179,0.056837,0.015025,0.166909,-0.092183,9.505684,-0.888317,-0.622389,1,0,,38.990763,-76.937714,-6.227000,,,
2026-09-11T16:30:45.268,13.399734,0.542248,21.976000,5.020817,0.000000,6.722605,-2.312823,0.541806,-0.028449,-0.059893,-3.454073,2.268055,-15.375216,-0.074739,-0.014259,-0.058410,-0.554566,-1.943188,9.228940,-0.913307,-0.730578,1,0,,38.990763,-76.937714,-6.227000,,,
2026-09-11T16:30:45.301,13.433153,0.523101,21.993181,4.843531,0.000000,-2.362402,0.812753,0.523049,0.028624,0.060261,-3.454067,2.251122,-15.369749,-0.084171,-0.004133,0.061744,0.048543,1.253486,10.572353,-0.903310,-0.634850,1,0,,38.990763,-76.937714,-6.227000,,,
2026-09-11T16:30:45.334,13.466559,0.494171,22.009815,4.575657,0.000000,-11.842230,4.074162,0.492922,0.036200,0.076211,-3.451788,2.234637,-15.365581,0.052045,0.003222,0.077694,-0.632529,-0.742658,9.975521,-0.937392,-0.669754,1,0,,38.990763,-76.937714,-6.227000,,,
2026-09-11T16:30:45.368,13.499962,0.494171,22.026312,4.575657,0.000000,-17.209051,5.920545,0.491535,0.041073,0.086470,-3.449070,2.218581,-15.361812,0.062392,-0.005051,0.087954,-0.171911,0.079140,9.755459,-0.941103,-0.651426,1,0,,38.990763,-76.937714,-6.227000,,,
2026-09-11T16:30:45.402,13.533380,0.474830,22.042171,4.396577,0.000000,-21.985357,7.563770,0.470699,0.042537,0.089551,-3.446129,2.202829,-15.358301,0.077391,0.006329,0.091034,-0.026478,-2.037135,9.869609,-0.938162,-0.770236,1,0,,38.990763,-76.937714,-6.227000,,,
2026-09-11T16:30:45.436,13.566802,0.484826,22.058622,4.489130,0.000000,-24.944800,8.581926,0.479398,0.046022,0.096888,-3.443014,2.187234,-15.354976,0.092094,0.000362,0.098372,-0.213197,-0.684210,10.619425,-0.946482,-0.800450,1,0,,38.990763,-76.937714,-6.227000,,,
2026-09-11T16:30:45.468,13.600211,0.494709,22.075028,4.580639,0.000000,-27.234076,9.369521,0.488109,0.047177,0.099321,-3.439736,2.171333,-15.351691,0.028815,-0.002879,0.100804,0.051975,-1.705475,8.708207,-0.937364,-0.896535,1,0,,38.990763,-76.937714,-6.227000,,,
2026-09-11T16:30:45.501,13.633618,0.446406,22.089429,4.133388,0.000000,-33.092535,11.385047,0.437622,0.049103,0.103375,-3.436351,2.156076,-15.348711,-0.007312,0.004346,0.104858,-0.260367,-0.696959,10.688268,-0.950116,-0.926086,1,0,,38.990763,-76.937714,-6.227000,,,
2026-09-11T16:30:45.535,13.667026,0.456754,22.105288,4.229202,0.000000,-33.871191,11.652933,0.447340,0.051732,0.108909,-3.432804,2.141436,-15.346054,-0.007339,0.002954,0.110393,0.300378,-0.822484,10.269132,-0.926746,-0.963660,1,0,,38.990763,-76.937714,-6.227000,,,
2026-09-11T16:30:45.569,13.700428,0.476441,22.121010,4.411487,0.000000,-34.279745,11.793490,0.466383,0.052490,0.110506,-3.429140,2.126314,-15.343368,-0.050405,0.003972,0.111990,0.209078,-0.560058,9.517354,-0.911340,-0.984015,1,0,,38.990763,-76.937714,-6.227000,,,
2026-09-11T16:30:45.602,13.733852,0.437759,22.135548,4.053328,0.000000,-35.935248,12.363044,0.427608,0.058829,0.123850,-3.425224,2.111455,-15.340943,-0.062490,0.005695,0.125334,0.179756,0.073844,10.129387,-0.901716,-0.963211,1,0,,38.990763,-76.937714,-6.227000,,,
2026-09-11T16:30:45.635,13.767260,0.457399,22.150951,4.235172,0.000000,-37.537192,12.914171,0.445829,0.060687,0.127763,-3.421021,2.096885,-15.338808,-0.090287,0.010156,0.129247,0.147100,-0.493176,9.628071,-0.896186,-0.979597,1,0,,38.990763,-76.937714,-6.227000,,,
2026-09-11T16:30:45.668,13.800661,0.467361,22.166081,4.327415,0.000000,-39.019659,13.424195,0.454592,0.061603,0.129690,-3.416721,2.081863,-15.336657,-0.089937,0.013022,0.131174,0.178285,0.343527,9.495191,-0.886881,-0.941797,1,0,,38.990763,-76.937714,-6.227000,,,
2026-09-11T16:30:45.703,13.834073,0.438398,22.180664,4.059244,0.000000,-39.790762,13.689482,0.425945,0.060992,0.128404,-3.412409,2.067145,-15.334662,-0.088305,-0.005176,0.129887,0.155632,-0.428158,9.893341,-0.879302,-0.954068,1,0,,38.990763,-76.937714,-6.227000,,,
2026-09-11T16:30:45.735,13.867498,0.458214,22.196386,4.242719,0.000000,-40.697821,14.001544,0.444600,0.060844,0.128092,-3.408123,2.052578,-15.332764,-0.114790,-0.002949,0.129575,0.484939,-1.363419,9.352014,-0.852819,-1.026904,1,0,,38.990763,-76.937714,-6.227000,,,
2026-09-11T16:30:45.768,13.900898,0.458293,22.211379,4.243453,0.000000,-42.290838,14.549600,0.443596,0.064951,0.136739,-3.403700,2.037712,-15.330916,-0.100685,0.006120,0.138222,0.109736,0.683033,9.522453,-0.851682,-0.966725,1,0,,38.990763,-76.937714,-6.227000,,,
2026-09-11T16:30:45.802,13.934305,0.448768,22.226144,4.155258,0.000000,-45.548285,15.670281,0.432088,0.060467,0.127298,-3.399290,2.023037,-15.329182,-0.058607,0.005055,0.128782,0.457382,-0.089241,10.566077,-0.829032,-0.956808,1,0,,38.990763,-76.937714,-6.227000,,,
2026-09-11T16:30:45.837,13.967722,0.439653,22.241548,4.070859,0.000000,-46.659964,16.052740,0.422510,0.068183,0.143543,-3.394764,2.008679,-15.327653,-0.075073,0.004580,0.145026,0.634490,-1.549353,9.869511,-0.795822,-1.041873,1,0,,38.990763,-76.937714,-6.227000,,,
2026-09-11T16:30:45.870,14.001146,0.478789,22.257270,4.433228,0.000000,-48.979452,16.850729,0.458231,0.062585,0.131758,-3.390163,1.993878,-15.326118,-0.030477,-0.002174,0.133241,0.245755,-0.084337,9.503232,-0.788341,-1.031149,1,0,,38.990763,-76.937714,-6.227000,,,
2026-09-11T16:30:45.903,14.034567,0.449923,22.272127,4.165954,0.000000,-50.608175,17.411070,0.429309,0.076753,0.161585,-3.385261,1.978927,-15.324761,-0.036926,-0.004476,0.163068,-0.267525,-0.063155,9.737513,-0.815403,-1.019754,1,0,,38.990763,-76.937714,-6.227000,,,
2026-09-11T16:30:45.936,14.067980,0.440632,22.287211,4.079924,0.000000,-53.781851,18.502930,0.417854,0.074560,0.156969,-3.379940,1.964580,-15.323838,-0.044369,-0.020369,0.158452,0.375104,-1.364890,10.036714,-0.800774,-1.092495,1,0,,38.990763,-76.937714,-6.227000,,,
2026-09-11T16:30:45.970,14.101381,0.479847,22.302751,4.443027,0.000000,-59.829825,20.583655,0.449213,0.080348,0.169154,-3.374493,1.949895,-15.322974,-0.070890,0.002414,0.170637,0.483860,0.201723,10.037597,-0.778242,-1.063719,1,0,,38.990763,-76.937714,-6.227000,,,
2026-09-11T16:30:46.004,14.134801,0.441263,22.317516,4.085765,0.000000,-60.895498,20.950286,0.412091,0.087871,0.184991,-3.368575,1.935242,-15.322429,-0.042706,0.004272,0.186474,0.182796,-0.739421,10.919411,-0.773705,-1.096188,1,0,,38.990763,-76.937714,-6.227000,,,
2026-09-11T16:30:46.036,14.168228,0.451611,22.333284,4.181579,0.000000,-62.272223,21.423930,0.420406,0.085352,0.179688,-3.362480,1.921032,-15.322162,-0.044350,0.001049,0.181172,0.104735,-1.876699,8.814315,-0.774395,-1.201899,1,0,,38.990763,-76.937714,-6.227000,,,
2026-09-11T16:30:46.069,14.201631,0.490826,22.348323,4.544682,0.000000,-63.348196,21.794104,0.455743,0.094316,0.198561,-3.356163,1.906097,-15.321933,-0.095363,-0.014812,0.200044,0.030499,-1.045095,10.139488,-0.783324,-1.253526,1,0,,38.990763,-76.937714,-6.227000,,,
2026-09-11T16:30:46.103,14.235040,0.442716,22.363589,4.099226,0.000000,-63.600195,21.880801,0.410824,0.083294,0.175355,-3.349917,1.891321,-15.321794,-0.094671,0.007676,0.176839,0.399131,-0.301358,9.528534,-0.768946,-1.255262,1,1,14.224580,38.990759,-76.937714,-6.286000,15.615159,1.130111,2.955003
2026-09-11T16:30:46.136,14.268448,0.472527,22.379950,4.375253,0.000000,-63.651694,21.898518,0.438433,0.070577,0.148584,-3.344506,1.876908,-15.321415,-0.046804,0.004192,0.150067,0.525342,-1.093245,9.978070,-0.744939,-1.307783,1,0,,38.990759,-76.937714,-6.286000,,,
2026-09-11T16:30:46.171,14.301858,0.492454,22.394350,4.559756,0.000000,-63.502005,21.847020,0.457086,0.082343,0.173353,-3.339128,1.861740,-15.320944,-0.084606,0.005741,0.174837,-0.047464,-0.593204,10.027202,-0.760439,-1.328274,1,0,,38.990759,-76.937714,-6.286000,,,
2026-09-11T16:30:46.204,14.335279,0.453966,22.410437,4.203391,0.000000,-63.365362,21.800010,0.421501,0.046850,0.098631,-3.334583,1.846917,-15.320211,-0.034977,0.004500,0.100115,0.093359,0.444045,10.022593,-0.767711,-1.278946,1,0,,38.990759,-76.937714,-6.286000,,,
2026-09-11T16:30:46.238,14.368700,0.464239,22.426661,4.298508,0.000000,-63.365362,21.800010,0.431039,0.046825,0.098578,-3.331287,1.832633,-15.319039,-0.030699,0.006926,0.100061,0.251443,-0.922806,9.317494,-0.765050,-1.318725,1,0,,38.990759,-76.937714,-6.286000,,,
2026-09-11T16:30:46.271,14.402101,0.444871,22.440788,4.119174,0.000000,-63.981283,22.011909,0.412442,0.034126,0.071844,-3.328441,1.818542,-15.317730,-0.026678,0.017475,0.073327,0.643905,-1.489140,9.948650,-0.738338,-1.393856,1,0,,38.990759,-76.937714,-6.286000,,,
2026-09-11T16:30:46.304,14.435510,0.455220,22.456693,4.215004,0.000000,-65.517309,22.540359,0.420446,0.021973,0.046260,-3.326468,1.804696,-15.316080,-0.019025,0.005366,0.047743,0.560842,-1.015184,10.135369,-0.716237,-1.436837,1,0,,38.990759,-76.937714,-6.286000,,,
2026-09-11T16:30:46.338,14.468916,0.484956,22.473053,4.490335,0.000000,-68.252218,23.481268,0.444797,0.011135,0.023442,-3.325304,1.790387,-15.313976,-0.017350,0.020916,0.024926,0.203292,-0.092379,9.235021,-0.720503,-1.419029,1,0,,38.990759,-76.937714,-6.286000,,,
2026-09-11T16:30:46.371,14.502334,0.504882,22.488320,4.674837,0.000000,-73.544195,25.301902,0.456448,0.001759,0.003703,-3.324851,1.775541,-15.311440,0.035166,0.009284,0.005187,0.350588,-0.160437,8.709678,-0.716627,-1.405252,1,0,,38.990759,-76.937714,-6.286000,,,
2026-09-11T16:30:46.406,14.535752,0.475920,22.505090,4.406667,0.000000,-76.620367,26.360218,0.426434,0.008932,0.018804,-3.324475,1.761003,-15.308930,0.034098,0.012380,0.020288,0.030891,-0.204273,9.271207,-0.730447,-1.394877,1,0,,38.990759,-76.937714,-6.286000,,,
2026-09-11T16:30:46.438,14.569159,0.515198,22.522225,4.770355,0.000000,-84.722098,29.147511,0.449958,0.007917,0.016667,-3.323882,1.746556,-15.306549,0.027090,0.002044,0.018151,0.385401,0.071392,9.711133,-0.724184,-1.366743,1,0,,38.990759,-76.937714,-6.286000,,,
2026-09-11T16:30:46.471,14.602561,0.534964,22.539725,4.953374,0.000000,-87.620428,30.144643,0.462616,0.014115,0.029716,-3.323107,1.731501,-15.304154,0.007579,0.002531,0.031200,0.529951,-0.315186,9.784683,-0.712937,-1.364347,1,0,,38.990759,-76.937714,-6.286000,,,
2026-09-11T16:30:46.505,14.635979,0.525246,22.557361,4.863385,0.000000,-90.224188,31.040432,0.450032,0.014574,0.030682,-3.322098,1.716414,-15.301880,0.007080,0.021144,0.032165,0.376673,-0.248108,10.247459,-0.712385,-1.357638,1,0,,38.990759,-76.937714,-6.286000,,,
2026-09-11T16:30:46.538,14.669403,0.535079,22.575772,4.954436,0.000000,-92.906912,31.963387,0.453954,0.013843,0.029144,-3.321098,1.701465,-15.299642,0.003748,0.027721,0.030627,0.440515,-0.688427,9.702896,-0.696574,-1.379477,1,0,,38.990759,-76.937714,-6.286000,,,
2026-09-11T16:30:46.571,14.702803,0.573930,22.594958,5.314170,0.000000,-97.998388,33.715042,0.477400,0.013897,0.029256,-3.320123,1.686078,-15.297329,0.001417,0.024529,0.030740,0.519066,-0.306360,9.559228,-0.655096,-1.376384,1,0,,38.990759,-76.937714,-6.286000,,,
2026-09-11T16:30:46.605,14.736211,0.593494,22.614599,5.495318,0.000000,-99.456824,34.216797,0.490770,0.019069,0.040146,-3.318964,1.670064,-15.295008,0.029953,0.017764,0.041629,0.264681,0.048249,9.986014,-0.612440,-1.350743,1,0,,38.990759,-76.937714,-6.286000,,,
2026-09-11T16:30:46.638,14.769623,0.593653,22.634241,5.496785,0.000000,-103.657034,35.661824,0.482326,0.025590,0.053873,-3.317393,1.653929,-15.292887,0.050155,0.025910,0.055356,0.513770,-1.591815,9.515589,-0.547054,-1.431958,1,0,,38.990759,-76.937714,-6.286000,,,
2026-09-11T16:30:46.672,14.803025,0.622914,22.654930,5.767720,0.000000,-110.822867,38.127133,0.490011,0.028562,0.060130,-3.315489,1.637780,-15.290953,0.051832,-0.005825,0.061613,0.553389,-1.317327,10.756130,-0.482646,-1.494711,1,0,,38.990759,-76.937714,-6.286000,,,
2026-09-11T16:30:46.706,14.836445,0.652167,22.676759,6.038581,0.000000,-111.266440,38.279738,0.511948,0.032432,0.068277,-3.313344,1.621112,-15.289078,0.084507,-0.019930,0.069761,0.218982,0.033637,9.859214,-0.439535,-1.469682,1,0,,38.990759,-76.937714,-6.286000,,,
2026-09-11T16:30:46.739,14.869873,0.681424,22.699409,6.309480,0.000000,-112.976874,38.868190,0.530551,0.034502,0.072636,-3.310988,1.603750,-15.287223,0.119365,-0.062343,0.074120,0.065410,-0.220061,8.665843,-0.403321,-1.461588,1,0,,38.990759,-76.937714,-6.286000,,,
2026-09-11T16:30:46.772,14.903275,0.662056,22.721420,6.130146,0.000000,-113.912085,39.189937,0.513130,0.112519,0.236881,-3.305819,1.586157,-15.286750,0.129014,-0.068406,0.238365,-2.907181,-3.071541,9.016234,-0.562251,-1.643516,1,0,,38.990759,-76.937714,-6.286000,,,
2026-09-11T16:30:46.806,14.936685,0.449115,22.737598,4.158476,0.000000,-114.189490,39.285375,0.347616,0.303534,0.639019,-3.291187,1.570896,-15.291351,-0.179009,-0.030549,0.640502,-4.660022,-5.724338,10.013472,-0.834966,-2.001784,1,0,,38.990759,-76.937714,-6.286000,,,
2026-09-11T16:30:46.840,14.970093,0.292002,22.747396,2.703722,0.000000,-116.502112,40.081002,0.223421,0.229540,0.483243,-3.272441,1.560198,-15.298814,-0.107967,0.019664,0.484726,-1.787066,-2.249547,9.898048,-0.914972,-2.123719,1,0,,38.990759,-76.937714,-6.286000,,,
2026-09-11T16:30:46.873,15.003500,0.137706,22.753275,1.275057,0.000000,-120.107001,41.321216,0.103420,0.179300,0.377473,-3.258064,1.553934,-15.304902,-0.124709,0.029360,0.378957,-0.957423,1.699591,9.611988,-0.942914,-1.984103,1,0,,38.990759,-76.937714,-6.286000,,,
