timestamp,time_s,speed_mps,distance_m,wheel_omega_rad_s,motor_current_A,steer_motor_deg,steer_column_deg,vx_mps,vy_mps,yaw_rate_rad_s,heading_rad,x_m,y_m,gyro_x_rad_s,gyro_y_rad_s,gyro_z_rad_s,accel_x_mps2,accel_y_mps2,accel_z_mps2,grade_deg,bank_deg,moving,gps_new_fix,gps_time_s,gps_latitude_deg,gps_longitude_deg,gps_altitude_m,gps_east_m,gps_north_m,gps_sigma_m
2026-09-11T16:34:18.941,0.000009,0.136799,0.000638,1.266656,0.000000,-89.879165,30.921731,0.117356,0.018262,0.038446,0.000000,0.000000,0.000000,-0.028036,-0.011420,0.039930,0.398150,-0.440613,9.692599,0.242012,-1.533577,0,0,,,,,,,
2026-09-11T16:34:18.976,0.033428,0.136799,0.005241,1.266656,0.000000,-81.508956,28.042072,0.120739,0.017629,0.037114,0.001263,0.003978,0.000602,-0.005449,-0.009306,0.038597,0.247226,-0.058350,9.614930,0.232209,-1.508816,0,0,,,,,,,
2026-09-11T16:34:19.009,0.066847,0.117555,0.008841,1.088473,0.000000,-70.527435,24.264026,0.107170,0.016004,0.033693,0.002446,0.007785,0.001171,0.007779,-0.009621,0.035177,0.381381,-0.557410,9.610517,0.232378,-1.516597,0,0,,,,,,,
2026-09-11T16:34:19.044,0.100268,0.166149,0.013854,1.538415,0.000000,-60.945296,20.967419,0.155147,0.008541,0.017981,0.003309,0.012168,0.001594,-0.004375,-0.004087,0.019465,0.255561,0.019417,9.732218,0.228643,-1.486877,0,1,0.104990,38.990773,-76.937876,-4.347000,0.000000,0.000000,4.758872
2026-09-11T16:34:19.077,0.133686,0.166149,0.019459,1.538415,0.000000,-56.881042,19.569166,0.156552,0.006770,0.014253,0.003848,0.017375,0.001869,-0.015752,0.001892,0.015737,0.243401,-0.148963,9.715841,0.227784,-1.468359,0,0,,38.990773,-76.937876,-4.347000,,,
2026-09-11T16:34:19.110,0.167104,0.146510,0.024153,1.356571,0.000000,-48.602843,16.721162,0.140315,0.008220,0.017306,0.004375,0.022334,0.002140,-0.044032,0.000192,0.018790,0.289002,-0.614092,9.708780,0.230475,-1.480181,0,0,,38.990773,-76.937876,-4.347000,,,
2026-09-11T16:34:19.144,0.200521,0.136866,0.029075,1.267280,0.000000,-45.296645,15.583708,0.131835,0.007801,0.016423,0.004939,0.026880,0.002428,-0.045942,0.005110,0.017907,0.397856,0.039521,9.732512,0.237061,-1.449528,0,0,,38.990773,-76.937876,-4.347000,,,
2026-09-11T16:34:19.177,0.233940,0.127223,0.032948,1.177988,0.000000,-37.298598,12.832087,0.124045,0.008233,0.017333,0.005503,0.031154,0.002719,-0.046907,0.004518,0.018816,0.244774,-0.488273,9.799884,0.230545,-1.453392,0,0,,38.990773,-76.937876,-4.347000,,,
2026-09-11T16:34:19.210,0.267362,0.166121,0.038326,1.538156,0.000000,-35.681548,12.275762,0.162323,0.008457,0.017804,0.006090,0.035938,0.003025,-0.058453,0.008027,0.019287,0.099636,-0.473465,9.573546,0.221843,-1.456304,0,0,,38.990773,-76.937876,-4.347000,,,
2026-09-11T16:34:19.244,0.300782,0.166121,0.043886,1.538156,0.000000,-33.163619,11.409502,0.162838,0.005568,0.011723,0.006583,0.041370,0.003294,-0.046685,0.002847,0.013207,0.039521,-0.284589,9.632092,0.216239,-1.446886,0,0,,38.990773,-76.937876,-4.347000,,,
2026-09-11T16:34:19.277,0.334197,0.146513,0.048489,1.356605,0.000000,-30.489822,10.489618,0.144065,0.008167,0.017194,0.007066,0.046496,0.003559,-0.019280,0.003436,0.018677,-0.175147,-0.299691,9.866275,0.199655,-1.438589,0,0,,38.990773,-76.937876,-4.347000,,,
2026-09-11T16:34:19.310,0.367617,0.098404,0.052225,0.911148,0.000000,-26.893859,9.252474,0.097124,0.003066,0.006455,0.007462,0.050524,0.003775,-0.005166,0.005109,0.007939,-0.031087,-0.719612,9.680242,0.195765,-1.457459,0,0,,38.990773,-76.937876,-4.347000,,,
2026-09-11T16:34:19.344,0.401036,0.088782,0.055051,0.822057,0.000000,-22.598891,7.774848,0.087966,0.002135,0.004494,0.007645,0.053617,0.003886,0.006263,0.000016,0.005978,-0.123956,-0.316461,9.826362,0.184949,-1.449995,0,0,,38.990773,-76.937876,-4.347000,,,
2026-09-11T16:34:19.378,0.434452,0.088782,0.058013,0.822057,0.000000,-21.831222,7.510741,0.088020,0.000546,0.001150,0.007739,0.056557,0.003953,0.029924,-0.000472,0.002633,-0.064037,-0.310773,9.773406,0.176538,-1.442227,0,0,,38.990773,-76.937876,-4.347000,,,
2026-09-11T16:34:19.411,0.467871,0.137376,0.062889,1.271999,0.000000,-20.929656,7.200570,0.136292,0.003864,0.008134,0.007894,0.060304,0.004056,0.048904,-0.001075,0.009617,-0.162692,-0.365102,9.716723,0.160783,-1.438128,0,0,,38.990773,-76.937876,-4.347000,,,
2026-09-11T16:34:19.444,0.501291,0.137376,0.067492,1.271999,0.000000,-20.354934,7.002844,0.136351,0.001287,0.002710,0.008075,0.064859,0.004179,0.075192,-0.005134,0.004194,-0.090025,-0.342350,9.679458,0.151876,-1.432553,0,0,,38.990773,-76.937876,-4.347000,,,
2026-09-11T16:34:19.478,0.534709,0.029360,0.067857,0.271856,0.000000,-20.179153,6.942369,0.029145,0.000843,0.001774,0.008150,0.067624,0.004237,0.096067,-0.002739,0.003258,-0.287825,-0.288316,9.761638,0.145958,-1.423521,0,0,,38.990773,-76.937876,-4.347000,,,
2026-09-11T16:34:19.511,0.568131,0.019541,0.068267,0.180934,0.000000,-20.122161,6.922762,0.019398,0.000434,0.000914,0.008195,0.068435,0.004265,0.091737,-0.002735,0.002398,-0.297141,-0.274684,9.747712,0.144048,-1.413702,0,0,,38.990773,-76.937876,-4.347000,,,
2026-09-11T16:34:19.545,0.601553,0.019541,0.068905,0.180934,0.000000,-19.819350,6.818584,0.019403,-0.000462,-0.000972,0.008194,0.069083,0.004269,0.066756,-0.000081,0.000512,-0.398935,-0.216237,9.770071,0.120132,-1.400204,0,0,,38.990773,-76.937876,-4.347000,,,
2026-09-11T16:34:19.578,0.634969,0.019541,0.069588,0.180934,0.000000,-19.743133,6.792362,0.019404,-0.000228,-0.000480,0.008170,0.069732,0.004263,0.048794,0.002734,0.001004,-0.183777,-0.185444,9.550402,0.102317,-1.384865,0,0,,38.990773,-76.937876,-4.347000,,,
2026-09-11T16:34:19.611,0.668390,0.019541,0.070226,0.180934,0.000000,-19.859862,6.832521,0.019402,0.001095,0.002306,0.008200,0.070380,0.004283,0.043543,0.002951,0.003790,-0.022849,-0.239282,9.801257,0.093782,-1.373185,0,0,,38.990773,-76.937876,-4.347000,,,
2026-09-11T16:34:19.645,0.701807,0.019541,0.070864,0.180934,0.000000,-20.289703,6.980402,0.019396,0.000356,0.000749,0.008251,0.071028,0.004313,0.019726,0.002973,0.002232,0.107089,0.011278,9.748006,0.096874,-1.345408,0,0,,38.990773,-76.937876,-4.347000,,,
2026-09-11T16:34:19.678,0.735222,0.019541,0.071548,0.180934,0.000000,-21.198135,7.292936,0.019383,0.004590,0.009663,0.008425,0.071675,0.004401,0.009806,0.004174,0.011147,0.179756,-0.145335,9.745849,0.107751,-1.328093,0,0,,38.990773,-76.937876,-4.347000,,,
2026-09-11T16:34:19.712,0.768650,0.019541,0.072186,0.180934,0.000000,-21.818862,7.506489,0.019373,0.002946,0.006202,0.008691,0.072322,0.004532,-0.001659,0.000904,0.007685,0.259876,-0.277920,9.710643,0.116779,-1.319547,0,0,,38.990773,-76.937876,-4.347000,,,
2026-09-11T16:34:19.745,0.802074,-0.186572,0.062661,-1.727520,0.000000,-22.146392,7.619172,-0.184925,0.001053,0.002217,0.008831,0.069555,0.004574,-0.004348,0.003573,0.003700,0.250854,-0.376870,9.440078,0.117572,-1.317471,0,0,,38.990773,-76.937876,-4.347000,,,
2026-09-11T16:34:19.778,0.835495,-0.069947,0.060155,-0.647659,0.000000,-22.674422,7.800833,-0.069300,0.003576,0.007529,0.008994,0.065306,0.004614,-0.035505,0.006366,0.009012,0.321658,0.375301,9.607183,0.122311,-1.266701,0,0,,38.990773,-76.937876,-4.347000,,,
2026-09-11T16:34:19.812,0.868917,-0.011635,0.060200,-0.107728,0.000000,-23.105636,7.949187,-0.011523,0.002070,0.004358,0.009193,0.063955,0.004696,-0.037732,0.003786,0.005842,0.481605,-0.593008,9.870197,0.137351,-1.279231,0,0,,38.990773,-76.937876,-4.347000,,,
2026-09-11T16:34:19.845,0.902335,-0.000000,0.060246,-0.000000,0.000000,-23.030105,7.923201,-0.000000,0.000582,0.001225,0.009286,0.063762,0.004739,-0.040456,0.005370,0.002709,0.341762,-0.106402,9.742220,0.143173,-1.260114,0,0,,38.990773,-76.937876,-4.347000,,,
2026-09-11T16:34:19.878,0.935752,-0.000000,0.060246,-0.000000,0.000000,-22.995086,7.911153,-0.000000,0.000476,0.001002,0.009323,0.063762,0.004756,-0.040130,0.005376,0.002486,0.344998,-0.300476,9.745064,0.149138,-1.253777,0,0,,38.990773,-76.937876,-4.347000,,,
2026-09-11T16:34:19.912,0.969171,-0.000000,0.060246,-0.000000,0.000000,-22.940154,7.892255,-0.000000,0.000397,0.000837,0.009354,0.063761,0.004771,-0.034920,0.002277,0.002320,0.308321,-0.245559,9.685440,0.152663,-1.243954,0,0,,38.990773,-76.937876,-4.347000,,,
2026-09-11T16:34:19.945,1.002587,-0.000000,0.060246,-0.000000,0.000000,-22.863250,7.865797,-0.000000,0.000354,0.000746,0.009380,0.063761,0.004784,-0.015346,0.002817,0.002229,0.265662,-0.307929,9.694854,0.153385,-1.238279,0,0,,38.990773,-76.937876,-4.347000,,,
2026-09-11T16:34:19.979,1.036005,-0.000000,0.060246,-0.000000,0.000000,-22.819305,7.850678,-0.000000,-0.000135,-0.000284,0.009388,0.063761,0.004787,-0.004274,0.001047,0.001199,0.159358,-0.286452,9.708976,0.134029,-1.231275,0,0,,38.990773,-76.937876,-4.347000,,,
2026-09-11T16:34:20.012,1.069426,-0.000000,0.060246,-0.000000,0.000000,-22.731414,7.820441,-0.000000,-0.000623,-0.001311,0.009361,0.063761,0.004775,0.005149,0.000797,0.000173,0.142589,-0.272135,9.759872,0.108076,-1.223422,0,0,,38.990773,-76.937876,-4.347000,,,
2026-09-11T16:34:20.046,1.102850,-0.000000,0.060246,-0.000000,0.000000,-22.598205,7.774612,-0.000000,-0.001297,-0.002730,0.009294,0.063762,0.004743,0.017584,0.000175,-0.001246,0.073060,-0.293807,9.742711,0.089104,-1.217058,0,1,1.106029,38.990773,-76.937877,-4.362000,-0.023911,-0.067458,4.760089
2026-09-11T16:34:20.079,1.136266,-0.000000,0.060246,-0.000000,0.000000,-22.359252,7.692403,-0.000000,-0.002507,-0.005278,0.009160,0.063762,0.004679,0.026252,-0.000124,-0.003794,0.135038,-0.334701,9.719175,0.078830,-1.213414,0,0,,38.990773,-76.937877,-4.362000,,,
2026-09-11T16:34:20.112,1.169685,-0.000000,0.060246,-0.000000,0.000000,-21.495452,7.395224,-0.000000,-0.004412,-0.009289,0.008917,0.063763,0.004563,0.031718,0.001521,-0.007805,0.193387,-0.368044,9.708191,0.073190,-1.211969,0,0,,38.990773,-76.937877,-4.362000,,,
2026-09-11T16:34:20.146,1.203100,-0.000000,0.060246,-0.000000,0.000000,-20.032211,6.891816,-0.000000,-0.009823,-0.020679,0.008416,0.063765,0.004326,0.038438,-0.000932,-0.019195,0.226239,-0.228789,9.734179,0.069739,-1.201525,0,0,,38.990773,-76.937877,-4.362000,,,
2026-09-11T16:34:20.179,1.236522,-0.000000,0.060246,-0.000000,0.000000,-17.940688,6.172255,-0.000000,-0.005056,-0.010644,0.007893,0.063767,0.004077,0.033271,0.001881,-0.009161,0.345194,-0.024615,9.710447,0.074027,-1.177972,0,0,,38.990773,-76.937877,-4.362000,,,
2026-09-11T16:34:20.213,1.269945,-0.000000,0.060246,-0.000000,0.000000,-14.088607,4.846998,-0.000000,-0.004321,-0.009096,0.007563,0.063769,0.003920,0.027636,0.004217,-0.007612,0.447085,-0.187503,9.717017,0.084862,-1.165229,0,0,,38.990773,-76.937877,-4.362000,,,
2026-09-11T16:34:20.246,1.303362,-0.000000,0.060246,-0.000000,0.000000,-11.448455,3.938689,-0.000000,-0.003441,-0.007244,0.007290,0.063770,0.003791,0.006924,0.000916,-0.005761,0.476701,-0.120818,9.696325,0.097493,-1.148311,0,0,,38.990773,-76.937877,-4.362000,,,
2026-09-11T16:34:20.279,1.336779,-0.000000,0.060246,-0.000000,0.000000,-11.305633,3.889553,-0.000000,-0.001879,-0.003955,0.007103,0.063770,0.003702,0.006563,0.001426,-0.002472,0.401975,-0.165929,9.702700,0.105147,-1.134501,0,0,,38.990773,-76.937877,-4.362000,,,
2026-09-11T16:34:20.313,1.370196,-0.000000,0.060246,-0.000000,0.000000,-11.305633,3.889553,-0.000000,0.001502,0.003163,0.007089,0.063770,0.003695,0.014449,0.002949,0.004646,0.462089,0.001177,9.686715,0.116608,-1.110026,0,0,,38.990773,-76.937877,-4.362000,,,
2026-09-11T16:34:20.347,1.403615,-0.000000,0.060246,-0.000000,0.000000,-11.471801,3.946721,-0.000000,0.003293,0.006933,0.007258,0.063770,0.003776,0.007150,-0.000202,0.008416,0.340977,-0.192406,9.707701,0.120102,-1.098354,0,0,,38.990773,-76.937877,-4.362000,,,
2026-09-11T16:34:20.380,1.437031,-0.000000,0.060246,-0.000000,0.000000,-11.624923,3.999400,-0.000000,0.003051,0.006423,0.007481,0.063769,0.003882,0.000056,0.002893,0.007907,0.310380,-0.166027,9.740946,0.121578,-1.085105,0,0,,38.990773,-76.937877,-4.362000,,,
2026-09-11T16:34:20.414,1.470450,-0.000000,0.060246,-0.000000,0.000000,-11.635909,4.003180,-0.000000,0.000919,0.001936,0.007621,0.063768,0.003948,-0.011404,0.001040,0.003419,0.281157,-0.229672,9.688186,0.121145,-1.076123,0,0,,38.990773,-76.937877,-4.362000,,,
2026-09-11T16:34:20.447,1.503870,-0.000000,0.060246,-0.000000,0.000000,-11.635909,4.003180,-0.000000,0.000567,0.001194,0.007673,0.063768,0.003973,-0.016292,0.001830,0.002678,0.230554,-0.158475,9.758892,0.117442,-1.062630,0,0,,38.990773,-76.937877,-4.362000,,,
2026-09-11T16:34:20.480,1.537314,-0.000000,0.060246,-0.000000,0.000000,-11.723800,4.033417,-0.000000,0.004118,0.008669,0.007838,0.063768,0.004051,-0.027972,0.004180,0.010152,0.048249,-0.095321,9.734277,0.101969,-1.045185,0,0,,38.990773,-76.937877,-4.362000,,,
2026-09-11T16:34:20.514,1.570736,-0.000000,0.060246,-0.000000,0.000000,-11.655135,4.009794,-0.000000,-0.001853,-0.003901,0.007918,0.063767,0.004089,-0.015145,0.000810,-0.002418,-0.050897,-0.407761,9.753694,0.080259,-1.048176,0,0,,38.990773,-76.937877,-4.362000,,,
2026-09-11T16:34:20.547,1.604153,-0.000000,0.060246,-0.000000,0.000000,-11.613250,3.995384,-0.000000,0.000590,0.001242,0.007873,0.063767,0.004068,-0.000311,0.003087,0.002725,-0.084141,0.033833,9.712212,0.056641,-1.022544,0,0,,38.990773,-76.937877,-4.362000,,,
2026-09-11T16:34:20.580,1.637573,-0.000000,0.060246,-0.000000,0.000000,-11.748519,4.041922,-0.000000,0.002120,0.004463,0.007969,0.063767,0.004113,0.004359,0.004048,0.005946,0.111011,-0.305771,9.724372,0.045914,-1.019182,0,0,,38.990773,-76.937877,-4.362000,,,
2026-09-11T16:34:20.614,1.670991,-0.000000,0.060246,-0.000000,0.000000,-12.186599,4.192637,-0.000000,0.001591,0.003349,0.008099,0.063767,0.004175,-0.005713,0.002047,0.004832,0.232810,-0.090417,9.708682,0.043191,-1.001915,0,0,,38.990773,-76.937877,-4.362000,,,
2026-09-11T16:34:20.648,1.704414,-0.000000,0.060246,-0.000000,0.000000,-12.481170,4.293980,-0.000000,0.001850,0.003895,0.008220,0.063766,0.004233,-0.011739,0.004226,0.005379,0.290865,-0.314205,9.731041,0.044256,-0.999327,0,0,,38.990773,-76.937877,-4.362000,,,
2026-09-11T16:34:20.681,1.737836,-0.000000,0.060246,-0.000000,0.000000,-12.470870,4.290437,-0.000000,0.000010,0.000021,0.008286,0.063766,0.004264,-0.021265,0.005048,0.001505,0.339310,-0.159750,9.707995,0.048444,-0.986768,0,0,,38.990773,-76.937877,-4.362000,,,
2026-09-11T16:34:20.714,1.771257,-0.000000,0.060246,-0.000000,0.000000,-12.470870,4.290437,-0.000000,-0.000202,-0.000426,0.008279,0.063766,0.004260,-0.009467,0.004103,0.001057,0.388834,-0.305281,9.737415,0.055792,-0.983770,0,0,,38.990773,-76.937877,-4.362000,,,
2026-09-11T16:34:20.748,1.804671,-0.000000,0.060246,-0.000000,0.000000,-12.558761,4.320675,-0.000000,-0.001681,-0.003539,0.008213,0.063766,0.004229,0.003697,0.004029,-0.002055,0.380890,-0.245460,9.712801,0.062543,-0.976934,0,0,,38.990773,-76.937877,-4.362000,,,
2026-09-11T16:34:20.781,1.838088,-0.000000,0.060246,-0.000000,0.000000,-12.626052,4.343825,-0.000000,0.000770,0.001621,0.008181,0.063766,0.004214,0.021345,0.001669,0.003105,0.399033,-0.212412,9.715448,0.047643,-0.968033,0,0,,38.990773,-76.937877,-4.362000,,,
2026-09-11T16:34:20.814,1.871511,-0.000000,0.060246,-0.000000,0.000000,-12.896590,4.436900,-0.000000,0.000150,0.000315,0.008213,0.063766,0.004229,0.036858,0.001424,0.001798,0.345390,-0.212216,9.727118,0.023435,-0.959217,0,0,,38.990773,-76.937877,-4.362000,,,
2026-09-11T16:34:20.848,1.904926,-0.000000,0.060246,-0.000000,0.000000,-12.998214,4.471863,-0.000000,0.000152,0.000320,0.008224,0.063766,0.004234,0.041177,0.000916,0.001804,0.307635,-0.238400,9.725255,0.041303,-0.952196,0,0,,38.990773,-76.937877,-4.362000,,,
2026-09-11T16:34:20.881,1.938339,-0.000000,0.060246,-0.000000,0.000000,-12.998214,4.471863,-0.000000,0.000091,0.000192,0.008232,0.063766,0.004238,0.037581,-0.000153,0.001676,0.281647,-0.162300,9.718488,0.074769,-0.940327,0,0,,38.990773,-76.937877,-4.362000,,,
2026-09-11T16:34:20.915,1.971756,-0.000000,0.060246,-0.000000,0.000000,-12.931609,4.448948,-0.000000,-0.001409,-0.002967,0.008186,0.063766,0.004216,0.030367,0.001539,-0.001483,0.181325,-0.155533,9.726824,0.081975,-0.928150,0,0,,38.990773,-76.937877,-4.362000,,,
2026-09-11T16:34:20.948,2.005174,-0.000000,0.060246,-0.000000,0.000000,-12.758575,4.389418,-0.000000,-0.000860,-0.001810,0.008106,0.063767,0.004178,0.020951,0.001458,-0.000326,0.166713,-0.191328,9.714664,0.076672,-0.918425,0,0,,38.990773,-76.937877,-4.362000,,,
2026-09-11T16:34:20.981,2.038598,-0.000000,0.060246,-0.000000,0.000000,-12.492156,4.297760,-0.000000,-0.001039,-0.002188,0.008039,0.063767,0.004147,0.011606,0.000435,-0.000704,0.131311,-0.111698,9.721332,0.067037,-0.903650,0,0,,38.990773,-76.937877,-4.362000,,,
2026-09-11T16:34:21.015,2.072016,-0.000000,0.060246,-0.000000,0.000000,-12.492156,4.297760,-0.000000,0.000810,0.001706,0.008031,0.063767,0.004143,0.007335,0.002913,0.003189,0.159554,-0.110913,9.727510,0.059338,-0.888991,0,0,,38.990773,-76.937877,-4.362000,,,
2026-09-11T16:34:21.048,2.105436,0.353505,0.073280,3.273196,0.000000,-12.558761,4.320675,0.352501,0.001984,0.004177,0.008129,0.069657,0.004237,-0.008670,0.002241,0.005661,0.183875,-0.144746,9.721528,0.053298,-0.876779,0,1,2.107484,38.990773,-76.937877,-4.414000,-0.077783,-0.100631,4.760697
2026-09-11T16:34:21.081,2.138856,0.093131,0.075695,0.862324,0.000000,-12.558761,4.320675,0.092866,0.000259,0.000546,0.008208,0.077098,0.004335,-0.028059,0.002162,0.002029,0.207411,-0.165438,9.708388,0.031791,-0.865950,0,0,,38.990773,-76.937877,-4.414000,,,
2026-09-11T16:34:21.115,2.172279,-0.333866,0.067401,-3.091352,0.000000,-12.476363,4.292327,-0.332930,-0.000103,-0.000217,0.008214,0.073086,0.004305,-0.048809,0.004345,0.001267,0.164163,-0.079728,9.719273,-0.004469,-0.849692,0,0,,38.990773,-76.937877,-4.414000,,,
2026-09-11T16:34:21.148,2.205701,-0.178366,0.060109,-1.651535,0.000000,-12.360320,4.252404,-0.177875,0.002257,0.004752,0.008290,0.064550,0.004271,-0.064946,0.003991,0.006236,0.217610,-0.133567,9.728491,-0.022076,-0.837041,0,0,,38.990773,-76.937877,-4.414000,,,
2026-09-11T16:34:21.182,2.239124,-0.032584,0.060200,-0.301708,0.000000,-12.360320,4.252404,-0.032495,0.002154,0.004535,0.008445,0.061034,0.004315,-0.071445,0.004246,0.006018,0.202115,-0.197604,9.729864,-0.028708,-0.828721,0,0,,38.990773,-76.937877,-4.414000,,,
2026-09-11T16:34:21.216,2.272545,-0.000000,0.060246,-0.000000,0.000000,-12.645278,4.350440,-0.000000,0.002988,0.006291,0.008626,0.060491,0.004397,-0.066750,0.006163,0.007775,0.337545,-0.228397,9.719665,-0.024233,-0.822497,0,0,,38.990773,-76.937877,-4.414000,,,
2026-09-11T16:34:21.249,2.305960,-0.000000,0.060246,-0.000000,0.000000,-13.146529,4.522889,-0.000000,0.002922,0.006151,0.008834,0.060490,0.004495,-0.056436,0.006387,0.007635,0.379517,-0.300378,9.725843,-0.016684,-0.821003,0,0,,38.990773,-76.937877,-4.414000,,,
2026-09-11T16:34:21.282,2.339380,-0.000000,0.060246,-0.000000,0.000000,-13.613448,4.683526,-0.000000,0.003358,0.007070,0.009055,0.060489,0.004600,-0.032711,0.004071,0.008554,0.406780,-0.294494,9.673378,0.014682,-0.819143,0,0,,38.990773,-76.937877,-4.414000,,,
2026-09-11T16:34:21.316,2.372800,-0.000000,0.060246,-0.000000,0.000000,-13.657394,4.698645,-0.000000,-0.001569,-0.003303,0.009118,0.060489,0.004630,0.008410,0.000833,-0.001820,0.377360,-0.479643,9.702798,0.049176,-0.829291,0,0,,38.990773,-76.937877,-4.414000,,,
2026-09-11T16:34:21.349,2.406219,0.265129,0.064439,2.454897,0.000000,-13.590789,4.675730,0.264247,0.001639,0.003451,0.009120,0.064904,0.004672,0.017060,0.000670,0.004934,0.589772,-0.687937,10.171458,0.052821,-0.852869,0,0,,38.990773,-76.937877,-4.414000,,,
2026-09-11T16:34:21.384,2.439668,0.189566,0.075740,1.755240,0.000000,-14.848037,5.108270,0.188813,-0.007309,-0.015388,0.008920,0.072482,0.004645,0.113444,-0.005910,-0.013905,0.104931,0.526127,10.144882,0.007519,-0.797294,0,0,,38.990773,-76.937877,-4.414000,,,
2026-09-11T16:34:21.417,2.473103,0.035270,0.075604,0.326574,0.000000,-15.336242,5.276230,0.035121,-0.000883,-0.001860,0.008632,0.076226,0.004541,0.145449,-0.005153,-0.000376,0.751680,-0.421882,9.490680,0.007833,-0.803942,0,0,,38.990773,-76.937877,-4.414000,,,
2026-09-11T16:34:21.449,2.506512,0.006340,0.075649,0.058699,0.000000,-15.991302,5.501595,0.006310,0.004387,0.009237,0.008755,0.076918,0.004606,0.099438,-0.002058,0.010720,1.168658,0.164359,9.864706,0.042364,-0.772581,0,0,,38.990773,-76.937877,-4.414000,,,
2026-09-11T16:34:21.482,2.539923,-0.000000,0.075604,-0.000000,0.000000,-16.382003,5.636010,-0.000000,0.006473,0.013627,0.009137,0.077021,0.004788,0.041381,0.001810,0.015110,0.068352,0.005590,10.098888,0.019325,-0.751838,0,0,,38.990773,-76.937877,-4.414000,,,
2026-09-11T16:34:21.516,2.573318,-0.000000,0.075604,-0.000000,0.000000,-16.291366,5.604828,-0.000000,0.002615,0.005506,0.009457,0.077020,0.004940,-0.045143,0.001838,0.006989,0.623605,-0.118955,9.814397,0.020131,-0.739391,0,0,,38.990773,-76.937877,-4.414000,,,
2026-09-11T16:34:21.549,2.606747,0.009643,0.075877,0.089292,0.000000,-16.587997,5.706880,0.009596,0.006268,0.013196,0.009769,0.077179,0.005090,-0.064930,0.001968,0.014679,0.303320,0.142785,9.577273,-0.005335,-0.710129,0,0,,38.990773,-76.937877,-4.414000,,,
2026-09-11T16:34:21.582,2.640157,0.009643,0.076196,0.089292,0.000000,-19.677215,6.769684,0.009576,0.012298,0.025891,0.010422,0.077496,0.005403,-0.021749,0.001706,0.027374,0.406290,-0.136312,10.067409,-0.004409,-0.699278,0,0,,38.990773,-76.937877,-4.414000,,,
2026-09-11T16:34:21.616,2.673577,0.009643,0.076515,0.089292,0.000000,-22.358565,7.692167,0.009557,0.008363,0.017606,0.011149,0.077812,0.005752,0.024416,0.004273,0.019090,0.524852,-0.351176,9.707995,0.012552,-0.702447,0,0,,38.990773,-76.937877,-4.414000,,,
2026-09-11T16:34:21.649,2.706985,0.009643,0.076834,0.089292,0.000000,-22.358565,7.692167,0.009557,0.006323,0.013311,0.011665,0.078129,0.006001,0.037743,0.005111,0.014795,0.984980,-0.305477,9.537948,0.045550,-0.702620,0,0,,38.990773,-76.937877,-4.414000,,,
2026-09-11T16:34:21.683,2.740399,0.262086,0.091281,2.426720,0.000000,-22.072234,7.593659,0.259787,0.003167,0.006668,0.011999,0.082626,0.006214,0.039361,-0.000397,0.008151,1.343217,-0.190249,9.583843,0.090220,-0.695438,0,0,,38.990773,-76.937877,-4.414000,,,
2026-09-11T16:34:21.717,2.773823,0.075814,0.091782,0.701982,0.000000,-21.362243,7.349395,0.075191,0.006463,0.013606,0.012338,0.088222,0.006442,0.049374,-0.008352,0.015089,1.120116,-0.208882,9.752419,0.118942,-0.689493,0,0,,38.990773,-76.937877,-4.414000,,,
2026-09-11T16:34:21.750,2.807246,0.075814,0.094334,0.701982,0.000000,-20.600753,7.087415,0.075235,0.003689,0.007765,0.012695,0.090734,0.006643,0.060268,-0.008780,0.009249,0.874753,-0.267918,9.755754,0.131668,-0.687408,0,0,,38.990773,-76.937877,-4.414000,,,
2026-09-11T16:34:21.783,2.840659,0.268251,0.105636,2.483810,0.000000,-18.668533,6.422660,0.266568,0.008206,0.017276,0.013114,0.096441,0.006916,0.071306,-0.004307,0.018760,0.461795,0.360492,9.520002,0.117522,-0.644937,0,0,,38.990773,-76.937877,-4.414000,,,
2026-09-11T16:34:21.817,2.874077,0.161345,0.109828,1.493936,0.000000,-13.923125,4.790066,0.160782,0.005702,0.012005,0.013603,0.103578,0.007244,0.040942,-0.002206,0.013488,0.557214,-0.430610,10.052503,0.110956,-0.653964,0,0,,38.990773,-76.937877,-4.414000,,,
2026-09-11T16:34:21.850,2.907489,0.230082,0.117439,2.130391,0.000000,-11.093459,3.816557,0.229572,0.001111,0.002339,0.013842,0.110097,0.007447,0.022549,-0.003325,0.003822,0.602619,0.033539,9.709760,0.108648,-0.632761,0,0,,38.990773,-76.937877,-4.414000,,,
2026-09-11T16:34:21.884,2.940899,0.220439,0.124821,2.041100,0.000000,-10.602508,3.647652,0.219992,0.006347,0.013362,0.014105,0.117604,0.007676,0.025822,-0.006457,0.014845,0.354805,-0.119543,9.564720,0.089697,-0.621856,0,0,,38.990773,-76.937877,-4.414000,,,
2026-09-11T16:34:21.917,2.974318,0.210714,0.131885,1.951057,0.000000,-10.669112,3.670566,0.210282,0.006431,0.013539,0.014554,0.124790,0.007993,0.031380,-0.000702,0.015022,0.158966,0.010689,9.961889,0.074444,-0.602633,0,0,,38.990773,-76.937877,-4.414000,,,
2026-09-11T16:34:21.950,3.007726,0.210714,0.138903,1.951057,0.000000,-10.669112,3.670566,0.210282,0.006402,0.013479,0.015005,0.131811,0.008311,0.017689,-0.003712,0.014962,-0.018240,0.004315,9.539517,0.055919,-0.584041,0,0,,38.990773,-76.937877,-4.414000,,,
2026-09-11T16:34:21.984,3.041134,0.191470,0.145557,1.772875,0.000000,-10.602508,3.647652,0.191083,0.005295,0.011147,0.015417,0.138512,0.008608,0.011942,-0.005113,0.012630,0.200938,-0.220650,9.536575,0.041153,-0.580166,0,0,,38.990773,-76.937877,-4.414000,,,
2026-09-11T16:34:22.017,3.074544,0.201092,0.152484,1.861966,0.000000,-10.602508,3.647652,0.200685,0.004941,0.010401,0.015777,0.145053,0.008881,0.013037,-0.009043,0.011885,0.187307,-0.242617,9.672789,0.036783,-0.577753,0,0,,38.990773,-76.937877,-4.414000,,,
2026-09-11T16:34:22.050,3.107955,0.201092,0.159137,1.861966,0.000000,-10.548949,3.629226,0.200689,0.004760,0.010020,0.016118,0.151755,0.009150,0.013477,0.000101,0.011504,0.084926,0.063155,9.849897,0.035744,-0.555575,0,1,3.105878,38.990772,-76.937878,-4.413000,-0.090315,-0.196074,3.739780
2026-09-11T16:34:22.084,3.141364,0.191273,0.165426,1.771044,0.000000,-10.285278,3.538513,0.190908,0.002118,0.004459,0.016360,0.158293,0.009371,0.021341,-0.002072,0.005942,0.218492,0.040501,9.932666,0.045339,-0.535034,0,0,,38.990772,-76.937878,-4.413000,,,
2026-09-11T16:34:22.117,3.174828,0.181629,0.171533,1.681752,0.000000,-9.964614,3.428193,0.181304,-0.000427,-0.000900,0.016419,0.164520,0.009502,0.024172,-0.002690,0.000584,0.188386,0.028047,9.781055,0.054802,-0.515429,0,0,,38.990772,-76.937878,-4.413000,,,
2026-09-11T16:34:22.151,3.208353,0.201078,0.178141,1.861837,0.000000,-9.635711,3.315038,0.200742,0.001879,0.003956,0.016471,0.170923,0.009631,0.034218,-0.001522,0.005439,-0.170243,0.047758,9.846171,0.037746,-0.494789,0,0,,38.990772,-76.937878,-4.413000,,,
2026-09-11T16:34:22.184,3.241761,0.181471,0.184657,1.680285,0.000000,-9.228530,3.174953,0.181192,0.001389,0.002923,0.016586,0.177301,0.009791,0.036295,-0.000405,0.004407,-0.081101,-0.198389,9.919917,0.029188,-0.490359,0,0,,38.990772,-76.937878,-4.413000,,,
2026-09-11T16:34:22.217,3.275241,0.142256,0.188531,1.317182,0.000000,-9.038329,3.109517,0.142046,0.003703,0.007795,0.016765,0.182710,0.009967,0.031898,-0.001773,0.009279,-0.136999,0.038638,9.782134,0.022076,-0.470637,0,0,,38.990772,-76.937878,-4.413000,,,
2026-09-11T16:34:22.251,3.308651,0.161499,0.193863,1.495365,0.000000,-8.976531,3.088256,0.161265,0.003089,0.006503,0.017004,0.187774,0.010166,0.030601,-0.000463,0.007986,-0.172009,-0.123466,9.708976,0.015299,-0.461660,0,0,,38.990772,-76.937878,-4.413000,,,
2026-09-11T16:34:22.284,3.342058,0.161499,0.199240,1.495365,0.000000,-8.976531,3.088256,0.161265,0.003401,0.007160,0.017232,0.193159,0.010366,0.022575,0.000075,0.008644,-0.110717,0.046974,9.626306,0.013182,-0.441762,0,0,,38.990772,-76.937878,-4.413000,,,
2026-09-11T16:34:22.318,3.375472,0.093468,0.201656,0.865446,0.000000,-8.892760,3.059436,0.093335,0.001316,0.002770,0.017398,0.197410,0.010519,0.011160,0.003099,0.004254,-0.080905,-0.020202,9.740161,-0.002041,-0.426370,0,0,,38.990772,-76.937878,-4.413000,,,
2026-09-11T16:34:22.352,3.408880,0.093468,0.204755,0.865446,0.000000,-8.756805,3.012662,0.093339,0.000449,0.000946,0.017460,0.200527,0.010603,0.004953,0.000674,0.002429,0.023242,0.173480,9.775073,-0.023495,-0.398608,0,0,,38.990772,-76.937878,-4.413000,,,
2026-09-11T16:34:22.385,3.442299,0.122927,0.208583,1.138212,0.000000,-8.505492,2.926202,0.122767,0.001098,0.002312,0.017514,0.204137,0.010692,-0.008758,-0.000422,0.003796,0.018731,0.010199,9.787233,-0.030463,-0.381727,0,0,,38.990772,-76.937878,-4.413000,,,
2026-09-11T16:34:22.418,3.475710,0.122927,0.212684,1.138212,0.000000,-8.286452,2.850844,0.122775,0.001797,0.003783,0.017616,0.208238,0.010812,-0.018778,-0.000911,0.005267,0.196918,0.174460,9.750066,-0.012555,-0.354419,0,0,,38.990772,-76.937878,-4.413000,,,
2026-09-11T16:34:22.452,3.509123,0.074709,0.215646,0.691754,0.000000,-8.164230,2.808795,0.074620,0.000380,0.000800,0.017693,0.211534,0.010907,-0.016560,-0.000026,0.002284,0.159358,0.037756,9.700150,0.001156,-0.336232,0,0,,38.990772,-76.937878,-4.413000,,,
2026-09-11T16:34:22.485,3.542543,0.026492,0.215965,0.245296,0.000000,-8.097625,2.785880,0.026461,0.001927,0.004057,0.017774,0.213223,0.010975,-0.024042,0.001435,0.005541,0.183973,0.127977,9.691226,0.014719,-0.312406,0,0,,38.990772,-76.937878,-4.413000,,,
2026-09-11T16:34:22.518,3.575954,0.026492,0.216877,0.245296,0.000000,-8.053680,2.770761,0.026461,0.001956,0.004119,0.017911,0.214105,0.011056,-0.021966,0.002570,0.005602,0.215158,0.081493,9.697404,0.030756,-0.291859,0,0,,38.990772,-76.937878,-4.413000,,,
2026-09-11T16:34:22.552,3.609371,0.026492,0.217743,0.245296,0.000000,-8.053680,2.770761,0.026461,0.002132,0.004489,0.018054,0.214988,0.011140,-0.018658,0.002530,0.005973,0.266152,0.062566,9.721430,0.045532,-0.272762,0,0,,38.990772,-76.937878,-4.413000,,,
2026-09-11T16:34:22.585,3.642781,0.250157,0.223621,2.316265,0.000000,-8.053680,2.770761,0.249864,0.001422,0.002994,0.018179,0.219602,0.011283,-0.022957,0.002648,0.004478,0.134743,0.012651,9.722509,0.047254,-0.257151,0,0,,38.990772,-76.937878,-4.413000,,,
2026-09-11T16:34:22.618,3.676194,0.210942,0.231141,1.953163,0.000000,-8.053680,2.770761,0.210695,0.001547,0.003256,0.018284,0.227294,0.011473,-0.019535,0.003824,0.004740,0.117386,0.058252,9.723196,0.049731,-0.238756,0,0,,38.990772,-76.937878,-4.413000,,,
2026-09-11T16:34:22.652,3.709617,0.034474,0.231323,0.319200,0.000000,-8.053680,2.770761,0.034433,0.000752,0.001584,0.018365,0.231390,0.011586,-0.019068,0.002625,0.003068,0.119935,-0.049229,9.748399,0.054248,-0.227476,0,0,,38.990772,-76.937878,-4.413000,,,
2026-09-11T16:34:22.686,3.743031,0.005062,0.231186,0.046873,0.000000,-8.053680,2.770761,0.005056,0.001231,0.002593,0.018434,0.232049,0.011632,-0.012574,0.003866,0.004076,0.061095,-0.030793,9.736435,0.051799,-0.215128,0,0,,38.990772,-76.937878,-4.413000,,,
2026-09-11T16:34:22.719,3.776444,-0.000000,0.231141,-0.000000,0.000000,-8.009734,2.755643,-0.000000,-0.000221,-0.000465,0.018470,0.232133,0.011650,-0.006668,0.003704,0.001018,-0.003138,-0.017750,9.740946,0.039003,-0.202073,0,0,,38.990772,-76.937878,-4.413000,,,
2026-09-11T16:34:22.752,3.809863,0.009804,0.231642,0.090776,0.000000,-8.009734,2.755643,0.009792,-0.000132,-0.000278,0.018458,0.232296,0.011647,-0.001364,0.002261,0.001206,-0.004609,-0.058350,9.701719,0.023141,-0.191787,0,0,,38.990772,-76.937878,-4.413000,,,
2026-09-11T16:34:22.786,3.843285,0.009804,0.231961,0.090776,0.000000,-8.009734,2.755643,0.009792,0.000116,0.000245,0.018457,0.232624,0.011653,0.005449,0.003597,0.001728,-0.006374,-0.009905,9.717998,0.007339,-0.178479,0,0,,38.990772,-76.937878,-4.413000,,,
2026-09-11T16:34:22.819,3.876694,0.009804,0.232280,0.090776,0.000000,-7.974029,2.743359,0.009793,-0.000455,-0.000958,0.018445,0.232951,0.011653,0.006808,0.002277,0.000525,-0.011572,-0.023634,9.724274,0.005803,-0.166211,0,0,,38.990772,-76.937878,-4.413000,,,
2026-09-11T16:34:22.852,3.910106,0.009804,0.232599,0.090776,0.000000,-7.847686,2.699892,0.009793,-0.000547,-0.001151,0.018410,0.233278,0.011643,0.006271,0.001056,0.000333,0.027361,-0.000000,9.722705,0.018697,-0.152549,0,0,,38.990772,-76.937878,-4.413000,,,
2026-09-11T16:34:22.886,3.943519,0.009804,0.232964,0.090776,0.000000,-7.675338,2.640598,0.009793,-0.000709,-0.001493,0.018366,0.233606,0.011628,0.006120,0.003571,-0.000010,0.086691,-0.011180,9.721430,0.021380,-0.139761,0,0,,38.990772,-76.937878,-4.413000,,,
2026-09-11T16:34:22.919,3.976929,0.009804,0.233283,0.090776,0.000000,-7.432952,2.557208,0.009794,-0.001185,-0.002494,0.018299,0.233934,0.011602,0.003689,0.001266,-0.001010,0.173578,-0.006865,9.721234,0.016381,-0.126836,0,0,,38.990772,-76.937878,-4.413000,,,
2026-09-11T16:34:22.953,4.010342,0.009804,0.233602,0.090776,0.000000,-7.165847,2.465314,0.009795,0.000028,0.000060,0.018258,0.234261,0.011589,-0.000595,0.001234,0.001543,0.232025,-0.003628,9.725157,0.012996,-0.113845,0,0,,38.990772,-76.937878,-4.413000,,,
2026-09-11T16:34:22.986,4.043765,0.009804,0.233921,0.090776,0.000000,-6.957793,2.393736,0.009795,-0.000991,-0.002086,0.018225,0.234589,0.011579,0.006020,0.001961,-0.000603,0.345194,0.004805,9.722705,0.017278,-0.100447,0,0,,38.990772,-76.937878,-4.413000,,,
2026-09-11T16:34:23.019,4.077179,0.009804,0.234240,0.090776,0.000000,-6.817031,2.345309,0.009796,-0.000065,-0.000137,0.018187,0.234916,0.011567,0.007430,0.001378,0.001346,0.453067,-0.011572,9.715743,0.021050,-0.088262,0,0,,38.990772,-76.937878,-4.413000,,,
2026-09-11T16:34:23.053,4.110590,0.009804,0.234559,0.090776,0.000000,-6.779266,2.332316,0.009796,-0.000063,-0.000132,0.018183,0.235244,0.011571,0.007160,0.001882,0.001351,0.512397,0.003530,9.719763,0.021171,-0.075236,0,1,4.103365,38.990771,-76.937878,-4.476000,-0.098526,-0.296520,3.774276
2026-09-11T16:34:23.087,4.143999,0.009804,0.234923,0.090776,0.000000,-6.663909,2.292629,0.009796,-0.000654,-0.001378,0.018158,0.235571,0.011565,0.003830,0.002212,0.000106,0.546819,0.017652,9.720744,0.031046,-0.061441,0,0,,38.990771,-76.937878,-4.476000,,,
2026-09-11T16:34:23.120,4.177411,0.009804,0.235242,0.090776,0.000000,-6.515594,2.241603,0.009796,0.000442,0.000930,0.018150,0.235898,0.011567,-0.003316,0.001917,0.002413,0.587124,0.028635,9.714664,0.050323,-0.047088,0,0,,38.990771,-76.937878,-4.476000,,,
2026-09-11T16:34:23.154,4.210833,0.009804,0.235561,0.090776,0.000000,-6.296554,2.166246,0.009797,-0.000539,-0.001135,0.018147,0.236226,0.011571,-0.004045,0.004033,0.000349,0.629979,-0.039129,9.697502,0.072166,-0.037274,0,0,,38.990771,-76.937878,-4.476000,,,
2026-09-11T16:34:23.186,4.244245,0.009804,0.235880,0.090776,0.000000,-5.687499,1.956708,0.009798,-0.000263,-0.000553,0.018119,0.236553,0.011564,-0.010043,0.002594,0.000931,0.597911,-0.036579,9.714468,0.091686,-0.027407,0,0,,38.990771,-76.937878,-4.476000,,,
2026-09-11T16:34:23.220,4.277662,0.009804,0.236199,0.090776,0.000000,-4.682937,1.611102,0.009800,-0.001276,-0.002687,0.018064,0.236881,0.011544,-0.014066,0.002454,-0.001203,0.509652,-0.022653,9.712997,0.086887,-0.016746,0,0,,38.990771,-76.937878,-4.476000,,,
2026-09-11T16:34:23.254,4.311069,0.009804,0.236564,0.090776,0.000000,-3.747039,1.289119,0.009801,-0.001881,-0.003961,0.017953,0.237209,0.011497,-0.005525,0.003582,-0.002477,0.414919,-0.006080,9.740848,0.070705,-0.005133,0,0,,38.990771,-76.937878,-4.476000,,,
2026-09-11T16:34:23.287,4.344485,0.134888,0.242260,1.248964,0.000000,-2.870879,0.987688,0.134868,-0.000472,-0.000994,0.017871,0.239627,0.011501,-0.008282,0.001894,0.000490,0.379615,-0.014416,9.697698,0.070475,0.005821,0,0,,38.990771,-76.937878,-4.476000,,,
2026-09-11T16:34:23.320,4.377895,0.125169,0.246590,1.158975,0.000000,-1.813445,0.623892,0.125162,-0.000491,-0.001034,0.017837,0.243970,0.011563,-0.010136,0.002264,0.000450,0.376771,-0.013435,9.729178,0.074421,0.016715,0,0,,38.990771,-76.937878,-4.476000,,,
2026-09-11T16:34:23.354,4.411307,0.018263,0.246726,0.169102,0.000000,-0.706573,0.243087,0.018263,-0.002146,-0.004517,0.017744,0.246367,0.011561,-0.009876,0.002371,-0.003033,0.448066,-0.000490,9.726334,0.082314,0.028323,0,0,,38.990771,-76.937878,-4.476000,,,
2026-09-11T16:34:23.387,4.444719,0.018263,0.247000,0.169102,0.000000,-0.099578,0.034259,0.018263,-0.000426,-0.000897,0.017654,0.246978,0.011529,-0.004431,0.000385,0.000587,0.404524,0.042757,9.733493,0.072861,0.042596,0,0,,38.990771,-76.937878,-4.476000,,,
2026-09-11T16:34:23.420,4.478128,0.018263,0.247592,0.169102,0.000000,-0.099578,0.034259,0.018263,0.001455,0.003063,0.017690,0.247587,0.011557,0.005246,-0.000081,0.004547,0.425805,-0.064430,9.699758,0.061843,0.049772,0,0,,38.990771,-76.937878,-4.476000,,,
2026-09-11T16:34:23.454,4.511539,0.018263,0.248230,0.169102,0.000000,-0.099578,0.034259,0.018263,0.000686,0.001444,0.017765,0.248197,0.011604,-0.004566,-0.000863,0.002928,0.488469,-0.013827,9.725255,0.068928,0.060143,0,0,,38.990771,-76.937878,-4.476000,,,
2026-09-11T16:34:23.487,4.544954,0.303031,0.258529,2.805843,0.000000,-0.032973,0.011344,0.303031,0.000269,0.000567,0.017799,0.253564,0.011715,-0.015124,0.002402,0.002050,0.481703,0.015200,9.705544,0.078030,0.072270,0,0,,38.990771,-76.937878,-4.476000,,,
2026-09-11T16:34:23.521,4.578364,0.100518,0.262449,0.930720,0.000000,0.175767,-0.060470,0.100518,0.000621,0.001307,0.017830,0.260304,0.011850,-0.024277,0.003452,0.002790,0.407761,0.030401,9.776348,0.076654,0.085247,0,0,,38.990771,-76.937878,-4.476000,,,
2026-09-11T16:34:23.554,4.611773,0.023370,0.262403,0.216388,0.000000,0.208039,-0.071573,0.023370,0.001849,0.003892,0.017917,0.262372,0.011928,-0.034488,0.000748,0.005375,0.297338,0.008336,9.749870,0.066953,0.096655,0,0,,38.990771,-76.937878,-4.476000,,,
2026-09-11T16:34:23.587,4.645181,0.033013,0.263725,0.305679,0.000000,0.208039,-0.071573,0.033013,0.000176,0.000370,0.017988,0.263313,0.011979,-0.038853,0.004405,0.001853,0.300672,-0.049622,9.623462,0.063223,0.104192,0,0,,38.990771,-76.937878,-4.476000,,,
2026-09-11T16:34:23.621,4.678593,0.033013,0.264818,0.305679,0.000000,0.208039,-0.071573,0.033013,-0.000219,-0.000461,0.017987,0.264416,0.011998,-0.036925,0.007042,0.001023,0.374026,-0.069823,9.602280,0.065543,0.110341,0,0,,38.990771,-76.937878,-4.476000,,,
2026-09-11T16:34:23.655,4.712012,0.256678,0.275300,2.376648,0.000000,0.208039,-0.071573,0.256678,0.003246,0.006834,0.018093,0.269255,0.012136,-0.031096,0.006370,0.008317,0.292925,-0.026282,9.813123,0.047442,0.119127,0,0,,38.990771,-76.937878,-4.476000,,,
2026-09-11T16:34:23.688,4.745423,0.080210,0.277897,0.742686,0.000000,0.208039,-0.071573,0.080210,0.000675,0.001422,0.018231,0.274881,0.012304,-0.027075,0.008705,0.002905,0.173284,-0.163477,9.755165,0.017202,0.119043,0,0,,38.990771,-76.937878,-4.476000,,,
2026-09-11T16:34:23.721,4.778832,0.040995,0.278718,0.379583,0.000000,0.208039,-0.071573,0.040995,-0.001461,-0.003075,0.018203,0.276905,0.012327,-0.039053,0.009294,-0.001592,0.265760,-0.042169,9.888045,0.024067,0.126824,0,0,,38.990771,-76.937878,-4.476000,,,
2026-09-11T16:34:23.755,4.812254,0.040995,0.280085,0.379583,0.000000,1.243501,-0.427810,0.040994,-0.002756,-0.005802,0.018055,0.278276,0.012282,-0.057389,0.009138,-0.004318,0.317735,-0.511907,9.513726,0.031461,0.104128,0,0,,38.990771,-76.937878,-4.476000,,,
2026-09-11T16:34:23.788,4.845666,0.252676,0.286511,2.339594,0.000000,2.298875,-0.790897,0.252652,-0.005188,-0.010923,0.017776,0.283184,0.012237,-0.040869,0.002150,-0.009439,0.399817,0.233987,9.649155,0.017404,0.130111,0,0,,38.990771,-76.937878,-4.476000,,,
2026-09-11T16:34:23.822,4.879077,0.174926,0.293346,1.619686,0.000000,3.909745,-1.345096,0.174878,-0.000304,-0.000641,0.017582,0.290326,0.012271,-0.026627,-0.001254,0.000843,0.461109,0.084043,9.512941,0.006293,0.145934,0,0,,38.990771,-76.937878,-4.476000,,,
2026-09-11T16:34:23.855,4.912490,0.048582,0.293620,0.449836,0.000000,6.460633,-2.222695,0.048546,-0.008792,-0.018510,0.017262,0.294061,0.012185,-0.016298,-0.011414,-0.017026,0.828760,0.003825,9.483717,0.019767,0.156443,0,0,,38.990771,-76.937878,-4.476000,,,
2026-09-11T16:34:23.888,4.945898,0.048582,0.295215,0.449836,0.000000,11.962724,-4.115616,0.048457,-0.006310,-0.013284,0.016731,0.295685,0.011960,-0.004212,-0.018867,-0.011801,0.221140,-0.393737,9.706917,0.003914,0.141100,0,0,,38.990771,-76.937878,-4.476000,,,
2026-09-11T16:34:23.922,4.979311,0.284252,0.304375,2.631966,0.000000,15.208497,-5.232281,0.283068,-0.011732,-0.024700,0.016097,0.301228,0.011748,0.032689,-0.014308,-0.023216,0.568688,-0.689408,10.140174,0.012522,0.107207,0,0,,38.990771,-76.937878,-4.476000,,,
2026-09-11T16:34:23.955,5.012721,0.120313,0.308977,1.114010,0.000000,15.996766,-5.503475,0.119758,-0.013277,-0.027952,0.015217,0.307963,0.011437,0.057954,-0.012830,-0.026469,0.770410,0.087377,9.707603,0.020154,0.123708,0,0,,38.990771,-76.937878,-4.476000,,,
2026-09-11T16:34:23.988,5.046129,0.091383,0.311530,0.846135,0.000000,18.495469,-6.363120,0.090820,-0.014192,-0.029878,0.014251,0.311487,0.011030,0.058101,-0.011871,-0.028395,1.027933,-0.336662,9.808611,0.038116,0.112553,0,0,,38.990771,-76.937878,-4.476000,,,
2026-09-11T16:34:24.022,5.079542,0.246975,0.319687,2.286809,0.000000,22.022081,-7.576404,0.244819,-0.021314,-0.044871,0.013002,0.317102,0.010512,0.040026,-0.014838,-0.043387,0.857984,-0.258601,9.481560,0.055463,0.107106,0,0,,38.990771,-76.937878,-4.476000,,,
2026-09-11T16:34:24.055,5.112951,0.227368,0.327297,2.105258,0.000000,26.505190,-9.118758,0.224494,-0.022364,-0.047082,0.011466,0.324950,0.009879,0.022748,-0.012773,-0.045598,0.530638,-0.202703,9.611890,0.057019,0.105309,0,1,5.113565,38.990770,-76.937877,-4.426000,-0.080952,-0.379545,3.740361
2026-09-11T16:34:24.089,5.146363,0.198502,0.334042,1.837983,0.000000,28.745714,-9.889581,0.195553,-0.024969,-0.052567,0.009802,0.331975,0.009163,0.014376,-0.000496,-0.051083,0.673815,-0.015789,10.063584,0.052870,0.115606,0,0,,38.990770,-76.937877,-4.426000,,,
2026-09-11T16:34:24.122,5.179774,0.227658,0.341425,2.107949,0.000000,30.969759,-10.654734,0.223733,-0.026339,-0.055450,0.007997,0.338987,0.008368,0.005006,-0.006517,-0.053966,0.845922,-0.207116,9.507155,0.050707,0.113548,0,0,,38.990770,-76.937877,-4.426000,,,
2026-09-11T16:34:24.156,5.213191,0.266937,0.350129,2.471637,0.000000,31.721636,-10.913407,0.262109,-0.022705,-0.047800,0.006272,0.347110,0.007606,-0.007474,-0.019450,-0.046316,0.327248,0.109148,9.882750,0.029007,0.131984,0,0,,38.990770,-76.937877,-4.426000,,,
2026-09-11T16:34:24.189,5.246602,0.247650,0.358423,2.293054,0.000000,31.848665,-10.957110,0.243135,-0.022158,-0.046648,0.004694,0.355554,0.006903,-0.016557,-0.019747,-0.045164,0.662930,0.057173,9.416247,0.034424,0.146774,0,0,,38.990770,-76.937877,-4.426000,,,
2026-09-11T16:34:24.222,5.280012,0.267099,0.367401,2.473138,0.000000,31.848665,-10.957110,0.262230,-0.025178,-0.053007,0.003030,0.363999,0.006144,-0.014879,-0.014751,-0.051524,1.083145,0.233692,9.641212,0.055147,0.172985,0,0,,38.990770,-76.937877,-4.426000,,,
2026-09-11T16:34:24.256,5.313424,0.306314,0.377928,2.836241,0.000000,31.848665,-10.957110,0.300730,-0.028105,-0.059169,0.001156,0.373406,0.005273,-0.023080,-0.011141,-0.057686,1.158558,-0.341762,9.543145,0.089802,0.161929,0,0,,38.990770,-76.937877,-4.426000,,,
2026-09-11T16:34:24.289,5.346835,0.316033,0.388409,2.926229,0.000000,32.404162,-11.148221,0.310069,-0.030510,-0.064231,-0.000906,0.383610,0.004295,-0.023729,-0.007951,-0.062748,1.119233,-0.039227,9.429977,0.129540,0.170705,1,0,,38.990770,-76.937877,-4.426000,,,
2026-09-11T16:34:24.323,5.380244,0.355311,0.400395,3.289918,0.000000,33.673083,-11.584776,0.348073,-0.032830,-0.069116,-0.003133,0.394602,0.003214,-0.027123,-0.011335,-0.067633,0.584476,-0.538875,9.447433,0.131633,0.147330,1,0,,38.990770,-76.937877,-4.426000,,,
2026-09-11T16:34:24.356,5.413653,0.345668,0.411788,3.200626,0.000000,36.139515,-12.433319,0.337561,-0.032720,-0.068885,-0.005439,0.406050,0.002070,-0.016167,-0.017305,-0.067401,0.422863,0.024320,10.187737,0.124989,0.160594,1,0,,38.990770,-76.937877,-4.426000,,,
2026-09-11T16:34:24.389,5.447065,0.375079,0.424411,3.472953,0.000000,40.242221,-13.844801,0.364182,-0.043412,-0.091394,-0.008116,0.417764,0.000718,-0.002032,-0.003356,-0.089911,0.230849,-0.112286,9.317691,0.113294,0.165524,1,0,,38.990770,-76.937877,-4.426000,,,
2026-09-11T16:34:24.423,5.480475,0.365651,0.436078,3.385656,0.000000,40.022495,-13.769207,0.355143,-0.038621,-0.081307,-0.011001,0.429767,-0.000767,-0.001758,-0.023543,-0.079824,0.622526,-0.896524,9.266108,0.131321,0.119379,1,0,,38.990770,-76.937877,-4.426000,,,
2026-09-11T16:34:24.456,5.513888,0.366179,0.449065,3.390548,0.000000,40.110386,-13.799445,0.355610,-0.046233,-0.097333,-0.013986,0.441622,-0.002332,0.013767,-0.008630,-0.095850,0.428747,0.553683,9.546578,0.135376,0.167937,1,0,,38.990770,-76.937877,-4.426000,,,
2026-09-11T16:34:24.490,5.547299,0.356455,0.460823,3.300506,0.000000,40.286853,-13.860156,0.346076,-0.039359,-0.082861,-0.016996,0.453321,-0.003943,-0.008023,-0.001983,-0.081378,0.052368,0.027164,9.435959,0.122339,0.181508,1,0,,38.990770,-76.937877,-4.426000,,,
2026-09-11T16:34:24.523,5.580710,0.347378,0.473082,3.216467,0.000000,40.902774,-14.072055,0.336954,-0.044312,-0.093289,-0.019939,0.464703,-0.005551,-0.002045,-0.019612,-0.091805,0.507298,0.116013,9.146074,0.146187,0.200856,1,0,,38.990770,-76.937877,-4.426000,,,
2026-09-11T16:34:24.557,5.614120,0.366816,0.485386,3.396444,0.000000,41.209018,-14.177415,0.355643,-0.040917,-0.086141,-0.022936,0.476240,-0.007223,-0.019721,-0.013753,-0.084657,0.107285,-1.166207,10.843213,0.145084,0.136987,1,0,,38.990770,-76.937877,-4.426000,,,
2026-09-11T16:34:24.590,5.647533,0.338238,0.497281,3.131831,0.000000,41.209018,-14.177415,0.327936,-0.049247,-0.103677,-0.026107,0.487620,-0.009008,-0.001375,-0.001373,-0.102194,-0.290767,0.110031,9.748497,0.124184,0.156608,1,0,,38.990770,-76.937877,-4.426000,,,
2026-09-11T16:34:24.623,5.680944,0.338238,0.508582,3.131831,0.000000,41.340854,-14.222771,0.327870,-0.039071,-0.082255,-0.029213,0.498531,-0.010786,-0.037642,0.000611,-0.080771,-0.229574,0.095811,9.452434,0.112684,0.174636,1,0,,38.990770,-76.937877,-4.426000,,,
2026-09-11T16:34:24.657,5.714360,0.290310,0.519110,2.688058,0.000000,41.340854,-14.222771,0.281412,-0.036106,-0.076012,-0.031858,0.508668,-0.012352,-0.057112,0.001260,-0.074529,-0.228103,-0.076688,10.038676,0.100638,0.180944,0,0,,38.990770,-76.937877,-4.426000,,,
2026-09-11T16:34:24.690,5.747770,0.290310,0.528725,2.688058,0.000000,41.141040,-14.154028,0.281497,-0.032324,-0.068051,-0.034264,0.518028,-0.013805,-0.090598,-0.010227,-0.066567,-0.296259,-0.012651,10.146254,0.083067,0.191179,0,0,,38.990770,-76.937877,-4.426000,,,
2026-09-11T16:34:24.724,5.781199,0.309949,0.539298,2.869902,0.000000,40.913074,-14.075599,0.300643,-0.031873,-0.067100,-0.036523,0.527714,-0.015222,-0.133169,-0.001232,-0.065617,-0.165634,0.235556,9.935608,0.076521,0.217439,0,0,,38.990770,-76.937877,-4.426000,,,
2026-09-11T16:34:24.757,5.814621,0.232802,0.546453,2.155570,0.000000,40.776432,-14.028589,0.225858,-0.025451,-0.053580,-0.038540,0.536471,-0.016508,-0.147874,-0.005574,-0.052097,0.119641,-0.413546,9.754773,0.087231,0.200873,0,0,,38.990770,-76.937877,-4.426000,,,
2026-09-11T16:34:24.790,5.848035,0.242526,0.554519,2.245612,0.000000,40.464695,-13.921340,0.235402,-0.022591,-0.047560,-0.040230,0.544139,-0.017614,-0.156338,0.002437,-0.046077,0.090810,-0.181423,10.116835,0.091610,0.199455,0,0,,38.990770,-76.937877,-4.426000,,,
2026-09-11T16:34:24.824,5.881443,0.262134,0.563451,2.427163,0.000000,39.953830,-13.745584,0.254626,-0.021134,-0.044493,-0.041767,0.552288,-0.018679,-0.154979,0.002400,-0.043009,0.046484,-0.340585,9.636505,0.094291,0.187766,0,0,,38.990770,-76.937877,-4.426000,,,
2026-09-11T16:34:24.857,5.914853,0.175537,0.568646,1.625340,0.000000,39.119556,-13.458563,0.170716,-0.018878,-0.039743,-0.043174,0.559358,-0.019648,-0.127905,0.011727,-0.038260,-0.130527,0.327346,9.758696,0.083658,0.219119,0,0,,38.990770,-76.937877,-4.426000,,,
2026-09-11T16:34:24.890,5.948261,0.194974,0.574981,1.805317,0.000000,37.502506,-12.902238,0.190052,-0.015608,-0.032859,-0.044387,0.565354,-0.020487,-0.092001,0.010762,-0.031376,0.126604,0.141020,9.864313,0.081197,0.238037,0,0,,38.990770,-76.937877,-4.426000,,,
2026-09-11T16:34:24.924,5.981676,0.204794,0.581725,1.896239,0.000000,35.394504,-12.177008,0.200186,-0.013123,-0.027628,-0.045398,0.571846,-0.021259,-0.055031,0.011476,-0.026145,0.490431,-0.591733,9.531672,0.100494,0.209294,0,0,,38.990770,-76.937877,-4.426000,,,
2026-09-11T16:34:24.957,6.015167,0.204794,0.588607,1.896239,0.000000,32.931507,-11.329647,0.200803,-0.012578,-0.026480,-0.046304,0.578534,-0.021997,-0.018962,0.011178,-0.024996,0.512005,-0.494353,9.799786,0.124727,0.187105,0,0,,38.990770,-76.937877,-4.426000,,,
2026-09-11T16:34:24.991,6.048575,0.156576,0.593073,1.449781,0.000000,29.340351,-10.094157,0.154153,-0.014269,-0.030040,-0.047248,0.584435,-0.022722,-0.016364,0.010814,-0.028556,0.540150,-0.963013,9.850290,0.145013,0.134855,0,0,,38.990770,-76.937877,-4.426000,,,
2026-09-11T16:34:25.024,6.081987,0.205199,0.600045,1.899992,0.000000,28.948276,-9.959269,0.202107,-0.016845,-0.035463,-0.048342,0.590355,-0.023526,-0.014334,0.015502,-0.033980,0.595068,-0.454931,9.618166,0.169293,0.116213,0,0,,38.990770,-76.937877,-4.426000,,,
2026-09-11T16:34:25.058,6.115396,0.234610,0.607884,2.172318,0.000000,28.948276,-9.959269,0.231075,-0.020181,-0.042486,-0.049644,0.597552,-0.024498,-0.008781,0.011336,-0.041002,0.646356,-0.526225,9.632974,0.206427,0.093337,0,1,6.104956,38.990768,-76.937877,-4.340000,-0.063379,-0.656791,4.580703
2026-09-11T16:34:25.091,6.148807,0.176879,0.613899,1.637770,0.000000,28.948276,-9.959269,0.174214,-0.021155,-0.044536,-0.051098,0.604279,-0.025528,-0.002102,0.005951,-0.043053,0.792770,-0.502395,9.719665,0.246574,0.072123,0,0,,38.990768,-76.937877,-4.340000,,,
2026-09-11T16:34:25.125,6.182216,0.235192,0.621236,2.177701,0.000000,28.948276,-9.959269,0.231648,-0.020950,-0.044104,-0.052579,0.611014,-0.026582,0.040152,0.017291,-0.042621,0.270369,-0.576533,9.951004,0.244579,0.046507,0,0,,38.990768,-76.937877,-4.340000,,,
2026-09-11T16:34:25.158,6.215635,0.264650,0.629940,2.450467,0.000000,28.948276,-9.959269,0.260662,-0.022739,-0.047872,-0.054116,0.619189,-0.027750,0.065577,0.014405,-0.046388,0.819444,-0.361571,9.305040,0.283166,0.035224,0,0,,38.990768,-76.937877,-4.340000,,,
2026-09-11T16:34:25.191,6.249046,0.216433,0.637323,2.004010,0.000000,29.037540,-9.989979,0.213151,-0.023728,-0.049954,-0.055750,0.627050,-0.028959,0.073999,0.005361,-0.048470,0.652731,-0.345684,9.707407,0.314342,0.024978,0,0,,38.990768,-76.937877,-4.340000,,,
2026-09-11T16:34:25.225,6.282454,0.226158,0.644842,2.094052,0.000000,29.124057,-10.019745,0.222708,-0.026939,-0.056713,-0.057532,0.634271,-0.030217,0.062818,0.007185,-0.055230,-0.350392,0.148277,9.931391,0.276053,0.046928,0,0,,38.990768,-76.937877,-4.340000,,,
2026-09-11T16:34:25.258,6.315865,0.245765,0.652863,2.275603,0.000000,29.450901,-10.132191,0.241932,-0.016510,-0.034758,-0.059060,0.641978,-0.031394,0.054469,0.016717,-0.033275,-0.785611,0.122779,9.680144,0.211967,0.066715,0,0,,38.990768,-76.937877,-4.340000,,,
2026-09-11T16:34:25.291,6.349288,0.149546,0.658970,1.384689,0.000000,29.475620,-10.140695,0.147210,-0.019963,-0.042027,-0.060343,0.648433,-0.032389,0.057485,0.014257,-0.040544,-0.232123,-0.469150,9.585902,0.192469,0.047837,0,0,,38.990768,-76.937877,-4.340000,,,
2026-09-11T16:34:25.325,6.382696,0.120681,0.662296,1.117414,0.000000,29.270313,-10.070062,0.118822,-0.009434,-0.019861,-0.061377,0.652839,-0.033149,0.065911,0.004181,-0.018378,-0.014514,-0.508867,9.730649,0.185480,0.026360,0,0,,38.990768,-76.937877,-4.340000,,,
2026-09-11T16:34:25.358,6.416106,0.178993,0.667902,1.657345,0.000000,29.051273,-9.994704,0.176277,-0.010550,-0.022210,-0.062080,0.657738,-0.033787,0.057619,-0.001054,-0.020727,0.105029,-0.109638,9.668769,0.187588,0.031048,0,0,,38.990768,-76.937877,-4.340000,,,
2026-09-11T16:34:25.392,6.449516,0.178993,0.673872,1.657345,0.000000,28.212192,-9.706029,0.176431,-0.008054,-0.016955,-0.062734,0.663600,-0.034465,0.046981,0.004014,-0.015471,0.111207,-0.373633,9.583451,0.196903,0.018544,0,0,,38.990768,-76.937877,-4.340000,,,
2026-09-11T16:34:25.425,6.482926,0.129895,0.677563,1.202735,0.000000,27.870929,-9.588622,0.128081,-0.007365,-0.015506,-0.063276,0.668660,-0.035042,0.041352,0.000943,-0.014022,0.458461,-0.347253,9.637682,0.227393,0.007821,0,0,,38.990768,-76.937877,-4.340000,,,
2026-09-11T16:34:25.459,6.516338,0.129895,0.681892,1.202735,0.000000,27.647083,-9.511611,0.128110,-0.011695,-0.024621,-0.063946,0.672911,-0.035632,0.039451,0.004639,-0.023137,0.524067,-0.318030,9.506174,0.263634,-0.000817,0,0,,38.990768,-76.937877,-4.340000,,,
2026-09-11T16:34:25.492,6.549743,0.149182,0.687224,1.381318,0.000000,27.651203,-9.513028,0.147131,-0.010717,-0.022562,-0.064735,0.677475,-0.036301,0.044400,0.006118,-0.021079,0.237223,-0.306458,10.125464,0.287913,-0.008599,0,0,,38.990768,-76.937877,-4.340000,,,
2026-09-11T16:34:25.526,6.583163,0.100560,0.690688,0.931107,0.000000,27.651203,-9.513028,0.099177,-0.009882,-0.020804,-0.065459,0.681559,-0.036912,0.041730,0.002715,-0.019320,-0.418548,-0.010395,9.895989,0.287332,0.002780,0,0,,38.990768,-76.937877,-4.340000,,,
2026-09-11T16:34:25.559,6.616572,0.100560,0.694014,0.931107,0.000000,27.651203,-9.513028,0.099177,-0.010963,-0.023080,-0.066192,0.684843,-0.037477,0.043701,0.004984,-0.021597,-0.430708,-0.100322,9.620226,0.286252,0.008226,0,0,,38.990768,-76.937877,-4.340000,,,
2026-09-11T16:34:25.592,6.649981,0.100560,0.697387,0.931107,0.000000,27.651203,-9.513028,0.099177,-0.007410,-0.015599,-0.066838,0.688128,-0.038004,0.038740,0.001963,-0.014116,-0.541621,0.014612,9.747222,0.259445,0.020999,0,0,,38.990768,-76.937877,-4.340000,,,
2026-09-11T16:34:25.626,6.683391,0.080952,0.699848,0.749556,0.000000,27.651203,-9.513028,0.079839,-0.004594,-0.009671,-0.067260,0.691099,-0.038404,0.029148,0.000623,-0.008188,-0.340683,-0.179069,9.667886,0.241427,0.021051,0,0,,38.990768,-76.937877,-4.340000,,,
2026-09-11T16:34:25.659,6.716812,0.080952,0.702536,0.749556,0.000000,27.651203,-9.513028,0.079839,-0.002115,-0.004453,-0.067497,0.693753,-0.038696,0.028013,-0.002242,-0.002969,-0.338820,-0.138666,9.687695,0.219193,0.023690,0,0,,38.990768,-76.937877,-4.340000,,,
2026-09-11T16:34:25.693,6.750234,0.080952,0.705271,0.749556,0.000000,27.651203,-9.513028,0.079839,-0.003549,-0.007472,-0.067696,0.696409,-0.038970,0.027950,-0.001943,-0.005988,-0.333720,-0.045601,9.832736,0.194418,0.032338,0,0,,38.990768,-76.937877,-4.340000,,,
2026-09-11T16:34:25.726,6.783643,0.013599,0.705726,0.125916,0.000000,27.651203,-9.513028,0.013412,0.001149,0.002419,-0.067780,0.697961,-0.039116,0.032122,0.003153,0.003902,0.005884,-0.090025,9.735160,0.193136,0.037973,0,0,,38.990768,-76.937877,-4.340000,,,
2026-09-11T16:34:25.759,6.817054,-0.000000,0.705544,-0.000000,0.000000,27.651203,-9.513028,-0.000000,0.000942,0.001982,-0.067707,0.698187,-0.039096,0.041419,0.001729,0.003466,0.264093,-0.231045,9.700346,0.206710,0.034424,0,0,,38.990768,-76.937877,-4.340000,,,
2026-09-11T16:34:25.793,6.850465,-0.343132,0.695382,-3.177148,0.000000,27.651203,-9.513028,-0.338413,0.000767,0.001615,-0.067647,0.692548,-0.038685,0.042263,-0.001037,0.003098,0.426295,-0.108363,9.801453,0.227535,0.038887,0,0,,38.990768,-76.937877,-4.340000,,,
2026-09-11T16:34:25.826,6.883876,-0.129192,0.690141,-1.196222,0.000000,27.651203,-9.513028,-0.127415,0.000086,0.000181,-0.067617,0.684785,-0.038145,0.041669,0.000130,0.001664,0.566726,-0.176029,9.757911,0.257218,0.038889,0,0,,38.990768,-76.937877,-4.340000,,,
2026-09-11T16:34:25.859,6.917286,-0.022222,0.690186,-0.205758,0.000000,27.717807,-9.535943,-0.021915,-0.002509,-0.005283,-0.067702,0.682293,-0.038017,0.034411,-0.001457,-0.003799,0.661164,-0.167792,9.743593,0.291434,0.039415,0,0,,38.990768,-76.937877,-4.340000,,,
2026-09-11T16:34:25.893,6.950696,-0.000000,0.690232,-0.000000,0.000000,27.893589,-9.596418,-0.000000,-0.002783,-0.005859,-0.067888,0.681922,-0.038080,0.027382,0.001661,-0.004375,0.605463,-0.046484,9.721430,0.320417,0.047790,0,0,,38.990768,-76.937877,-4.340000,,,
2026-09-11T16:34:25.927,6.984118,-0.000000,0.690232,-0.000000,0.000000,27.893589,-9.596418,-0.000000,-0.001976,-0.004159,-0.068055,0.681917,-0.038160,0.023229,0.002076,-0.002676,0.527402,-0.060311,9.731825,0.344036,0.055181,0,0,,38.990768,-76.937877,-4.340000,,,
2026-09-11T16:34:25.960,7.017526,-0.000000,0.690232,-0.000000,0.000000,27.937534,-9.611537,-0.000000,-0.001283,-0.002701,-0.068170,0.681913,-0.038214,0.014334,0.002950,-0.001218,0.378046,-0.036383,9.722411,0.353432,0.064035,0,0,,38.990768,-76.937877,-4.340000,,,
2026-09-11T16:34:25.993,7.050937,-0.000000,0.690232,-0.000000,0.000000,27.937534,-9.611537,-0.000000,-0.000932,-0.001963,-0.068248,0.681911,-0.038251,-0.001215,0.003418,-0.000479,0.298514,0.009218,9.699856,0.352421,0.075741,0,0,,38.990768,-76.937877,-4.340000,,,
2026-09-11T16:34:26.027,7.084347,-0.000000,0.690232,-0.000000,0.000000,27.937534,-9.611537,-0.000000,0.000344,0.000724,-0.068269,0.681910,-0.038261,-0.009104,0.001698,0.002207,0.221826,-0.066685,9.731531,0.323737,0.082407,0,0,,38.990768,-76.937877,-4.340000,,,
2026-09-11T16:34:26.060,7.117752,-0.000000,0.690232,-0.000000,0.000000,27.937534,-9.611537,-0.000000,0.002334,0.004913,-0.068174,0.681913,-0.038216,-0.019504,0.000662,0.006396,0.181129,-0.046385,9.710349,0.284515,0.090312,0,1,7.125513,38.990766,-76.937878,-4.311000,-0.127622,-0.784851,4.581317
2026-09-11T16:34:26.094,7.151165,-0.000000,0.690232,-0.000000,0.000000,27.937534,-9.611537,-0.000000,0.000357,0.000752,-0.068080,0.681916,-0.038171,-0.020484,0.003622,0.002236,0.181815,-0.098557,9.729374,0.266207,0.094755,0,0,,38.990766,-76.937878,-4.311000,,,
2026-09-11T16:34:26.127,7.184574,-0.000000,0.690232,-0.000000,0.000000,27.937534,-9.611537,-0.000000,0.001580,0.003327,-0.068012,0.681918,-0.038139,-0.018948,-0.000427,0.004810,0.259092,-0.050406,9.708682,0.261330,0.102263,0,0,,38.990766,-76.937878,-4.311000,,,
2026-09-11T16:34:26.160,7.217997,-0.000000,0.690232,-0.000000,0.000000,27.937534,-9.611537,-0.000000,0.002251,0.004738,-0.067877,0.681923,-0.038075,-0.018148,-0.000619,0.006222,0.296063,-0.117189,9.732120,0.260314,0.105369,0,0,,38.990766,-76.937878,-4.311000,,,
2026-09-11T16:34:26.194,7.251407,-0.000000,0.690232,-0.000000,0.000000,27.937534,-9.611537,-0.000000,0.002167,0.004563,-0.067721,0.681928,-0.038002,-0.001622,0.002280,0.006046,0.409918,-0.113561,9.727118,0.266678,0.108675,0,0,,38.990766,-76.937878,-4.311000,,,
2026-09-11T16:34:26.227,7.284819,-0.000000,0.690232,-0.000000,0.000000,27.937534,-9.611537,-0.000000,0.002495,0.005252,-0.067558,0.681933,-0.037924,-0.004209,0.000936,0.006735,0.435808,-0.117288,9.710643,0.274647,0.111703,0,0,,38.990766,-76.937878,-4.311000,,,
2026-09-11T16:34:26.261,7.318230,-0.000000,0.690232,-0.000000,0.000000,27.937534,-9.611537,-0.000000,0.001149,0.002419,-0.067429,0.681937,-0.037863,-0.000407,0.000498,0.003903,0.422274,-0.114444,9.707995,0.281653,0.114881,0,0,,38.990766,-76.937878,-4.311000,,,
2026-09-11T16:34:26.294,7.351640,-0.000000,0.690232,-0.000000,0.000000,27.937534,-9.611537,-0.000000,0.000258,0.000544,-0.067380,0.681938,-0.037840,-0.002512,0.000496,0.002027,0.377164,-0.101891,9.730943,0.285661,0.118836,0,0,,38.990766,-76.937878,-4.311000,,,
2026-09-11T16:34:26.327,7.385054,-0.000000,0.690232,-0.000000,0.000000,27.937534,-9.611537,-0.000000,0.001406,0.002960,-0.067321,0.681940,-0.037812,-0.011159,0.000730,0.004444,0.357158,-0.116699,9.729080,0.288330,0.121789,0,0,,38.990766,-76.937878,-4.311000,,,
2026-09-11T16:34:26.361,7.418461,-0.000000,0.690232,-0.000000,0.000000,27.937534,-9.611537,-0.000000,0.001815,0.003821,-0.067208,0.681944,-0.037758,-0.017769,0.002590,0.005304,0.318716,-0.095615,9.727118,0.288482,0.126074,0,0,,38.990766,-76.937878,-4.311000,,,
2026-09-11T16:34:26.394,7.451873,-0.000000,0.690232,-0.000000,0.000000,27.937534,-9.611537,-0.000000,0.000922,0.001941,-0.067112,0.681947,-0.037713,-0.021129,0.002658,0.003424,0.342742,-0.096105,9.712212,0.290187,0.130279,0,0,,38.990766,-76.937878,-4.311000,,,
2026-09-11T16:34:26.427,7.485295,-0.000000,0.690232,-0.000000,0.000000,27.937534,-9.611537,-0.000000,0.001196,0.002518,-0.067037,0.681949,-0.037677,-0.026512,0.002861,0.004002,0.306948,-0.132292,9.736533,0.289556,0.132098,0,0,,38.990766,-76.937878,-4.311000,,,
2026-09-11T16:34:26.461,7.518705,-0.000000,0.690232,-0.000000,0.000000,27.937534,-9.611537,-0.000000,0.000635,0.001338,-0.066973,0.681951,-0.037647,-0.024977,0.003176,0.002821,0.330778,-0.120230,9.725843,0.291094,0.134675,0,0,,38.990766,-76.937878,-4.311000,,,
2026-09-11T16:34:26.495,7.552118,-0.000000,0.690232,-0.000000,0.000000,27.937534,-9.611537,-0.000000,0.002904,0.006115,-0.066848,0.681955,-0.037588,-0.014572,0.000554,0.007598,0.351470,-0.138862,9.712899,0.294573,0.136020,0,0,,38.990766,-76.937878,-4.311000,,,
2026-09-11T16:34:26.528,7.585534,-0.000000,0.690232,-0.000000,0.000000,27.846897,-9.580354,-0.000000,0.002273,0.004786,-0.066666,0.681961,-0.037502,-0.003718,0.001387,0.006270,0.340487,-0.156416,9.701719,0.297303,0.136213,0,0,,38.990766,-76.937878,-4.311000,,,
2026-09-11T16:34:26.561,7.618946,-0.000000,0.690232,-0.000000,0.000000,27.783039,-9.558385,-0.000000,0.001894,0.003987,-0.066520,0.681966,-0.037432,0.002064,0.002250,0.005471,0.314695,-0.142883,9.734179,0.298334,0.137280,0,0,,38.990766,-76.937878,-4.311000,,,
2026-09-11T16:34:26.595,7.652358,-0.000000,0.690232,-0.000000,0.000000,27.739093,-9.543266,-0.000000,0.001292,0.002721,-0.066408,0.681969,-0.037379,0.000011,0.000922,0.004204,0.267623,-0.155141,9.713095,0.296306,0.137542,0,0,,38.990766,-76.937878,-4.311000,,,
2026-09-11T16:34:26.628,7.685765,-0.000000,0.690232,-0.000000,0.000000,27.695148,-9.528147,-0.000000,0.000173,0.000365,-0.066356,0.681971,-0.037355,-0.002047,0.001652,0.001848,0.252619,-0.134057,9.718488,0.293330,0.139165,0,0,,38.990766,-76.937878,-4.311000,,,
2026-09-11T16:34:26.662,7.719189,-0.000000,0.690232,-0.000000,0.000000,27.695148,-9.528147,-0.000000,0.001017,0.002142,-0.066314,0.681972,-0.037335,-0.000717,0.001819,0.003625,0.241146,-0.116209,9.712801,0.289643,0.141926,0,0,,38.990766,-76.937878,-4.311000,,,
2026-09-11T16:34:26.695,7.752599,-0.000000,0.690232,-0.000000,0.000000,27.695148,-9.528147,-0.000000,0.002467,0.005193,-0.066192,0.681976,-0.037277,-0.004679,0.001437,0.006677,0.283020,-0.137293,9.712506,0.288708,0.143291,0,0,,38.990766,-76.937878,-4.311000,,,
2026-09-11T16:34:26.728,7.786009,-0.009725,0.689867,-0.090042,0.000000,27.695148,-9.528147,-0.009590,0.001473,0.003100,-0.066053,0.681821,-0.037200,-0.003542,0.002213,0.004584,0.348038,-0.116405,9.731433,0.291992,0.145995,0,0,,38.990766,-76.937878,-4.311000,,,
2026-09-11T16:34:26.762,7.819418,-0.009725,0.689548,-0.090042,0.000000,27.695148,-9.528147,-0.009590,0.001786,0.003760,-0.065939,0.681505,-0.037125,-0.008446,0.002953,0.005243,0.447576,-0.157789,9.710741,0.301681,0.145991,0,0,,38.990766,-76.937878,-4.311000,,,
2026-09-11T16:34:26.795,7.852825,-0.009725,0.689229,-0.090042,0.000000,27.695148,-9.528147,-0.009590,0.001548,0.003259,-0.065821,0.681189,-0.037048,-0.013572,0.002171,0.004743,0.502100,-0.153278,9.716527,0.314791,0.146279,0,0,,38.990766,-76.937878,-4.311000,,,
2026-09-11T16:34:26.828,7.886236,-0.009725,0.688910,-0.090042,0.000000,27.695148,-9.528147,-0.009590,0.001426,0.003002,-0.065717,0.680872,-0.036978,-0.010557,0.003387,0.004485,0.486116,-0.159162,9.716429,0.326723,0.146183,0,0,,38.990766,-76.937878,-4.311000,,,
2026-09-11T16:34:26.862,7.919642,-0.009725,0.688591,-0.090042,0.000000,27.695148,-9.528147,-0.009590,0.001083,0.002281,-0.065628,0.680555,-0.036915,-0.013951,0.002765,0.003764,0.470131,-0.157495,9.720548,0.337487,0.146196,0,0,,38.990766,-76.937878,-4.311000,,,
2026-09-11T16:34:26.895,7.953051,-0.009725,0.688272,-0.090042,0.000000,27.695148,-9.528147,-0.009590,0.000726,0.001528,-0.065565,0.680237,-0.036864,-0.014690,0.004236,0.003011,0.481801,-0.172303,9.716429,0.348887,0.145250,0,0,,38.990766,-76.937878,-4.311000,,,
2026-09-11T16:34:26.929,7.986463,-0.009725,0.687953,-0.090042,0.000000,27.695148,-9.528147,-0.009590,0.000712,0.001498,-0.065514,0.679919,-0.036819,-0.014441,0.002077,0.002982,0.443947,-0.173970,9.703092,0.357713,0.144207,0,0,,38.990766,-76.937878,-4.311000,,,
2026-09-11T16:34:26.962,8.019871,-0.009725,0.687634,-0.090042,0.000000,27.540653,-9.474995,-0.009592,0.000748,0.001574,-0.065463,0.679601,-0.036773,-0.008706,0.002760,0.003058,0.421098,-0.197506,9.687499,0.364342,0.141652,0,0,,38.990766,-76.937878,-4.311000,,,
2026-09-11T16:34:26.996,8.053286,-0.009725,0.687270,-0.090042,0.000000,27.391651,-9.423733,-0.009593,0.000841,0.001770,-0.065407,0.679283,-0.036726,-0.002008,0.004007,0.003254,0.352451,-0.196035,9.700346,0.365836,0.139221,0,0,,38.990766,-76.937878,-4.311000,,,
2026-09-11T16:34:27.029,8.086695,-0.009725,0.686951,-0.090042,0.000000,27.262561,-9.379322,-0.009595,0.001283,0.002701,-0.065332,0.678965,-0.036670,-0.003313,0.000982,0.004184,0.287041,-0.172597,9.733689,0.363080,0.138334,0,0,,38.990766,-76.937878,-4.311000,,,
2026-09-11T16:34:27.062,8.120108,-0.009725,0.686632,-0.090042,0.000000,27.255695,-9.376959,-0.009595,0.000507,0.001067,-0.065269,0.678647,-0.036619,0.000821,0.000456,0.002551,0.257130,-0.181521,9.718390,0.358418,0.136879,0,1,8.105658,38.990766,-76.937878,-4.264000,-0.114082,-0.783739,3.869605
2026-09-11T16:34:27.096,8.153516,-0.009725,0.686313,-0.090042,0.000000,27.255695,-9.376959,-0.009595,-0.000345,-0.000727,-0.065264,0.678328,-0.036595,0.010687,0.002158,0.000756,0.312930,-0.168772,9.705249,0.357420,0.136263,0,0,,38.990766,-76.937878,-4.264000,,,
2026-09-11T16:34:27.129,8.186925,-0.009725,0.685994,-0.090042,0.000000,27.211750,-9.361840,-0.009595,0.000720,0.001515,-0.065251,0.678008,-0.036568,0.009859,0.001540,0.002999,0.385107,-0.174068,9.716821,0.361104,0.135313,0,0,,38.990766,-76.937878,-4.264000,,,
2026-09-11T16:34:27.163,8.220347,-0.009725,0.685675,-0.090042,0.000000,27.126606,-9.332548,-0.009596,0.001435,0.003020,-0.065175,0.677691,-0.036511,0.006967,0.001159,0.004504,0.409918,-0.160143,9.749281,0.366355,0.135275,0,0,,38.990766,-76.937878,-4.264000,,,
2026-09-11T16:34:27.196,8.253757,-0.009725,0.685356,-0.090042,0.000000,27.079914,-9.316484,-0.009596,0.000132,0.000278,-0.065120,0.677372,-0.036464,0.010936,0.003062,0.001762,0.441986,-0.187209,9.721038,0.373621,0.133485,0,0,,38.990766,-76.937878,-4.264000,,,
2026-09-11T16:34:27.229,8.287170,-0.009725,0.684991,-0.090042,0.000000,27.079914,-9.316484,-0.009596,-0.000537,-0.001131,-0.065134,0.677052,-0.036450,0.005142,0.003201,0.000353,0.446791,-0.186621,9.743986,0.380498,0.131752,0,0,,38.990766,-76.937878,-4.264000,,,
2026-09-11T16:34:27.263,8.320578,-0.009725,0.684672,-0.090042,0.000000,27.079914,-9.316484,-0.009596,-0.000580,-0.001221,-0.065173,0.676731,-0.036448,0.003795,0.003424,0.000262,0.442182,-0.149748,9.717606,0.386380,0.132423,0,0,,38.990766,-76.937878,-4.264000,,,
2026-09-11T16:34:27.296,8.353984,-0.009725,0.684353,-0.090042,0.000000,27.079914,-9.316484,-0.009596,-0.000839,-0.001766,-0.065223,0.676409,-0.036451,0.009828,0.002304,-0.000282,0.403053,-0.169949,9.710643,0.389665,0.131780,0,0,,38.990766,-76.937878,-4.264000,,,
2026-09-11T16:34:27.330,8.387399,-0.009725,0.684034,-0.090042,0.000000,27.079914,-9.316484,-0.009596,-0.000529,-0.001114,-0.065271,0.676088,-0.036453,0.010008,0.001355,0.000370,0.354314,-0.155828,9.718096,0.389759,0.132058,0,0,,38.990766,-76.937878,-4.264000,,,
2026-09-11T16:34:27.363,8.420806,-0.009725,0.683715,-0.090042,0.000000,27.079914,-9.316484,-0.009596,-0.001866,-0.003928,-0.065355,0.675765,-0.036472,0.018952,0.001370,-0.002444,0.299201,-0.151709,9.723784,0.386285,0.132597,0,0,,38.990766,-76.937878,-4.264000,,,
2026-09-11T16:34:27.396,8.454219,-0.009725,0.683396,-0.090042,0.000000,27.079914,-9.316484,-0.009596,-0.000595,-0.001252,-0.065442,0.675443,-0.036492,0.020108,0.001156,0.000232,0.277234,-0.139843,9.733787,0.381428,0.133900,0,0,,38.990766,-76.937878,-4.264000,,,
2026-09-11T16:34:27.430,8.487629,-0.009725,0.683077,-0.090042,0.000000,27.079914,-9.316484,-0.009596,-0.000023,-0.000049,-0.065464,0.675122,-0.036481,0.021942,0.002260,0.001435,0.277822,-0.107285,9.720057,0.354978,0.137295,0,0,,38.990766,-76.937878,-4.264000,,,
2026-09-11T16:34:27.463,8.521043,-0.009725,0.682758,-0.090042,0.000000,27.079914,-9.316484,-0.009596,-0.001583,-0.003332,-0.065520,0.674801,-0.036487,0.024895,0.000531,-0.001848,0.298220,-0.113169,9.719077,0.324693,0.140271,0,0,,38.990766,-76.937878,-4.264000,,,
2026-09-11T16:34:27.497,8.554453,-0.000000,0.682621,-0.000000,0.000000,27.079914,-9.316484,-0.000000,-0.000142,-0.000298,-0.065581,0.674639,-0.036505,0.020705,0.000697,0.001186,0.368926,-0.100224,9.712212,0.319934,0.144053,0,0,,38.990766,-76.937878,-4.264000,,,
2026-09-11T16:34:27.530,8.587865,-0.000000,0.682621,-0.000000,0.000000,27.079914,-9.316484,-0.000000,-0.000777,-0.001636,-0.065613,0.674638,-0.036520,0.016506,0.003288,-0.000152,0.401288,-0.107481,9.710447,0.322321,0.147323,0,0,,38.990766,-76.937878,-4.264000,,,
2026-09-11T16:34:27.564,8.621292,-0.000000,0.682621,-0.000000,0.000000,27.079914,-9.316484,-0.000000,0.000457,0.000962,-0.065624,0.674637,-0.036526,0.010311,0.001439,0.002445,0.409722,-0.102381,9.720646,0.326301,0.150889,0,0,,38.990766,-76.937878,-4.264000,,,
2026-09-11T16:34:27.597,8.654701,-0.000000,0.682621,-0.000000,0.000000,27.079914,-9.316484,-0.000000,-0.000024,-0.000051,-0.065609,0.674638,-0.036518,0.009392,0.002864,0.001432,0.424628,-0.105912,9.713291,0.331647,0.154185,0,0,,38.990766,-76.937878,-4.264000,,,
2026-09-11T16:34:27.631,8.688112,-0.000000,0.682621,-0.000000,0.000000,27.079914,-9.316484,-0.000000,-0.001958,-0.004122,-0.065679,0.674636,-0.036551,0.006125,0.002634,-0.002638,0.428060,-0.103166,9.704955,0.337157,0.157622,0,0,,38.990766,-76.937878,-4.264000,,,
2026-09-11T16:34:27.664,8.721536,-0.000000,0.682621,-0.000000,0.000000,27.079914,-9.316484,-0.000000,-0.001427,-0.003004,-0.065798,0.674632,-0.036608,0.004308,0.001961,-0.001521,0.361081,-0.102479,9.718586,0.338271,0.161067,0,0,,38.990766,-76.937878,-4.264000,,,
2026-09-11T16:34:27.697,8.754941,0.340359,0.695473,3.151475,0.000000,27.079914,-9.316484,0.335870,-0.000742,-0.001562,-0.065874,0.680227,-0.037013,0.004530,0.002245,-0.000079,0.341075,-0.091790,9.714958,0.338077,0.165197,0,0,,38.990766,-76.937878,-4.264000,,,
2026-09-11T16:34:27.730,8.788352,0.085461,0.697979,0.791307,0.000000,27.079914,-9.316484,0.084334,-0.000780,-0.001643,-0.065928,0.687230,-0.037501,0.010468,0.002358,-0.000159,0.294984,-0.091692,9.730845,0.335522,0.169264,0,0,,38.990766,-76.937878,-4.264000,,,
2026-09-11T16:34:27.764,8.821762,0.016835,0.697888,0.155878,0.000000,27.079914,-9.316484,0.016613,-0.001144,-0.002408,-0.065995,0.688911,-0.037644,0.008658,0.001693,-0.000924,0.272821,-0.073354,9.731531,0.332181,0.174465,0,0,,38.990766,-76.937878,-4.264000,,,
2026-09-11T16:34:27.797,8.855178,0.007031,0.697979,0.065102,0.000000,27.079914,-9.316484,0.006938,-0.000839,-0.001765,-0.066065,0.689301,-0.037703,0.014564,0.001913,-0.000282,0.252619,-0.097086,9.719273,0.327568,0.178072,0,0,,38.990766,-76.937878,-4.264000,,,
2026-09-11T16:34:27.831,8.888589,-0.000000,0.697797,-0.000000,0.000000,27.079914,-9.316484,-0.000000,-0.000336,-0.000708,-0.066106,0.689415,-0.037730,0.015540,0.001283,0.000776,0.254875,-0.062959,9.725745,0.323153,0.183846,0,0,,38.990766,-76.937878,-4.264000,,,
2026-09-11T16:34:27.864,8.921997,-0.000000,0.697797,-0.000000,0.000000,27.079914,-9.316484,-0.000000,-0.000495,-0.001043,-0.066136,0.689414,-0.037744,0.019514,0.003066,0.000441,0.268408,-0.061782,9.729080,0.319663,0.189632,0,0,,38.990766,-76.937878,-4.264000,,,
2026-09-11T16:34:27.898,8.955418,-0.000000,0.697797,-0.000000,0.000000,27.154071,-9.341997,-0.000000,-0.001104,-0.002325,-0.066192,0.689413,-0.037771,0.014011,0.002966,-0.000841,0.340291,-0.065803,9.713487,0.320865,0.195095,0,0,,38.990766,-76.937878,-4.264000,,,
2026-09-11T16:34:27.931,8.988830,-0.000000,0.697797,-0.000000,0.000000,27.172611,-9.348375,-0.000000,-0.001477,-0.003110,-0.066283,0.689410,-0.037814,0.007152,0.001409,-0.001626,0.374614,-0.076100,9.725647,0.345961,0.199830,0,0,,38.990766,-76.937878,-4.264000,,,
2026-09-11T16:34:27.965,9.022241,-0.000000,0.697797,-0.000000,0.000000,27.234409,-9.369636,-0.000000,-0.000499,-0.001051,-0.066352,0.689408,-0.037847,0.002505,0.003029,0.000432,0.461403,-0.043542,9.718488,0.381842,0.206619,0,0,,38.990766,-76.937878,-4.264000,,,
2026-09-11T16:34:27.998,9.055651,-0.000000,0.697797,-0.000000,0.000000,27.278354,-9.384755,-0.000000,-0.001198,-0.002523,-0.066412,0.689406,-0.037875,-0.000421,0.002550,-0.001039,0.433356,-0.057859,9.717704,0.394896,0.212407,0,0,,38.990766,-76.937878,-4.264000,,,
2026-09-11T16:34:28.031,9.089061,-0.000000,0.697797,-0.000000,0.000000,27.278354,-9.384755,-0.000000,0.001441,0.003034,-0.066403,0.689406,-0.037871,-0.006808,0.001237,0.004517,0.408839,-0.056094,9.720156,0.401221,0.218244,0,0,,38.990766,-76.937878,-4.264000,,,
2026-09-11T16:34:28.065,9.122471,-0.000000,0.697797,-0.000000,0.000000,27.278354,-9.384755,-0.000000,0.000742,0.001562,-0.066327,0.689408,-0.037835,-0.001361,0.003069,0.003046,0.365298,-0.069039,9.716821,0.403585,0.223180,0,1,9.107164,38.990767,-76.937878,-4.243000,-0.125174,-0.771878,2.975754
2026-09-11T16:34:28.098,9.155879,-0.000000,0.697797,-0.000000,0.000000,27.278354,-9.384755,-0.000000,0.000119,0.000250,-0.066296,0.689409,-0.037820,-0.003156,0.002121,0.001733,0.331465,-0.071000,9.724765,0.403286,0.227933,0,0,,38.990767,-76.937878,-4.243000,,,
2026-09-11T16:34:28.131,9.189302,-0.000000,0.697797,-0.000000,0.000000,27.278354,-9.384755,-0.000000,-0.000194,-0.000408,-0.066299,0.689409,-0.037822,-0.003104,0.002169,0.001076,0.321952,-0.081689,9.710153,0.402373,0.231944,0,0,,38.990767,-76.937878,-4.243000,,,
2026-09-11T16:34:28.165,9.222726,-0.000000,0.697797,-0.000000,0.000000,27.278354,-9.384755,-0.000000,0.000698,0.001470,-0.066281,0.689410,-0.037813,0.000371,0.001794,0.002954,0.313224,-0.061880,9.712212,0.400906,0.237193,0,0,,38.990767,-76.937878,-4.243000,,,
2026-09-11T16:34:28.198,9.256134,-0.000000,0.697797,-0.000000,0.000000,27.278354,-9.384755,-0.000000,0.000281,0.000592,-0.066247,0.689411,-0.037797,0.000493,0.001292,0.002076,0.305967,-0.060115,9.720057,0.398985,0.242496,0,0,,38.990767,-76.937878,-4.243000,,,
2026-09-11T16:34:28.232,9.289546,-0.000000,0.697797,-0.000000,0.000000,27.278354,-9.384755,-0.000000,0.000508,0.001070,-0.066219,0.689412,-0.037784,-0.002427,0.001444,0.002554,0.339114,-0.059624,9.718292,0.399232,0.247772,0,0,,38.990767,-76.937878,-4.243000,,,
2026-09-11T16:34:28.265,9.322953,-0.000000,0.697797,-0.000000,0.000000,27.278354,-9.384755,-0.000000,0.000115,0.000242,-0.066197,0.689413,-0.037773,-0.000935,0.002243,0.001725,0.403544,-0.073060,9.712212,0.403645,0.252120,0,0,,38.990767,-76.937878,-4.243000,,,
2026-09-11T16:34:28.298,9.356364,-0.000000,0.697797,-0.000000,0.000000,27.278354,-9.384755,-0.000000,0.001096,0.002307,-0.066155,0.689414,-0.037753,-0.004930,0.001247,0.003791,0.423941,-0.065508,9.716233,0.409330,0.256909,0,0,,38.990767,-76.937878,-4.243000,,,
2026-09-11T16:34:28.332,9.389776,-0.000000,0.697797,-0.000000,0.000000,27.278354,-9.384755,-0.000000,0.000591,0.001245,-0.066095,0.689416,-0.037725,-0.001957,0.004386,0.002728,0.404132,-0.095026,9.718194,0.413670,0.259735,0,0,,38.990767,-76.937878,-4.243000,,,
2026-09-11T16:34:28.366,9.423183,-0.000000,0.697797,-0.000000,0.000000,27.278354,-9.384755,-0.000000,0.001483,0.003122,-0.066022,0.689418,-0.037690,-0.003620,0.001528,0.004605,0.400307,-0.053054,9.722999,0.417713,0.265244,0,0,,38.990767,-76.937878,-4.243000,,,
2026-09-11T16:34:28.399,9.456601,-0.000000,0.697797,-0.000000,0.000000,27.278354,-9.384755,-0.000000,0.000558,0.001175,-0.065951,0.689420,-0.037656,-0.000410,0.002181,0.002659,0.386872,-0.101695,9.719273,0.420844,0.267547,0,0,,38.990767,-76.937878,-4.243000,,,
2026-09-11T16:34:28.432,9.490008,-0.000000,0.697797,-0.000000,0.000000,27.278354,-9.384755,-0.000000,-0.000678,-0.001428,-0.065955,0.689420,-0.037658,0.002972,0.003744,0.000055,0.379910,-0.090123,9.720842,0.423488,0.270572,0,0,,38.990767,-76.937878,-4.243000,,,
2026-09-11T16:34:28.466,9.523421,-0.000000,0.697797,-0.000000,0.000000,27.278354,-9.384755,-0.000000,-0.001283,-0.002702,-0.066024,0.689418,-0.037691,0.003015,0.002029,-0.001218,0.310577,-0.056094,9.712997,0.421616,0.275766,0,0,,38.990767,-76.937878,-4.243000,,,
2026-09-11T16:34:28.499,9.556833,-0.000000,0.697797,-0.000000,0.000000,27.278354,-9.384755,-0.000000,-0.000039,-0.000083,-0.066070,0.689416,-0.037713,-0.001229,0.002284,0.001401,0.296651,-0.057565,9.726628,0.418863,0.280806,0,0,,38.990767,-76.937878,-4.243000,,,
2026-09-11T16:34:28.533,9.590250,-0.000000,0.697797,-0.000000,0.000000,27.278354,-9.384755,-0.000000,0.000014,0.000029,-0.066071,0.689416,-0.037714,0.001909,0.003103,0.001513,0.307046,-0.050308,9.718783,0.416813,0.286262,0,0,,38.990767,-76.937878,-4.243000,,,
2026-09-11T16:34:28.566,9.623659,-0.000000,0.697797,-0.000000,0.000000,27.278354,-9.384755,-0.000000,0.000145,0.000306,-0.066066,0.689417,-0.037711,-0.007331,0.001749,0.001789,0.297141,-0.065803,9.722607,0.414146,0.290653,0,0,,38.990767,-76.937878,-4.243000,,,
2026-09-11T16:34:28.600,9.657068,-0.000000,0.697797,-0.000000,0.000000,27.278354,-9.384755,-0.000000,0.000023,0.000048,-0.066060,0.689417,-0.037708,-0.005775,0.003517,0.001531,0.258013,-0.039521,9.727707,0.408975,0.296696,0,0,,38.990767,-76.937878,-4.243000,,,
2026-09-11T16:34:28.633,9.690494,-0.000000,0.697797,-0.000000,0.000000,27.278354,-9.384755,-0.000000,0.000686,0.001445,-0.066035,0.689418,-0.037696,-0.000829,0.002615,0.002928,0.276253,-0.066587,9.720057,0.405040,0.300923,0,0,,38.990767,-76.937878,-4.243000,,,
2026-09-11T16:34:28.666,9.723919,-0.000000,0.697797,-0.000000,0.000000,27.278354,-9.384755,-0.000000,0.000485,0.001021,-0.065993,0.689419,-0.037677,-0.004961,0.003282,0.002504,0.319893,-0.068156,9.722411,0.403975,0.305001,0,0,,38.990767,-76.937878,-4.243000,,,
2026-09-11T16:34:28.700,9.757339,-0.000000,0.697797,-0.000000,0.000000,27.278354,-9.384755,-0.000000,0.000458,0.000965,-0.065960,0.689420,-0.037661,0.000777,0.003524,0.002449,0.387755,-0.081689,9.710839,0.407315,0.308158,0,0,,38.990767,-76.937878,-4.243000,,,
2026-09-11T16:34:28.733,9.790756,-0.000000,0.697797,-0.000000,0.000000,27.278354,-9.384755,-0.000000,0.000436,0.000917,-0.065929,0.689421,-0.037646,-0.000806,0.001801,0.002401,0.441495,-0.081591,9.718390,0.414097,0.311286,0,0,,38.990767,-76.937878,-4.243000,,,
2026-09-11T16:34:28.767,9.824172,-0.000000,0.697797,-0.000000,0.000000,27.278354,-9.384755,-0.000000,-0.000905,-0.001905,-0.065945,0.689420,-0.037654,-0.000641,0.003404,-0.000421,0.435121,-0.078845,9.710643,0.420391,0.314557,0,0,,38.990767,-76.937878,-4.243000,,,
2026-09-11T16:34:28.800,9.857580,-0.000000,0.697797,-0.000000,0.000000,27.278354,-9.384755,-0.000000,-0.000256,-0.000538,-0.065986,0.689419,-0.037673,-0.001363,0.003431,0.000945,0.411193,-0.071392,9.721627,0.425065,0.318274,0,0,,38.990767,-76.937878,-4.243000,,,
2026-09-11T16:34:28.833,9.891000,-0.000000,0.697797,-0.000000,0.000000,27.278354,-9.384755,-0.000000,0.000417,0.000877,-0.065980,0.689419,-0.037671,-0.007457,0.002119,0.002361,0.380694,-0.066391,9.712114,0.427714,0.322274,0,0,,38.990767,-76.937878,-4.243000,,,
2026-09-11T16:34:28.867,9.924414,-0.000000,0.697797,-0.000000,0.000000,27.278354,-9.384755,-0.000000,-0.000789,-0.001661,-0.065994,0.689419,-0.037677,-0.005819,0.002619,-0.000177,0.336564,-0.068843,9.714272,0.427477,0.326070,0,0,,38.990767,-76.937878,-4.243000,,,
2026-09-11T16:34:28.900,9.957822,-0.000000,0.697797,-0.000000,0.000000,27.278354,-9.384755,-0.000000,-0.000385,-0.000811,-0.066035,0.689418,-0.037696,-0.003789,0.003418,0.000672,0.277234,-0.070608,9.730551,0.423403,0.329709,0,0,,38.990767,-76.937878,-4.243000,,,
2026-09-11T16:34:28.934,9.991239,-0.000000,0.697797,-0.000000,0.000000,27.278354,-9.384755,-0.000000,0.000133,0.000281,-0.066044,0.689417,-0.037701,-0.005301,0.002971,0.001764,0.267525,-0.054329,9.728099,0.418744,0.334363,0,0,,38.990767,-76.937878,-4.243000,,,
2026-09-11T16:34:28.967,10.024651,-0.000000,0.697797,-0.000000,0.000000,27.278354,-9.384755,-0.000000,0.000061,0.000128,-0.066037,0.689418,-0.037697,-0.002194,0.002423,0.001611,0.294690,-0.089437,9.715154,0.415896,0.336692,0,0,,38.990767,-76.937878,-4.243000,,,
2026-09-11T16:34:29.000,10.058059,-0.000000,0.697797,-0.000000,0.000000,27.278354,-9.384755,-0.000000,0.000105,0.000220,-0.066031,0.689418,-0.037695,-0.000960,0.002375,0.001704,0.319501,-0.082180,9.712899,0.414686,0.339466,0,0,,38.990767,-76.937878,-4.243000,,,
2026-09-11T16:34:29.034,10.091475,-0.000000,0.697797,-0.000000,0.000000,27.278354,-9.384755,-0.000000,0.000164,0.000346,-0.066022,0.689418,-0.037690,-0.000337,0.003708,0.001829,0.371966,-0.091790,9.717214,0.416885,0.341587,0,0,,38.990767,-76.937878,-4.243000,,,
2026-09-11T16:34:29.067,10.124974,-0.000000,0.697797,-0.000000,0.000000,27.278354,-9.384755,-0.000000,-0.000354,-0.000745,-0.066028,0.689418,-0.037693,-0.000820,0.002072,0.000738,0.394816,-0.081787,9.714468,0.420548,0.344339,0,1,10.115157,38.990767,-76.937878,-4.230000,-0.126758,-0.767060,2.976275
2026-09-11T16:34:29.101,10.158384,-0.000000,0.697797,-0.000000,0.000000,27.278354,-9.384755,-0.000000,-0.000031,-0.000066,-0.066042,0.689417,-0.037700,0.000571,0.001053,0.001417,0.402073,-0.100224,9.708976,0.424630,0.345860,0,0,,38.990767,-76.937878,-4.230000,,,
2026-09-11T16:34:29.134,10.191802,-0.000000,0.697797,-0.000000,0.000000,27.278354,-9.384755,-0.000000,-0.000273,-0.000575,-0.066053,0.689417,-0.037705,0.001304,0.003031,0.000908,0.387461,-0.091202,9.718096,0.427722,0.347949,0,0,,38.990767,-76.937878,-4.230000,,,
2026-09-11T16:34:29.168,10.225371,-0.000000,0.697797,-0.000000,0.000000,27.278354,-9.384755,-0.000000,-0.000636,-0.001339,-0.066085,0.689416,-0.037720,0.002395,0.000976,0.000145,0.368632,-0.074825,9.717508,0.429569,0.351088,0,0,,38.990767,-76.937878,-4.230000,,,
2026-09-11T16:34:29.201,10.258779,-0.000000,0.697797,-0.000000,0.000000,27.278354,-9.384755,-0.000000,-0.000199,-0.000419,-0.066114,0.689415,-0.037734,0.000803,0.001279,0.001065,0.370397,-0.077080,9.716429,0.431501,0.354032,0,0,,38.990767,-76.937878,-4.230000,,,
2026-09-11T16:34:29.235,10.292198,-0.000000,0.697797,-0.000000,0.000000,27.278354,-9.384755,-0.000000,0.000102,0.000215,-0.066117,0.689415,-0.037735,0.004375,0.003250,0.001698,0.362062,-0.070804,9.717508,0.432873,0.357350,0,0,,38.990767,-76.937878,-4.230000,,,
2026-09-11T16:34:29.268,10.325607,-0.000000,0.697797,-0.000000,0.000000,27.278354,-9.384755,-0.000000,0.000980,0.002063,-0.066079,0.689416,-0.037717,0.000107,0.001037,0.003547,0.351765,-0.073942,9.714664,0.433563,0.360428,0,0,,38.990767,-76.937878,-4.230000,,,
2026-09-11T16:34:29.301,10.359015,-0.000000,0.697797,-0.000000,0.000000,27.278354,-9.384755,-0.000000,0.000663,0.001396,-0.066022,0.689418,-0.037690,-0.002041,0.002641,0.002879,0.346175,-0.070608,9.726922,0.433883,0.363686,0,0,,38.990767,-76.937878,-4.230000,,,
2026-09-11T16:34:29.335,10.392437,-0.000000,0.697797,-0.000000,0.000000,27.278354,-9.384755,-0.000000,-0.000275,-0.000579,-0.066008,0.689418,-0.037684,-0.003434,0.001944,0.000905,0.355197,-0.073158,9.716331,0.434784,0.366746,0,0,,38.990767,-76.937878,-4.230000,,,
2026-09-11T16:34:29.368,10.425852,-0.000000,0.697797,-0.000000,0.000000,27.278354,-9.384755,-0.000000,0.000123,0.000259,-0.066013,0.689418,-0.037686,-0.008759,0.001551,0.001743,0.377458,-0.080807,9.713683,0.437116,0.369275,0,0,,38.990767,-76.937878,-4.230000,,,
2026-09-11T16:34:29.402,10.459261,-0.000000,0.697797,-0.000000,0.000000,27.278354,-9.384755,-0.000000,0.001005,0.002116,-0.065974,0.689420,-0.037667,-0.008362,0.002498,0.003600,0.358825,-0.088946,9.725353,0.438215,0.371250,0,0,,38.990767,-76.937878,-4.230000,,,
2026-09-11T16:34:29.435,10.492679,-0.000000,0.697797,-0.000000,0.000000,27.278354,-9.384755,-0.000000,0.000242,0.000510,-0.065930,0.689421,-0.037647,-0.006210,0.002118,0.001994,0.341958,-0.080611,9.725451,0.438211,0.373743,0,0,,38.990767,-76.937878,-4.230000,,,
2026-09-11T16:34:29.468,10.526087,-0.000000,0.697797,-0.000000,0.000000,27.278354,-9.384755,-0.000000,0.000314,0.000662,-0.065910,0.689422,-0.037637,-0.007582,0.002957,0.002146,0.359218,-0.086200,9.713291,0.439324,0.375846,0,0,,38.990767,-76.937878,-4.230000,,,
2026-09-11T16:34:29.502,10.559495,-0.000000,0.697797,-0.000000,0.000000,27.278354,-9.384755,-0.000000,0.000098,0.000206,-0.065896,0.689422,-0.037630,-0.003035,0.002851,0.001689,0.361375,-0.101499,9.723588,0.440564,0.376936,0,0,,38.990767,-76.937878,-4.230000,,,
2026-09-11T16:34:29.535,10.592910,-0.000000,0.697797,-0.000000,0.000000,27.278354,-9.384755,-0.000000,0.000132,0.000279,-0.065888,0.689422,-0.037627,-0.005391,0.001447,0.001762,0.355687,-0.071981,9.726824,0.441423,0.379923,0,0,,38.990767,-76.937878,-4.230000,,,
2026-09-11T16:34:29.569,10.626320,-0.000000,0.697797,-0.000000,0.000000,27.278354,-9.384755,-0.000000,0.000317,0.000667,-0.065872,0.689423,-0.037619,-0.004785,0.002757,0.002151,0.359708,-0.091006,9.719763,0.442532,0.381647,0,0,,38.990767,-76.937878,-4.230000,,,
2026-09-11T16:34:29.602,10.659737,-0.000000,0.697797,-0.000000,0.000000,27.278354,-9.384755,-0.000000,-0.000082,-0.000173,-0.065864,0.689423,-0.037615,-0.007150,0.003982,0.001310,0.378635,-0.082572,9.716919,0.444854,0.383898,0,0,,38.990767,-76.937878,-4.230000,,,
2026-09-11T16:34:29.635,10.693153,-0.000000,0.697797,-0.000000,0.000000,27.278354,-9.384755,-0.000000,0.000362,0.000762,-0.065854,0.689423,-0.037610,-0.015108,0.001563,0.002245,0.373633,-0.098067,9.715939,0.446827,0.385121,0,0,,38.990767,-76.937878,-4.230000,,,
2026-09-11T16:34:29.669,10.726563,-0.000000,0.697797,-0.000000,0.000000,27.278354,-9.384755,-0.000000,-0.000025,-0.000053,-0.065842,0.689424,-0.037605,-0.011030,0.004629,0.001430,0.378733,-0.093555,9.695443,0.449108,0.386622,0,0,,38.990767,-76.937878,-4.230000,,,
2026-09-11T16:34:29.702,10.759973,-0.000000,0.697797,-0.000000,0.000000,27.278354,-9.384755,-0.000000,-0.000608,-0.001280,-0.065864,0.689423,-0.037615,-0.012670,0.003771,0.000203,0.315480,-0.105127,9.719959,0.447269,0.387358,0,0,,38.990767,-76.937878,-4.230000,,,
2026-09-11T16:34:29.736,10.793388,-0.000000,0.697797,-0.000000,0.000000,27.278354,-9.384755,-0.000000,0.000469,0.000987,-0.065869,0.689423,-0.037618,-0.013677,0.003393,0.002471,0.299789,-0.089731,9.714370,0.444435,0.389082,0,0,,38.990767,-76.937878,-4.230000,,,
2026-09-11T16:34:29.770,10.826807,-0.000000,0.697797,-0.000000,0.000000,27.278354,-9.384755,-0.000000,-0.000267,-0.000562,-0.065862,0.689423,-0.037614,-0.007655,0.003314,0.000922,0.293513,-0.116405,9.725843,0.441226,0.389061,0,0,,38.990767,-76.937878,-4.230000,,,
2026-09-11T16:34:29.802,10.860214,-0.000000,0.697797,-0.000000,0.000000,27.278354,-9.384755,-0.000000,-0.000080,-0.000169,-0.065874,0.689423,-0.037620,-0.007458,0.003933,0.001314,0.335486,-0.111011,9.711722,0.440769,0.389389,0,0,,38.990767,-76.937878,-4.230000,,,
2026-09-11T16:34:29.836,10.893628,-0.000000,0.697797,-0.000000,0.000000,27.278354,-9.384755,-0.000000,0.000648,0.001365,-0.065854,0.689423,-0.037611,-0.009231,0.003834,0.002848,0.356962,-0.123368,9.713585,0.441708,0.388915,0,0,,38.990767,-76.937878,-4.230000,,,
2026-09-11T16:34:29.869,10.927043,-0.000000,0.697797,-0.000000,0.000000,27.278354,-9.384755,-0.000000,0.000557,0.001173,-0.065812,0.689425,-0.037591,-0.008145,0.002990,0.002657,0.368044,-0.117189,9.712016,0.443354,0.388845,0,0,,38.990767,-76.937878,-4.230000,,,
2026-09-11T16:34:29.903,10.960456,-0.000000,0.697797,-0.000000,0.000000,27.278354,-9.384755,-0.000000,0.000335,0.000705,-0.065780,0.689426,-0.037576,-0.012415,0.002420,0.002188,0.343037,-0.119837,9.718685,0.443363,0.388605,0,0,,38.990767,-76.937878,-4.230000,,,
2026-09-11T16:34:29.936,10.993869,-0.000000,0.697797,-0.000000,0.000000,27.278354,-9.384755,-0.000000,0.000328,0.000690,-0.065757,0.689426,-0.037565,-0.015910,0.003780,0.002173,0.357943,-0.130428,9.714860,0.444336,0.387682,0,0,,38.990767,-76.937878,-4.230000,,,
2026-09-11T16:34:29.969,11.027276,-0.000000,0.697797,-0.000000,0.000000,27.278354,-9.384755,-0.000000,0.001048,0.002207,-0.065709,0.689428,-0.037542,-0.019643,0.003783,0.003691,0.356570,-0.113365,9.713291,0.445210,0.387873,0,0,,38.990767,-76.937878,-4.230000,,,
2026-09-11T16:34:30.003,11.060685,-0.000000,0.697797,-0.000000,0.000000,27.278354,-9.384755,-0.000000,0.000749,0.001576,-0.065646,0.689430,-0.037512,-0.017989,0.005797,0.003060,0.367847,-0.137980,9.704759,0.446804,0.386470,0,0,,38.990767,-76.937878,-4.230000,,,
2026-09-11T16:34:30.036,11.094098,-0.000000,0.697797,-0.000000,0.000000,27.278354,-9.384755,-0.000000,0.000639,0.001345,-0.065597,0.689431,-0.037489,-0.015852,0.003645,0.002829,0.373830,-0.147394,9.686715,0.448767,0.384474,0,0,,38.990767,-76.937878,-4.230000,,,
2026-09-11T16:34:30.070,11.127508,-0.000000,0.697797,-0.000000,0.000000,27.278354,-9.384755,-0.000000,0.001211,0.002549,-0.065532,0.689433,-0.037458,-0.011292,0.001811,0.004032,0.336760,-0.147002,9.729276,0.448310,0.382525,0,1,11.106776,38.990767,-76.937878,-4.216000,-0.123445,-0.766504,2.976275
2026-09-11T16:34:30.103,11.160927,-0.000000,0.697797,-0.000000,0.000000,27.278354,-9.384755,-0.000000,-0.000209,-0.000441,-0.065496,0.689434,-0.037441,-0.002027,0.003840,0.001043,0.288806,-0.156612,9.717410,0.444753,0.379975,0,0,,38.990767,-76.937878,-4.216000,,,
2026-09-11T16:34:30.137,11.194342,-0.000000,0.697797,-0.000000,0.000000,27.278354,-9.384755,-0.000000,0.000216,0.000454,-0.065496,0.689434,-0.037441,0.004531,0.003450,0.001937,0.285766,-0.165340,9.718390,0.441039,0.376889,0,0,,38.990767,-76.937878,-4.216000,,,
2026-09-11T16:34:30.170,11.227751,-0.000000,0.697797,-0.000000,0.000000,27.278354,-9.384755,-0.000000,0.000462,0.000972,-0.065472,0.689435,-0.037430,-0.000133,0.000928,0.002456,0.310871,-0.160045,9.728001,0.438991,0.374180,0,0,,38.990767,-76.937878,-4.216000,,,
2026-09-11T16:34:30.203,11.261163,-0.000000,0.697797,-0.000000,0.000000,27.278354,-9.384755,-0.000000,-0.000485,-0.001022,-0.065473,0.689435,-0.037430,0.005230,0.003357,0.000461,0.342546,-0.156808,9.719175,0.439017,0.371711,0,0,,38.990767,-76.937878,-4.216000,,,
2026-09-11T16:34:30.237,11.294582,-0.000000,0.697797,-0.000000,0.000000,27.278354,-9.384755,-0.000000,-0.000515,-0.001084,-0.065508,0.689434,-0.037447,0.003137,0.001803,0.000399,0.350490,-0.147884,9.720646,0.439556,0.369846,0,0,,38.990767,-76.937878,-4.216000,,,
2026-09-11T16:34:30.270,11.327990,-0.000000,0.697797,-0.000000,0.000000,27.278354,-9.384755,-0.000000,-0.000044,-0.000092,-0.065528,0.689433,-0.037456,-0.000647,0.001565,0.001391,0.359806,-0.144452,9.719273,0.440692,0.368224,0,0,,38.990767,-76.937878,-4.216000,,,
2026-09-11T16:34:30.304,11.361396,-0.000000,0.697797,-0.000000,0.000000,27.278354,-9.384755,-0.000000,-0.000350,-0.000738,-0.065542,0.689433,-0.037463,0.001618,0.000763,0.000746,0.384813,-0.150140,9.717115,0.443434,0.366252,0,0,,38.990767,-76.937878,-4.216000,,,
2026-09-11T16:34:30.337,11.394918,-0.000000,0.697797,-0.000000,0.000000,27.278354,-9.384755,-0.000000,0.000679,0.001430,-0.065530,0.689433,-0.037457,-0.000038,0.001060,0.002914,0.356766,-0.154357,9.719077,0.444333,0.364021,0,0,,38.990767,-76.937878,-4.216000,,,
2026-09-11T16:34:30.371,11.428328,-0.000000,0.697797,-0.000000,0.000000,27.278354,-9.384755,-0.000000,0.000909,0.001914,-0.065474,0.689435,-0.037431,-0.001568,0.002623,0.003398,0.338035,-0.141706,9.722019,0.444008,0.362641,0,0,,38.990767,-76.937878,-4.216000,,,
2026-09-11T16:34:30.404,11.461737,-0.000000,0.697797,-0.000000,0.000000,27.278354,-9.384755,-0.000000,0.000337,0.000710,-0.065431,0.689436,-0.037410,-0.001727,0.001236,0.002193,0.334995,-0.144746,9.723294,0.443489,0.361080,0,0,,38.990767,-76.937878,-4.216000,,,
2026-09-11T16:34:30.437,11.495151,-0.000000,0.697797,-0.000000,0.000000,27.278354,-9.384755,-0.000000,0.000831,0.001750,-0.065390,0.689438,-0.037390,-0.001038,0.000646,0.003233,0.356472,-0.158377,9.710839,0.444366,0.358654,0,0,,38.990767,-76.937878,-4.216000,,,
2026-09-11T16:34:30.471,11.528560,-0.000000,0.697797,-0.000000,0.000000,27.278354,-9.384755,-0.000000,0.000115,0.000243,-0.065356,0.689439,-0.037375,0.002206,0.002577,0.001727,0.341566,-0.152003,9.712702,0.444268,0.356668,0,0,,38.990767,-76.937878,-4.216000,,,
2026-09-11T16:34:30.504,11.561967,-0.000000,0.697797,-0.000000,0.000000,27.278354,-9.384755,-0.000000,0.000125,0.000263,-0.065348,0.689439,-0.037371,0.001913,-0.000053,0.001747,0.318814,-0.141902,9.723392,0.442699,0.355356,0,0,,38.990767,-76.937878,-4.216000,,,
2026-09-11T16:34:30.538,11.595387,-0.000000,0.697797,-0.000000,0.000000,27.278354,-9.384755,-0.000000,0.000514,0.001081,-0.065325,0.689440,-0.037360,0.004668,0.000801,0.002565,0.337447,-0.145236,9.717704,0.442353,0.353844,0,0,,38.990767,-76.937878,-4.216000,,,
2026-09-11T16:34:30.571,11.628796,-0.000000,0.697797,-0.000000,0.000000,27.278354,-9.384755,-0.000000,-0.000586,-0.001234,-0.065328,0.689440,-0.037361,0.007667,0.001806,0.000250,0.360787,-0.144452,9.714762,0.443522,0.352399,0,0,,38.990767,-76.937878,-4.216000,,,
2026-09-11T16:34:30.605,11.662208,-0.000000,0.697797,-0.000000,0.000000,27.278354,-9.384755,-0.000000,-0.000281,-0.000592,-0.065358,0.689439,-0.037376,0.003759,0.000486,0.000891,0.372555,-0.144746,9.707407,0.445439,0.350951,0,0,,38.990767,-76.937878,-4.216000,,,
2026-09-11T16:34:30.638,11.695625,-0.000000,0.697797,-0.000000,0.000000,27.278354,-9.384755,-0.000000,0.000245,0.000516,-0.065360,0.689439,-0.037376,0.004636,0.002260,0.001999,0.336074,-0.133272,9.726039,0.444974,0.350261,0,0,,38.990767,-76.937878,-4.216000,,,
2026-09-11T16:34:30.671,11.729035,-0.000000,0.697797,-0.000000,0.000000,27.278354,-9.384755,-0.000000,-0.000303,-0.000638,-0.065362,0.689439,-0.037377,0.005960,0.003609,0.000846,0.341762,-0.131017,9.721234,0.444882,0.349725,0,0,,38.990767,-76.937878,-4.216000,,,
2026-09-11T16:34:30.705,11.762447,-0.000000,0.697797,-0.000000,0.000000,27.278354,-9.384755,-0.000000,-0.000110,-0.000231,-0.065376,0.689438,-0.037384,0.004820,0.002266,0.001253,0.353137,-0.142883,9.717802,0.445528,0.348427,0,0,,38.990767,-76.937878,-4.216000,,,
2026-09-11T16:34:30.738,11.795864,-0.000000,0.697797,-0.000000,0.000000,27.278354,-9.384755,-0.000000,0.000569,0.001197,-0.065360,0.689439,-0.037376,0.004368,0.001922,0.002681,0.352059,-0.135626,9.719567,0.446097,0.347613,0,0,,38.990767,-76.937878,-4.216000,,,
2026-09-11T16:34:30.771,11.829286,-0.000000,0.697797,-0.000000,0.000000,27.278354,-9.384755,-0.000000,0.000062,0.000130,-0.065338,0.689439,-0.037366,0.010294,0.001509,0.001614,0.322148,-0.136901,9.728393,0.444722,0.346725,0,0,,38.990767,-76.937878,-4.216000,,,
2026-09-11T16:34:30.805,11.862693,-0.000000,0.697797,-0.000000,0.000000,27.278354,-9.384755,-0.000000,-0.000047,-0.000098,-0.065337,0.689439,-0.037366,0.009471,0.001828,0.001385,0.329798,-0.115718,9.721038,0.443859,0.347218,0,0,,38.990767,-76.937878,-4.216000,,,
2026-09-11T16:34:30.839,11.896112,-0.000000,0.697797,-0.000000,0.000000,27.278354,-9.384755,-0.000000,-0.000418,-0.000879,-0.065354,0.689439,-0.037373,0.009070,0.002708,0.000605,0.365298,-0.117974,9.707309,0.445304,0.347559,0,0,,38.990767,-76.937878,-4.216000,,,
2026-09-11T16:34:30.872,11.929521,-0.000000,0.697797,-0.000000,0.000000,27.278354,-9.384755,-0.000000,-0.000411,-0.000866,-0.065383,0.689438,-0.037387,0.007777,0.000724,0.000618,0.360983,-0.121897,9.718783,0.446452,0.347643,0,0,,38.990767,-76.937878,-4.216000,,,
2026-09-11T16:34:30.906,11.962928,-0.000000,0.697797,-0.000000,0.000000,27.278354,-9.384755,-0.000000,-0.000301,-0.000633,-0.065408,0.689437,-0.037399,0.004065,0.003823,0.000850,0.343429,-0.101107,9.721430,0.446452,0.349071,0,0,,38.990767,-76.937878,-4.216000,,,
2026-09-11T16:34:30.938,11.996338,-0.000000,0.697797,-0.000000,0.000000,27.278354,-9.384755,-0.000000,-0.000314,-0.000662,-0.065429,0.689436,-0.037409,0.002922,0.003651,0.000822,0.352647,-0.113855,9.721332,0.447048,0.349658,0,0,,38.990767,-76.937878,-4.216000,,,
2026-09-11T16:34:30.972,12.029745,-0.000000,0.697797,-0.000000,0.000000,27.278354,-9.384755,-0.000000,0.001069,0.002250,-0.065403,0.689437,-0.037397,-0.002316,0.001441,0.003734,0.357158,-0.131409,9.716037,0.447930,0.349103,0,0,,38.990767,-76.937878,-4.216000,,,
2026-09-11T16:34:31.006,12.063154,-0.000000,0.697797,-0.000000,0.000000,27.278354,-9.384755,-0.000000,-0.000371,-0.000782,-0.065378,0.689438,-0.037385,0.000358,0.002708,0.000702,0.328131,-0.111992,9.722607,0.446924,0.349811,0,0,,38.990767,-76.937878,-4.216000,,,
2026-09-11T16:34:31.039,12.096564,-0.000000,0.697797,-0.000000,0.000000,27.278354,-9.384755,-0.000000,-0.000263,-0.000553,-0.065401,0.689437,-0.037396,0.001223,0.002566,0.000930,0.342350,-0.112580,9.716429,0.446848,0.350472,0,0,,38.990767,-76.937878,-4.216000,,,
2026-09-11T16:34:31.072,12.129981,-0.000000,0.697797,-0.000000,0.000000,27.278354,-9.384755,-0.000000,0.000575,0.001210,-0.065390,0.689438,-0.037391,-0.001615,0.000220,0.002693,0.358727,-0.121701,9.717802,0.447834,0.350537,0,1,12.113340,38.990767,-76.937878,-4.199000,-0.122005,-0.766318,2.976275
2026-09-11T16:34:31.106,12.163388,-0.000000,0.697797,-0.000000,0.000000,27.278354,-9.384755,-0.000000,-0.000199,-0.000418,-0.065377,0.689438,-0.037384,0.002485,0.002165,0.001065,0.336270,-0.110325,9.724274,0.447355,0.351336,0,0,,38.990767,-76.937878,-4.199000,,,
2026-09-11T16:34:31.139,12.196796,-0.000000,0.697797,-0.000000,0.000000,27.278354,-9.384755,-0.000000,0.000806,0.001697,-0.065355,0.689439,-0.037374,0.004541,0.001260,0.003180,0.323227,-0.118464,9.728393,0.446038,0.351600,0,0,,38.990767,-76.937878,-4.199000,,,
2026-09-11T16:34:31.173,12.230205,-0.000000,0.697797,-0.000000,0.000000,27.278354,-9.384755,-0.000000,0.000958,0.002016,-0.065293,0.689441,-0.037345,0.001872,0.000623,0.003500,0.339310,-0.122779,9.717998,0.445775,0.351582,0,0,,38.990767,-76.937878,-4.199000,,,
2026-09-11T16:34:31.206,12.263614,-0.000000,0.697797,-0.000000,0.000000,27.278354,-9.384755,-0.000000,0.000155,0.000326,-0.065254,0.689442,-0.037326,0.005552,0.001039,0.001809,0.333524,-0.112286,9.721234,0.445142,0.352243,0,0,,38.990767,-76.937878,-4.199000,,,
2026-09-11T16:34:31.239,12.297022,-0.000000,0.697797,-0.000000,0.000000,27.278354,-9.384755,-0.000000,0.000541,0.001138,-0.065230,0.689443,-0.037315,0.005288,0.000568,0.002621,0.338133,-0.117484,9.714272,0.444813,0.352560,0,0,,38.990767,-76.937878,-4.199000,,,
2026-09-11T16:34:31.273,12.330428,-0.000000,0.697797,-0.000000,0.000000,27.278354,-9.384755,-0.000000,0.000601,0.001264,-0.065189,0.689444,-0.037296,0.004319,0.002428,0.002748,0.342742,-0.122289,9.715743,0.444787,0.352563,0,0,,38.990767,-76.937878,-4.199000,,,
2026-09-11T16:34:31.306,12.363838,-0.000000,0.697797,-0.000000,0.000000,27.278354,-9.384755,-0.000000,0.000359,0.000755,-0.065156,0.689445,-0.037280,0.004486,0.000712,0.002239,0.345390,-0.108069,9.718979,0.444932,0.353486,0,0,,38.990767,-76.937878,-4.199000,,,
2026-09-11T16:34:31.339,12.397259,-0.000000,0.697797,-0.000000,0.000000,27.278354,-9.384755,-0.000000,0.000311,0.000654,-0.065132,0.689446,-0.037268,0.002102,-0.000471,0.002138,0.356864,-0.108952,9.719077,0.445819,0.354342,0,0,,38.990767,-76.937878,-4.199000,,,
2026-09-11T16:34:31.373,12.430668,-0.000000,0.697797,-0.000000,0.000000,27.278354,-9.384755,-0.000000,-0.000344,-0.000724,-0.065133,0.689446,-0.037269,0.003962,0.001527,0.000759,0.363238,-0.102970,9.707799,0.447107,0.355575,0,0,,38.990767,-76.937878,-4.199000,,,
2026-09-11T16:34:31.406,12.464077,-0.000000,0.697797,-0.000000,0.000000,27.278354,-9.384755,-0.000000,0.000319,0.000671,-0.065134,0.689446,-0.037269,-0.002162,0.000854,0.002155,0.360100,-0.100224,9.717312,0.448179,0.356972,0,0,,38.990767,-76.937878,-4.199000,,,
2026-09-11T16:34:31.440,12.497488,-0.000000,0.697797,-0.000000,0.000000,27.278354,-9.384755,-0.000000,0.000324,0.000683,-0.065112,0.689446,-0.037259,-0.004404,0.002255,0.002166,0.357256,-0.102479,9.725549,0.449055,0.358208,0,0,,38.990767,-76.937878,-4.199000,,,
2026-09-11T16:34:31.473,12.530895,-0.000000,0.697797,-0.000000,0.000000,27.278354,-9.384755,-0.000000,0.000197,0.000415,-0.065093,0.689447,-0.037250,-0.005579,0.002569,0.001899,0.371476,-0.101107,9.724470,0.450841,0.359518,0,0,,38.990767,-76.937878,-4.199000,,,
2026-09-11T16:34:31.507,12.564303,-0.000000,0.697797,-0.000000,0.000000,27.278354,-9.384755,-0.000000,0.000773,0.001627,-0.065059,0.689448,-0.037234,-0.009506,0.001798,0.003111,0.383048,-0.113365,9.714860,0.453356,0.360021,0,0,,38.990767,-76.937878,-4.199000,,,
2026-09-11T16:34:31.540,12.597717,-0.000000,0.697797,-0.000000,0.000000,27.278354,-9.384755,-0.000000,0.000613,0.001290,-0.065010,0.689449,-0.037211,-0.010499,0.001498,0.002773,0.353236,-0.108167,9.725843,0.453914,0.360855,0,0,,38.990767,-76.937878,-4.199000,,,
2026-09-11T16:34:31.574,12.631133,-0.000000,0.697797,-0.000000,0.000000,27.278354,-9.384755,-0.000000,0.000572,0.001204,-0.064969,0.689451,-0.037191,-0.010653,0.001408,0.002688,0.330386,-0.120720,9.740749,0.452987,0.360868,0,0,,38.990767,-76.937878,-4.199000,,,
2026-09-11T16:34:31.607,12.664541,-0.000000,0.697797,-0.000000,0.000000,27.278354,-9.384755,-0.000000,0.000541,0.001138,-0.064930,0.689452,-0.037172,-0.012035,0.002623,0.002621,0.342644,-0.106794,9.716723,0.452864,0.361781,0,0,,38.990767,-76.937878,-4.199000,,,
2026-09-11T16:34:31.640,12.697948,-0.000000,0.697797,-0.000000,0.000000,27.278354,-9.384755,-0.000000,0.000375,0.000789,-0.064897,0.689453,-0.037157,-0.010401,0.003333,0.002272,0.349999,-0.135822,9.707897,0.453218,0.360807,0,0,,38.990767,-76.937878,-4.199000,,,
2026-09-11T16:34:31.674,12.731358,-0.000000,0.697797,-0.000000,0.000000,27.278354,-9.384755,-0.000000,0.000810,0.001706,-0.064856,0.689454,-0.037137,-0.010617,0.001075,0.003190,0.354020,-0.126408,9.717312,0.453828,0.360452,0,0,,38.990767,-76.937878,-4.199000,,,
2026-09-11T16:34:31.707,12.764767,-0.000000,0.697797,-0.000000,0.000000,27.278354,-9.384755,-0.000000,0.000622,0.001310,-0.064805,0.689456,-0.037114,-0.008558,0.002851,0.002793,0.346077,-0.136803,9.715939,0.453918,0.359429,0,0,,38.990767,-76.937878,-4.199000,,,
2026-09-11T16:34:31.740,12.798176,-0.000000,0.697797,-0.000000,0.000000,27.278354,-9.384755,-0.000000,0.000110,0.000232,-0.064780,0.689457,-0.037101,-0.006416,0.003970,0.001716,0.352843,-0.125329,9.719567,0.454444,0.359159,0,0,,38.990767,-76.937878,-4.199000,,,
2026-09-11T16:34:31.774,12.831583,-0.000000,0.697797,-0.000000,0.000000,27.278354,-9.384755,-0.000000,0.000674,0.001419,-0.064752,0.689457,-0.037088,-0.008693,0.001635,0.002902,0.361277,-0.145433,9.719763,0.455510,0.357592,0,0,,38.990767,-76.937878,-4.199000,,,
2026-09-11T16:34:31.807,12.865001,-0.000000,0.697797,-0.000000,0.000000,27.278354,-9.384755,-0.000000,0.000610,0.001284,-0.064707,0.689459,-0.037067,-0.006381,0.004473,0.002767,0.372457,-0.129252,9.716723,0.457289,0.357089,0,0,,38.990767,-76.937878,-4.199000,,,
2026-09-11T16:34:31.841,12.898412,-0.000000,0.697797,-0.000000,0.000000,27.278354,-9.384755,-0.000000,0.000032,0.000067,-0.064684,0.689460,-0.037056,-0.005538,0.003873,0.001551,0.341664,-0.146315,9.731237,0.457055,0.355488,0,0,,38.990767,-76.937878,-4.199000,,,
2026-09-11T16:34:31.874,12.931828,-0.000000,0.697797,-0.000000,0.000000,27.278354,-9.384755,-0.000000,0.000380,0.000800,-0.064670,0.689460,-0.037049,-0.008147,0.002595,0.002284,0.341075,-0.130821,9.722215,0.456785,0.354906,0,0,,38.990767,-76.937878,-4.199000,,,
2026-09-11T16:34:31.908,12.965237,-0.000000,0.697797,-0.000000,0.000000,27.278354,-9.384755,-0.000000,-0.000192,-0.000405,-0.064663,0.689460,-0.037046,-0.004766,0.003070,0.001079,0.348136,-0.152788,9.708191,0.456975,0.352911,0,0,,38.990767,-76.937878,-4.199000,,,
2026-09-11T16:34:31.941,12.998646,-0.000000,0.697797,-0.000000,0.000000,27.278354,-9.384755,-0.000000,-0.000276,-0.000580,-0.064680,0.689460,-0.037054,-0.003119,0.003052,0.000903,0.365396,-0.143962,9.716037,0.458280,0.351508,0,0,,38.990767,-76.937878,-4.199000,,,
2026-09-11T16:34:31.975,13.032065,-0.000000,0.697797,-0.000000,0.000000,27.278354,-9.384755,-0.000000,0.000132,0.000279,-0.064685,0.689459,-0.037056,-0.005027,0.003814,0.001762,0.324110,-0.136607,9.725353,0.456898,0.350596,0,0,,38.990767,-76.937878,-4.199000,,,
2026-09-11T16:34:32.008,13.065473,-0.000000,0.697797,-0.000000,0.000000,27.278354,-9.384755,-0.000000,0.000200,0.000421,-0.064673,0.689460,-0.037051,0.000347,0.002063,0.001904,0.318324,-0.146609,9.712408,0.455157,0.349048,0,0,,38.990767,-76.937878,-4.199000,,,
2026-09-11T16:34:32.041,13.098882,-0.000000,0.697797,-0.000000,0.000000,27.278354,-9.384755,-0.000000,0.000556,0.001170,-0.064646,0.689461,-0.037038,0.001510,0.001702,0.002654,0.309106,-0.155239,9.713193,0.452839,0.346958,0,0,,38.990767,-76.937878,-4.199000,,,
2026-09-11T16:34:32.075,13.132305,-0.000000,0.697797,-0.000000,0.000000,27.278354,-9.384755,-0.000000,-0.000430,-0.000904,-0.064642,0.689461,-0.037036,0.006080,0.002487,0.000579,0.331759,-0.147394,9.709564,0.452013,0.345399,0,1,13.111973,38.990767,-76.937878,-4.173000,-0.115091,-0.766504,2.976275
2026-09-11T16:34:32.108,13.165712,-0.000000,0.697797,-0.000000,0.000000,27.278354,-9.384755,-0.000000,0.000698,0.001469,-0.064633,0.689461,-0.037032,0.010175,0.002450,0.002953,0.362846,-0.147394,9.701523,0.453207,0.343857,0,0,,38.990767,-76.937878,-4.173000,,,
2026-09-11T16:34:32.142,13.199121,-0.000000,0.697797,-0.000000,0.000000,27.278354,-9.384755,-0.000000,0.000114,0.000240,-0.064604,0.689462,-0.037018,0.006940,0.000751,0.001724,0.378046,-0.156808,9.713585,0.455373,0.341724,0,0,,38.990767,-76.937878,-4.173000,,,
2026-09-11T16:34:32.175,13.232543,-0.000000,0.697797,-0.000000,0.000000,27.278354,-9.384755,-0.000000,-0.000757,-0.001595,-0.064627,0.689461,-0.037029,0.005463,0.003186,-0.000111,0.331661,-0.139254,9.727314,0.454512,0.340749,0,0,,38.990767,-76.937878,-4.173000,,,
2026-09-11T16:34:32.208,13.265953,-0.000000,0.697797,-0.000000,0.000000,27.278354,-9.384755,-0.000000,-0.000179,-0.000378,-0.064660,0.689460,-0.037044,0.000940,0.000950,0.001106,0.328719,-0.108265,9.724568,0.453470,0.341790,0,0,,38.990767,-76.937878,-4.173000,,,
2026-09-11T16:34:32.241,13.299363,-0.000000,0.697797,-0.000000,0.000000,27.278354,-9.384755,-0.000000,0.000306,0.000644,-0.064655,0.689460,-0.037042,-0.003272,0.001522,0.002128,0.342939,-0.136018,9.722215,0.453361,0.341024,0,0,,38.990767,-76.937878,-4.173000,,,
2026-09-11T16:34:32.275,13.332779,-0.000000,0.697797,-0.000000,0.000000,27.278354,-9.384755,-0.000000,-0.000110,-0.000231,-0.064648,0.689461,-0.037039,-0.006140,0.004042,0.001253,0.373928,-0.120033,9.715154,0.455258,0.341301,0,0,,38.990767,-76.937878,-4.173000,,,
2026-09-11T16:34:32.309,13.366197,-0.000000,0.697797,-0.000000,0.000000,27.278354,-9.384755,-0.000000,0.001283,0.002700,-0.064607,0.689462,-0.037020,-0.012886,0.001080,0.004184,0.346175,-0.135038,9.724176,0.455338,0.340604,0,0,,38.990767,-76.937878,-4.173000,,,
2026-09-11T16:34:32.342,13.399607,-0.000000,0.697797,-0.000000,0.000000,27.278354,-9.384755,-0.000000,0.001384,0.002914,-0.064513,0.689465,-0.036975,-0.013973,0.002078,0.004398,0.324110,-0.158377,9.718586,0.453989,0.338405,0,0,,38.990767,-76.937878,-4.173000,,,
2026-09-11T16:34:32.376,13.433023,-0.000000,0.697797,-0.000000,0.000000,27.278354,-9.384755,-0.000000,0.000832,0.001751,-0.064435,0.689467,-0.036938,-0.010377,0.002932,0.003234,0.324208,-0.179854,9.729374,0.452661,0.334840,0,0,,38.990767,-76.937878,-4.173000,,,
2026-09-11T16:34:32.409,13.466431,-0.000000,0.697797,-0.000000,0.000000,27.211750,-9.361840,-0.000000,0.001357,0.002856,-0.064358,0.689469,-0.036902,-0.009788,0.001678,0.004340,0.349901,-0.161123,9.732120,0.453011,0.332527,0,0,,38.990767,-76.937878,-4.173000,,,
2026-09-11T16:34:32.442,13.499850,-0.000000,0.697797,-0.000000,0.000000,27.116993,-9.329241,-0.000000,0.000938,0.001975,-0.064278,0.689472,-0.036863,-0.002862,0.002361,0.003459,0.339898,-0.142294,9.715448,0.452710,0.331458,0,0,,38.990767,-76.937878,-4.173000,,,
2026-09-11T16:34:32.476,13.533267,-0.000000,0.697797,-0.000000,0.000000,27.079914,-9.316484,-0.000000,0.000646,0.001359,-0.064222,0.689474,-0.036837,0.003530,0.000695,0.002843,0.325875,-0.153082,9.714075,0.451504,0.329702,0,0,,38.990767,-76.937878,-4.173000,,,
2026-09-11T16:34:32.509,13.566676,-0.000000,0.697797,-0.000000,0.000000,26.992023,-9.286246,-0.000000,-0.000199,-0.000420,-0.064206,0.689474,-0.036830,0.005726,0.001685,0.001064,0.319010,-0.156318,9.727412,0.449868,0.327757,0,0,,38.990767,-76.937878,-4.173000,,,
2026-09-11T16:34:32.542,13.600096,-0.000000,0.697797,-0.000000,0.000000,26.925419,-9.263332,-0.000000,-0.000020,-0.000042,-0.064214,0.689474,-0.036833,0.010113,0.001661,0.001442,0.335976,-0.151219,9.723490,0.449347,0.326163,0,0,,38.990767,-76.937878,-4.173000,,,
2026-09-11T16:34:32.576,13.633515,-0.000000,0.697797,-0.000000,0.000000,26.904133,-9.256009,-0.000000,0.000719,0.001514,-0.064189,0.689475,-0.036822,0.006593,0.000608,0.002998,0.349999,-0.145825,9.719077,0.449740,0.324936,0,0,,38.990767,-76.937878,-4.173000,,,
2026-09-11T16:34:32.609,13.666926,-0.000000,0.697797,-0.000000,0.000000,26.904133,-9.256009,-0.000000,0.000240,0.000505,-0.064156,0.689476,-0.036806,0.007077,0.002407,0.001988,0.366278,-0.131703,9.718194,0.451182,0.324636,0,0,,38.990767,-76.937878,-4.173000,,,
2026-09-11T16:34:32.642,13.700347,-0.000000,0.697797,-0.000000,0.000000,26.850574,-9.237583,-0.000000,-0.000582,-0.001225,-0.064168,0.689475,-0.036811,0.005523,0.002502,0.000259,0.349901,-0.123368,9.721430,0.451549,0.324878,0,0,,38.990767,-76.937878,-4.173000,,,
2026-09-11T16:34:32.676,13.733763,-0.000000,0.697797,-0.000000,0.000000,26.860187,-9.240890,-0.000000,0.000805,0.001694,-0.064160,0.689476,-0.036808,-0.001728,0.001099,0.003178,0.346273,-0.114346,9.716429,0.451676,0.325702,0,0,,38.990767,-76.937878,-4.173000,,,
2026-09-11T16:34:32.709,13.767172,-0.000000,0.697797,-0.000000,0.000000,26.860187,-9.240890,-0.000000,0.000461,0.000970,-0.064115,0.689477,-0.036786,-0.001204,0.003582,0.002454,0.359414,-0.129644,9.709074,0.452653,0.325527,0,0,,38.990767,-76.937878,-4.173000,,,
2026-09-11T16:34:32.743,13.800593,-0.000000,0.697797,-0.000000,0.000000,26.796329,-9.218921,-0.000000,-0.000181,-0.000381,-0.064105,0.689477,-0.036782,-0.001746,0.002675,0.001102,0.347253,-0.148080,9.715448,0.452832,0.324160,0,0,,38.990767,-76.937878,-4.173000,,,
2026-09-11T16:34:32.777,13.834012,-0.000000,0.697797,-0.000000,0.000000,26.694706,-9.183958,-0.000000,0.001379,0.002904,-0.064063,0.689478,-0.036762,-0.005112,0.002521,0.004387,0.344508,-0.131311,9.723686,0.452831,0.323894,0,0,,38.990767,-76.937878,-4.173000,,,
2026-09-11T16:34:32.810,13.867431,-0.000000,0.697797,-0.000000,0.000000,26.573169,-9.142145,-0.000000,0.000166,0.000350,-0.064009,0.689480,-0.036736,0.000781,0.002357,0.001833,0.359120,-0.142883,9.717802,0.453776,0.322882,0,0,,38.990767,-76.937878,-4.173000,,,
2026-09-11T16:34:32.843,13.900847,-0.000000,0.697797,-0.000000,0.000000,26.435154,-9.094663,-0.000000,0.000700,0.001473,-0.063978,0.689481,-0.036722,-0.001331,0.002364,0.002956,0.331759,-0.121210,9.710349,0.452939,0.323284,0,0,,38.990767,-76.937878,-4.173000,,,
2026-09-11T16:34:32.877,13.934262,-0.000000,0.697797,-0.000000,0.000000,26.304691,-9.049779,-0.000000,0.001462,0.003077,-0.063902,0.689483,-0.036686,0.001404,0.002531,0.004561,0.343527,-0.156808,9.720940,0.452873,0.321378,0,0,,38.990767,-76.937878,-4.173000,,,
2026-09-11T16:34:32.910,13.967675,-0.000000,0.697797,-0.000000,0.000000,26.244953,-9.029227,-0.000000,0.000121,0.000256,-0.063847,0.689485,-0.036659,0.002769,0.001703,0.001739,0.339800,-0.126800,9.713193,0.452567,0.321434,0,0,,38.990767,-76.937878,-4.173000,,,
2026-09-11T16:34:32.943,14.001093,-0.000000,0.697797,-0.000000,0.000000,26.244953,-9.029227,-0.000000,-0.000487,-0.001026,-0.063860,0.689485,-0.036665,0.002222,0.002826,0.000457,0.340879,-0.151022,9.720156,0.452334,0.319923,0,0,,38.990767,-76.937878,-4.173000,,,
2026-09-11T16:34:32.977,14.034510,-0.000000,0.697797,-0.000000,0.000000,26.244953,-9.029227,-0.000000,-0.000105,-0.000221,-0.063880,0.689484,-0.036675,0.002531,0.002342,0.001262,0.373241,-0.124741,9.717900,0.454198,0.320129,0,0,,38.990767,-76.937878,-4.173000,,,
2026-09-11T16:34:33.010,14.067920,-0.000000,0.697797,-0.000000,0.000000,26.244953,-9.029227,-0.000000,0.000510,0.001074,-0.063866,0.689484,-0.036668,0.003750,0.001891,0.002558,0.376183,-0.115522,9.718390,0.456232,0.320929,0,0,,38.990767,-76.937878,-4.173000,,,
2026-09-11T16:34:33.044,14.101316,-0.000000,0.697797,-0.000000,0.000000,26.244953,-9.029227,-0.000000,-0.000169,-0.000355,-0.063854,0.689485,-0.036663,0.002783,0.002986,0.001129,0.344213,-0.110619,9.732218,0.456175,0.322037,0,0,,38.990767,-76.937878,-4.173000,,,
2026-09-11T16:34:33.077,14.134834,-0.000000,0.697797,-0.000000,0.000000,26.244953,-9.029227,-0.000000,0.000919,0.001934,-0.063828,0.689486,-0.036650,0.005193,0.003851,0.003418,0.345096,-0.141314,9.725941,0.456175,0.321144,0,1,14.112308,38.990767,-76.937878,-4.149000,-0.105152,-0.762427,3.123473
2026-09-11T16:34:33.110,14.168241,-0.000000,0.697797,-0.000000,0.000000,26.244953,-9.029227,-0.000000,0.000400,0.000842,-0.063781,0.689487,-0.036628,0.001440,0.001592,0.002326,0.355393,-0.141608,9.711624,0.456841,0.320246,0,0,,38.990767,-76.937878,-4.149000,,,
2026-09-11T16:34:33.144,14.201658,-0.000000,0.697797,-0.000000,0.000000,26.244953,-9.029227,-0.000000,-0.000366,-0.000771,-0.063780,0.689487,-0.036628,0.003020,0.004359,0.000712,0.354020,-0.135430,9.723098,0.457412,0.319756,0,0,,38.990767,-76.937878,-4.149000,,,
2026-09-11T16:34:33.178,14.235265,-0.000000,0.697797,-0.000000,0.000000,26.244953,-9.029227,-0.000000,0.000209,0.000440,-0.063786,0.689487,-0.036630,0.000623,0.002795,0.001924,0.368436,-0.135234,9.710741,0.458917,0.319283,0,0,,38.990767,-76.937878,-4.149000,,,
2026-09-11T16:34:33.211,14.268673,-0.000000,0.697797,-0.000000,0.000000,26.244953,-9.029227,-0.000000,0.000230,0.000484,-0.063770,0.689487,-0.036623,-0.005919,0.001791,0.001967,0.370495,-0.158966,9.713193,0.460531,0.317282,0,0,,38.990767,-76.937878,-4.149000,,,
2026-09-11T16:34:33.244,14.302090,-0.000000,0.697797,-0.000000,0.000000,26.244953,-9.029227,-0.000000,0.000019,0.000041,-0.063762,0.689488,-0.036619,-0.003706,0.003416,0.001525,0.353236,-0.134645,9.715056,0.461010,0.316876,0,0,,38.990767,-76.937878,-4.149000,,,
2026-09-11T16:34:33.278,14.335507,-0.000000,0.697797,-0.000000,0.000000,26.244953,-9.029227,-0.000000,0.000797,0.001678,-0.063733,0.689489,-0.036605,-0.005054,0.002947,0.003162,0.333328,-0.138666,9.721038,0.460194,0.316215,0,0,,38.990767,-76.937878,-4.149000,,,
2026-09-11T16:34:33.312,14.368916,-0.000000,0.697797,-0.000000,0.000000,26.244953,-9.029227,-0.000000,0.001307,0.002752,-0.063659,0.689491,-0.036570,-0.006869,0.002054,0.004235,0.337643,-0.124250,9.722705,0.459667,0.316493,0,0,,38.990767,-76.937878,-4.149000,,,
2026-09-11T16:34:33.345,14.402332,-0.000000,0.697797,-0.000000,0.000000,26.244953,-9.029227,-0.000000,-0.000050,-0.000106,-0.063615,0.689492,-0.036549,-0.005978,0.002036,0.001378,0.350490,-0.140627,9.720156,0.459978,0.315709,0,0,,38.990767,-76.937878,-4.149000,,,
2026-09-11T16:34:33.378,14.435751,-0.000000,0.697797,-0.000000,0.000000,26.244953,-9.029227,-0.000000,0.001594,0.003356,-0.063560,0.689494,-0.036523,-0.006342,0.001375,0.004839,0.353432,-0.150140,9.726824,0.460475,0.314319,0,0,,38.990767,-76.937878,-4.149000,,,
2026-09-11T16:34:33.411,14.469160,-0.000000,0.697797,-0.000000,0.000000,26.244953,-9.029227,-0.000000,0.000515,0.001084,-0.063486,0.689496,-0.036488,-0.007872,0.003833,0.002567,0.353334,-0.153082,9.709564,0.460961,0.312753,0,0,,38.990767,-76.937878,-4.149000,,,
2026-09-11T16:34:33.445,14.502578,-0.000000,0.697797,-0.000000,0.000000,26.244953,-9.029227,-0.000000,0.000853,0.001797,-0.063438,0.689497,-0.036465,-0.004370,0.001390,0.003280,0.340487,-0.135038,9.722705,0.460610,0.312372,0,0,,38.990767,-76.937878,-4.149000,,,
2026-09-11T16:34:33.478,14.535994,-0.000000,0.697797,-0.000000,0.000000,26.244953,-9.029227,-0.000000,0.000404,0.000850,-0.063394,0.689499,-0.036444,-0.007142,0.001573,0.002334,0.350980,-0.142785,9.713095,0.460941,0.311495,0,0,,38.990767,-76.937878,-4.149000,,,
2026-09-11T16:34:33.512,14.569400,-0.000000,0.697797,-0.000000,0.000000,26.244953,-9.029227,-0.000000,0.000099,0.000208,-0.063376,0.689499,-0.036436,-0.003045,0.003579,0.001691,0.335682,-0.155239,9.721725,0.460279,0.309821,0,0,,38.990767,-76.937878,-4.149000,,,
2026-09-11T16:34:33.546,14.602823,-0.000000,0.697797,-0.000000,0.000000,26.244953,-9.029227,-0.000000,0.000452,0.000951,-0.063357,0.689500,-0.036427,-0.004935,0.001274,0.002434,0.356374,-0.145335,9.712604,0.460964,0.308806,0,0,,38.990767,-76.937878,-4.149000,,,
2026-09-11T16:34:33.579,14.636240,-0.000000,0.697797,-0.000000,0.000000,26.244953,-9.029227,-0.000000,0.001112,0.002340,-0.063302,0.689502,-0.036401,-0.005723,0.001301,0.003824,0.337545,-0.167498,9.719273,0.460422,0.306369,0,0,,38.990767,-76.937878,-4.149000,,,
2026-09-11T16:34:33.612,14.669649,-0.000000,0.697797,-0.000000,0.000000,26.244953,-9.029227,-0.000000,-0.000338,-0.000713,-0.063275,0.689502,-0.036388,-0.002874,0.004270,0.000771,0.343821,-0.147786,9.715154,0.460293,0.305234,0,0,,38.990767,-76.937878,-4.149000,,,
2026-09-11T16:34:33.645,14.703065,-0.000000,0.697797,-0.000000,0.000000,26.244953,-9.029227,-0.000000,0.000080,0.000167,-0.063284,0.689502,-0.036392,-0.009855,0.002726,0.001651,0.377654,-0.151317,9.714664,0.462355,0.303883,0,0,,38.990767,-76.937878,-4.149000,,,
2026-09-11T16:34:33.679,14.736484,-0.000000,0.697797,-0.000000,0.000000,26.244953,-9.029227,-0.000000,0.000493,0.001038,-0.063264,0.689503,-0.036383,-0.012701,0.002900,0.002522,0.369711,-0.159946,9.714173,0.463880,0.301989,0,0,,38.990767,-76.937878,-4.149000,,,
2026-09-11T16:34:33.713,14.769895,-0.000000,0.697797,-0.000000,0.000000,26.244953,-9.029227,-0.000000,0.000021,0.000045,-0.063245,0.689503,-0.036374,-0.008747,0.003582,0.001528,0.333720,-0.156220,9.715743,0.463058,0.300357,0,0,,38.990767,-76.937878,-4.149000,,,
2026-09-11T16:34:33.746,14.803310,-0.000000,0.697797,-0.000000,0.000000,26.244953,-9.029227,-0.000000,0.000752,0.001583,-0.063218,0.689504,-0.036361,-0.012354,0.004094,0.003067,0.347155,-0.158770,9.717410,0.463115,0.298578,0,0,,38.990767,-76.937878,-4.149000,,,
2026-09-11T16:34:33.779,14.836728,-0.000000,0.697797,-0.000000,0.000000,26.244953,-9.029227,-0.000000,-0.000081,-0.000170,-0.063195,0.689505,-0.036350,-0.008998,0.003954,0.001313,0.354314,-0.179756,9.709074,0.463635,0.295461,0,0,,38.990767,-76.937878,-4.149000,,,
2026-09-11T16:34:33.812,14.870136,-0.000000,0.697797,-0.000000,0.000000,26.244953,-9.029227,-0.000000,-0.000027,-0.000058,-0.063198,0.689505,-0.036352,-0.007670,0.003511,0.001426,0.327934,-0.175343,9.714762,0.462442,0.292664,0,0,,38.990767,-76.937878,-4.149000,,,
2026-09-11T16:34:33.846,14.903558,-0.000000,0.697797,-0.000000,0.000000,26.244953,-9.029227,-0.000000,0.000193,0.000407,-0.063193,0.689505,-0.036349,-0.003277,0.003156,0.001890,0.308517,-0.173676,9.715448,0.460004,0.290006,0,0,,38.990767,-76.937878,-4.149000,,,
2026-09-11T16:34:33.879,14.936978,-0.000000,0.697797,-0.000000,0.000000,26.244953,-9.029227,-0.000000,-0.000459,-0.000967,-0.063202,0.689504,-0.036354,0.001264,0.003826,0.000516,0.317147,-0.179560,9.723882,0.458152,0.286996,0,0,,38.990767,-76.937878,-4.149000,,,
2026-09-11T16:34:33.913,14.970388,-0.000000,0.697797,-0.000000,0.000000,26.244953,-9.029227,-0.000000,-0.000153,-0.000323,-0.063224,0.689504,-0.036364,0.001773,0.001293,0.001161,0.353137,-0.183580,9.717802,0.458651,0.283760,0,0,,38.990767,-76.937878,-4.149000,,,
2026-09-11T16:34:33.946,15.003808,-0.000000,0.697797,-0.000000,0.000000,26.244953,-9.029227,-0.000000,-0.000454,-0.000956,-0.063245,0.689503,-0.036374,0.005130,0.002715,0.000527,0.331759,-0.191622,9.722803,0.457760,0.280039,0,0,,38.990767,-76.937878,-4.149000,,,
2026-09-11T16:34:33.980,15.037223,-0.000000,0.697797,-0.000000,0.000000,26.244953,-9.029227,-0.000000,-0.000128,-0.000269,-0.063265,0.689503,-0.036384,0.007672,0.002795,0.001215,0.314499,-0.164261,9.718881,0.455762,0.278129,0,0,,38.990767,-76.937878,-4.149000,,,
2026-09-11T16:34:34.013,15.070631,-0.000000,0.697797,-0.000000,0.000000,26.244953,-9.029227,-0.000000,-0.000675,-0.001420,-0.063294,0.689502,-0.036397,0.005064,0.000399,0.000063,0.321364,-0.169361,9.724372,0.454231,0.275912,0,0,,38.990767,-76.937878,-4.149000,,,
2026-09-11T16:34:34.047,15.104051,-0.000000,0.697797,-0.000000,0.000000,26.311557,-9.052141,-0.000000,-0.000438,-0.000923,-0.063333,0.689501,-0.036416,0.009050,0.002532,0.000561,0.363336,-0.164359,9.710251,0.455433,0.274042,0,1,15.111744,38.990767,-76.937878,-4.126000,-0.099102,-0.775214,3.123473
2026-09-11T16:34:34.080,15.137474,-0.000000,0.697797,-0.000000,0.000000,26.311557,-9.052141,-0.000000,-0.000369,-0.000777,-0.063361,0.689500,-0.036429,0.007815,0.001299,0.000706,0.336172,-0.180933,9.714468,0.454864,0.271120,0,0,,38.990767,-76.937878,-4.126000,,,
2026-09-11T16:34:34.113,15.170884,-0.000000,0.697797,-0.000000,0.000000,26.311557,-9.052141,-0.000000,0.000386,0.000813,-0.063361,0.689500,-0.036429,0.005123,0.000898,0.002296,0.323619,-0.152395,9.718390,0.453488,0.270077,0,0,,38.990767,-76.937878,-4.126000,,,
