timestamp,time_s,speed_mps,distance_m,wheel_omega_rad_s,motor_current_A,steer_motor_deg,steer_column_deg,vx_mps,vy_mps,yaw_rate_rad_s,heading_rad,x_m,y_m,gyro_x_rad_s,gyro_y_rad_s,gyro_z_rad_s,accel_x_mps2,accel_y_mps2,accel_z_mps2,grade_deg,bank_deg,moving,gps_new_fix,gps_time_s,gps_latitude_deg,gps_longitude_deg,gps_altitude_m,gps_east_m,gps_north_m,gps_sigma_m
2026-09-11T16:28:33.678,0.000008,0.595785,0.002142,5.516529,0.000000,119.762622,-41.202737,0.448259,-0.198782,-0.418488,0.000000,0.000000,0.000000,0.055065,0.002880,-0.417005,-0.149649,-0.261249,11.002669,-2.679394,-1.188454,1,1,-0.627898,38.990799,-76.937882,-3.774000,0.000000,0.000000,5.033616
2026-09-11T16:28:33.712,0.033416,0.596106,0.021601,5.519498,0.000000,119.752323,-41.199194,0.448524,-0.195964,-0.412555,-0.013882,0.014934,-0.006698,0.061810,-0.024915,-0.411071,0.216041,0.038148,8.793035,-2.654369,-1.169254,1,0,,38.990799,-76.937882,-3.774000,,,
2026-09-11T16:28:33.745,0.066824,0.576765,0.040832,5.340418,0.000000,119.685718,-41.176279,0.434124,-0.199090,-0.419138,-0.027775,0.029536,-0.013600,0.067934,-0.034879,-0.417654,-0.086593,0.372359,10.116050,-2.648289,-1.128848,1,0,,38.990799,-76.937882,-3.774000,,,
2026-09-11T16:28:33.778,0.100230,0.567474,0.059995,5.254388,0.000000,119.685718,-41.176279,0.427131,-0.199516,-0.420033,-0.041791,0.043681,-0.020754,0.067572,-0.025766,-0.418549,0.196133,0.712257,9.481756,-2.625435,-1.067074,1,0,,38.990799,-76.937882,-3.774000,,,
2026-09-11T16:28:33.814,0.133642,0.577823,0.079842,5.350217,0.000000,119.639713,-41.160452,0.435026,-0.197062,-0.414867,-0.055739,0.057744,-0.028074,0.062903,-0.024491,-0.413383,0.144550,-0.034029,10.119678,-2.608097,-1.054180,1,0,,38.990799,-76.937882,-3.774000,,,
2026-09-11T16:28:33.846,0.167054,0.578277,0.099347,5.354412,0.000000,119.641773,-41.161160,0.435362,-0.197864,-0.416555,-0.069629,0.071843,-0.035569,0.055327,-0.002200,-0.415071,0.022653,0.011964,10.276389,-2.600274,-1.038397,1,0,,38.990799,-76.937882,-3.774000,,,
2026-09-11T16:28:33.879,0.200457,0.597963,0.119057,5.536697,0.000000,119.708377,-41.184075,0.450026,-0.199791,-0.420612,-0.083611,0.086078,-0.043324,0.043839,-0.007895,-0.419129,0.430022,-1.492180,9.689657,-2.568134,-1.119554,1,0,,38.990799,-76.937882,-3.774000,,,
2026-09-11T16:28:33.912,0.233862,0.618002,0.139040,5.722240,0.000000,119.840213,-41.229431,0.464785,-0.204135,-0.429759,-0.097814,0.100682,-0.051429,0.043536,0.022196,-0.428275,0.395796,0.413252,9.926487,-2.541445,-1.075908,1,0,,38.990799,-76.937882,-3.774000,,,
2026-09-11T16:28:33.945,0.267262,0.618562,0.158226,5.727426,0.000000,119.752323,-41.199194,0.465421,-0.199368,-0.419723,-0.112000,0.115426,-0.059757,0.015892,-0.016090,-0.418239,0.792573,0.678914,9.339167,-2.491294,-1.015856,1,0,,38.990799,-76.937882,-3.774000,,,
2026-09-11T16:28:33.980,0.300671,0.589503,0.178437,5.458358,0.000000,119.465992,-41.100685,0.444223,-0.212914,-0.448240,-0.126499,0.129692,-0.068400,0.007222,-0.019760,-0.446756,0.504944,1.182682,9.651607,-2.462154,-0.923624,1,0,,38.990799,-76.937882,-3.774000,,,
2026-09-11T16:28:34.013,0.334099,0.599688,0.199537,5.552670,0.000000,119.708377,-41.184075,0.451324,-0.210590,-0.443347,-0.141401,0.143580,-0.077414,0.013410,-0.026088,-0.441864,0.881422,1.204159,9.763501,-2.410818,-0.830913,1,0,,38.990799,-76.937882,-3.774000,,,
2026-09-11T16:28:34.046,0.367507,0.619660,0.220500,5.737591,0.000000,119.592334,-41.144152,0.466639,-0.211288,-0.444818,-0.156237,0.157699,-0.086659,0.006954,-0.017837,-0.443334,0.289394,-0.356570,10.033086,-2.398347,-0.839745,1,1,0.373219,38.990799,-76.937876,-3.812000,0.491187,-0.022054,3.309458
2026-09-11T16:28:34.079,0.400909,0.639576,0.241918,5.922000,0.000000,119.752323,-41.199194,0.481232,-0.215656,-0.454012,-0.171249,0.172154,-0.096276,-0.001964,0.006607,-0.452528,0.548290,0.445712,9.517256,-2.369686,-0.795890,1,0,,38.990799,-76.937876,-3.812000,,,
2026-09-11T16:28:34.114,0.434318,0.649720,0.263588,6.015927,0.000000,119.752323,-41.199194,0.488865,-0.219737,-0.462604,-0.186560,0.186805,-0.106317,-0.025634,-0.017415,-0.461120,1.152674,0.164654,9.807925,-2.302214,-0.770196,1,0,,38.990799,-76.937876,-3.812000,,,
2026-09-11T16:28:34.148,0.467733,0.679355,0.286716,6.290324,0.000000,119.685718,-41.176279,0.511342,-0.226713,-0.477291,-0.202263,0.201758,-0.116866,-0.058234,-0.042384,-0.475808,0.633706,-0.133174,10.743578,-2.267170,-0.762890,1,0,,38.990799,-76.937876,-3.812000,,,
2026-09-11T16:28:34.180,0.501145,0.708766,0.310345,6.562651,0.000000,119.678852,-41.173917,0.533499,-0.235944,-0.496725,-0.218536,0.217212,-0.128073,-0.075933,-0.042148,-0.495242,-0.010395,0.114836,8.797546,-2.272760,-0.738268,1,0,,38.990799,-76.937876,-3.812000,,,
2026-09-11T16:28:34.213,0.534552,0.718687,0.334179,6.654507,0.000000,119.641773,-41.161160,0.541071,-0.241723,-0.508891,-0.235332,0.232904,-0.139886,-0.100967,-0.047108,-0.507408,0.192995,-0.196721,9.471655,-2.265098,-0.733404,1,0,,38.990799,-76.937876,-3.812000,,,
2026-09-11T16:28:34.247,0.567957,0.728388,0.358309,6.744332,0.000000,119.667179,-41.169901,0.548302,-0.242085,-0.509654,-0.252345,0.248609,-0.152121,-0.128533,-0.016341,-0.508170,0.325189,0.087279,9.760657,-2.247566,-0.709961,1,0,,38.990799,-76.937876,-3.812000,,,
2026-09-11T16:28:34.281,0.601367,0.728413,0.382485,6.744569,0.000000,119.597827,-41.146042,0.548521,-0.238776,-0.502686,-0.269256,0.264241,-0.164606,-0.133614,0.006370,-0.501202,0.494353,0.154161,9.954829,-2.216457,-0.682689,1,0,,38.990799,-76.937876,-3.812000,,,
2026-09-11T16:28:34.315,0.634787,0.728493,0.406775,6.745302,0.000000,119.571048,-41.136829,0.548657,-0.240499,-0.506313,-0.286117,0.279676,-0.177334,-0.136535,-0.020118,-0.504830,0.423255,0.978311,8.248275,-2.186004,-0.602251,1,0,,38.990799,-76.937876,-3.812000,,,
2026-09-11T16:28:34.347,0.668207,0.748037,0.431703,6.926267,0.000000,119.641773,-41.161160,0.563168,-0.246488,-0.518921,-0.303248,0.295088,-0.190518,-0.143556,-0.004148,-0.517438,0.483174,0.084043,10.705332,-2.146809,-0.579633,1,0,,38.990799,-76.937876,-3.812000,,,
2026-09-11T16:28:34.380,0.701608,0.748412,0.456380,6.929745,0.000000,119.708377,-41.184075,0.563254,-0.245098,-0.515997,-0.320532,0.310473,-0.204103,-0.136668,-0.004917,-0.514513,0.030499,0.223297,10.438787,-2.133092,-0.548376,1,0,,38.990799,-76.937876,-3.812000,,,
2026-09-11T16:28:34.413,0.735017,0.748670,0.481467,6.932126,0.000000,119.708377,-41.184075,0.563447,-0.240183,-0.505648,-0.337598,0.325664,-0.217857,-0.136846,-0.007723,-0.504164,0.367847,-0.028832,9.295135,-2.092025,-0.534137,1,0,,38.990799,-76.937876,-3.812000,,,
2026-09-11T16:28:34.448,0.768425,0.739230,0.506099,6.844718,0.000000,119.641773,-41.161160,0.556537,-0.242955,-0.511483,-0.354588,0.340525,-0.231793,-0.121341,0.013524,-0.510000,-0.098949,1.080693,10.502138,-2.076874,-0.448307,1,0,,38.990799,-76.937876,-3.812000,,,
2026-09-11T16:28:34.481,0.801835,0.720038,0.530411,6.667015,0.000000,119.553882,-41.130923,0.542338,-0.233617,-0.491826,-0.371348,0.354861,-0.245751,-0.096663,0.008582,-0.490343,0.079924,1.116879,9.294253,-2.046094,-0.362242,1,0,,38.990799,-76.937876,-3.812000,,,
2026-09-11T16:28:34.514,0.835255,0.691342,0.553813,6.401316,0.000000,119.576541,-41.138718,0.520663,-0.231751,-0.487897,-0.387719,0.368479,-0.259552,-0.095515,-0.019996,-0.486414,-0.274488,-0.984195,10.120463,-2.034829,-0.413875,1,0,,38.990799,-76.937876,-3.812000,,,
2026-09-11T16:28:34.547,0.868660,0.691708,0.577350,6.404707,0.000000,119.553882,-41.130923,0.521001,-0.223309,-0.470123,-0.403721,0.381604,-0.273272,-0.061494,0.024577,-0.468640,-0.142098,-0.675384,12.400705,-2.013259,-0.445527,1,0,,38.990799,-76.937876,-3.812000,,,
2026-09-11T16:28:34.580,0.902063,0.643490,0.598906,5.958244,0.000000,119.708377,-41.184075,0.484289,-0.217932,-0.458805,-0.419235,0.394047,-0.286737,-0.032901,-0.006728,-0.457321,0.524558,0.629783,7.968001,-1.943643,-0.393891,1,0,,38.990799,-76.937876,-3.812000,,,
2026-09-11T16:28:34.615,0.935486,0.614574,0.619915,5.690498,0.000000,119.664432,-41.168956,0.462634,-0.200905,-0.422959,-0.433971,0.405560,-0.299655,-0.033537,-0.002414,-0.421475,-0.817286,0.978213,8.899535,-1.957819,-0.321967,1,0,,38.990799,-76.937876,-3.812000,,,
2026-09-11T16:28:34.648,0.968902,0.595330,0.639829,5.512315,0.000000,119.520923,-41.119584,0.448485,-0.193871,-0.408150,-0.447857,0.416513,-0.312115,-0.019219,0.003167,-0.406667,-0.597421,1.381267,9.862842,-1.955711,-0.225592,1,0,,38.990799,-76.937876,-3.812000,,,
2026-09-11T16:28:34.680,1.002303,0.556883,0.658127,5.156320,0.000000,119.629413,-41.156908,0.419282,-0.178502,-0.375795,-0.460949,0.426808,-0.324062,-0.000008,-0.003899,-0.374311,-0.765409,0.055996,9.124107,-1.964492,-0.217679,1,0,,38.990799,-76.937876,-3.812000,,,
2026-09-11T16:28:34.714,1.035716,0.537592,0.675672,4.977702,0.000000,119.576541,-41.138718,0.404871,-0.172934,-0.364072,-0.473310,0.436458,-0.335503,0.012194,0.008747,-0.362588,-0.802184,-0.019025,10.047207,-1.976498,-0.215361,1,0,,38.990799,-76.937876,-3.812000,,,
2026-09-11T16:28:34.748,1.069125,0.489386,0.691690,4.531349,0.000000,119.590961,-41.143679,0.368538,-0.162926,-0.343001,-0.485121,0.445338,-0.346436,0.017799,0.000642,-0.341518,-0.533482,0.213589,10.272564,-1.972395,-0.199381,1,0,,38.990799,-76.937876,-3.812000,,,
2026-09-11T16:28:34.782,1.102529,0.470451,0.707754,4.356027,0.000000,119.581348,-41.140372,0.354297,-0.160401,-0.337686,-0.496490,0.453441,-0.356887,0.013649,-0.006881,-0.336202,-0.351274,1.193469,9.702013,-1.957038,-0.120645,1,0,,38.990799,-76.937876,-3.812000,,,
2026-09-11T16:28:34.816,1.135951,0.451081,0.722497,4.176676,0.000000,119.439212,-41.091472,0.339962,-0.141268,-0.297407,-0.507103,0.461190,-0.366887,0.048597,0.005147,-0.295923,-0.600755,0.327640,9.666611,-1.958946,-0.099964,1,0,,38.990799,-76.937876,-3.812000,,,
2026-09-11T16:28:34.848,1.169366,0.383534,0.735052,3.551243,0.000000,119.712497,-41.185492,0.288641,-0.129573,-0.272786,-0.516629,0.468132,-0.375973,0.028046,0.006472,-0.271302,-0.451694,0.734322,9.330930,-1.952159,-0.054653,1,0,,38.990799,-76.937876,-3.812000,,,
2026-09-11T16:28:34.881,1.202768,0.393354,0.748108,3.642165,0.000000,119.664432,-41.168956,0.296106,-0.123022,-0.258994,-0.525511,0.474502,-0.384494,0.024431,0.015405,-0.257511,-0.246245,0.227808,9.552560,-1.930731,-0.042751,1,0,,38.990799,-76.937876,-3.812000,,,
2026-09-11T16:28:34.914,1.236175,0.345136,0.759000,3.195707,0.000000,119.759876,-41.201792,0.259679,-0.121196,-0.255150,-0.534099,0.480453,-0.392703,0.002648,0.016008,-0.253667,0.127192,0.497589,9.653863,-1.889161,-0.014204,1,0,,38.990799,-76.937876,-3.812000,,,
2026-09-11T16:28:34.949,1.269581,0.384351,0.771920,3.558810,0.000000,119.592334,-41.144152,0.289438,-0.112211,-0.236233,-0.542306,0.486329,-0.400754,0.000748,-0.003148,-0.234749,0.543877,0.665872,9.582568,-1.822089,0.025049,1,0,,38.990799,-76.937876,-3.812000,,,
2026-09-11T16:28:34.982,1.302990,0.336339,0.782242,3.114250,0.000000,119.761936,-41.202501,0.253057,-0.111368,-0.234459,-0.550169,0.492134,-0.408651,-0.010317,-0.012106,-0.232976,0.009414,-0.245166,9.741828,-1.790337,0.004352,1,0,,38.990799,-76.937876,-3.812000,,,
2026-09-11T16:28:35.015,1.336415,0.365798,0.794546,3.387016,0.000000,119.625293,-41.155491,0.275419,-0.110939,-0.233556,-0.557991,0.497689,-0.416459,-0.027259,-0.025386,-0.232072,0.475917,0.291944,9.604045,-1.732962,0.018959,1,0,,38.990799,-76.937876,-3.812000,,,
2026-09-11T16:28:35.048,1.369824,0.317418,0.804936,2.939057,0.000000,119.553882,-41.130923,0.239082,-0.111364,-0.234451,-0.565808,0.502984,-0.424178,-0.042995,0.018758,-0.232968,-0.996160,0.610170,10.967659,-1.770055,0.053448,1,1,1.370846,38.990797,-76.937871,-3.775000,0.950541,-0.227579,3.389255
2026-09-11T16:28:35.081,1.403227,0.337026,0.816124,3.120609,0.000000,119.553882,-41.130923,0.253851,-0.098298,-0.206943,-0.573180,0.508030,-0.431568,-0.045155,-0.017431,-0.205460,-0.170047,0.941340,8.617103,-1.755757,0.108741,0,0,,38.990797,-76.937871,-3.775000,,,
2026-09-11T16:28:35.115,1.436632,0.260051,0.824373,2.407877,0.000000,119.516803,-41.118166,0.195910,-0.092539,-0.194819,-0.579891,0.512592,-0.438332,-0.042186,-0.019315,-0.193335,-0.365592,0.315872,9.115968,-1.760099,0.122039,0,0,,38.990797,-76.937871,-3.775000,,,
2026-09-11T16:28:35.149,1.470042,0.260051,0.833032,2.407877,0.000000,119.509937,-41.115804,0.195918,-0.088569,-0.186462,-0.586260,0.516391,-0.444462,-0.017822,-0.019093,-0.184979,-0.033931,1.024501,9.994938,-1.744615,0.180928,0,0,,38.990797,-76.937871,-3.775000,,,
2026-09-11T16:28:35.183,1.503452,0.280042,0.843399,2.592982,0.000000,119.463245,-41.099740,0.211030,-0.081088,-0.170713,-0.592227,0.520467,-0.450597,0.007312,-0.016287,-0.169229,0.041090,0.723142,9.476853,-1.721852,0.219639,0,0,,38.990797,-76.937871,-3.775000,,,
2026-09-11T16:28:35.215,1.536875,0.222181,0.849665,2.057233,0.000000,119.290210,-41.040210,0.167580,-0.078634,-0.165546,-0.597846,0.524212,-0.456352,0.008550,-0.007750,-0.164063,-0.241930,0.577023,9.579136,-1.718582,0.247943,0,0,,38.990797,-76.937871,-3.775000,,,
2026-09-11T16:28:35.248,1.570283,0.212457,0.856592,1.967191,0.000000,119.148075,-40.991310,0.160364,-0.071164,-0.149819,-0.603114,0.527318,-0.461512,0.026970,0.003273,-0.148336,-0.025988,0.662635,9.871080,-1.705802,0.281219,0,0,,38.990797,-76.937871,-3.775000,,,
2026-09-11T16:28:35.281,1.603683,0.241868,0.864977,2.239518,0.000000,119.224979,-41.017768,0.182491,-0.061401,-0.129265,-0.607775,0.530766,-0.466592,0.039888,0.005101,-0.127781,-0.010395,0.186621,9.605222,-1.694016,0.283305,0,0,,38.990797,-76.937871,-3.775000,,,
2026-09-11T16:28:35.316,1.637090,0.145649,0.869056,1.348604,0.000000,118.892643,-40.903432,0.110084,-0.061103,-0.128638,-0.612083,0.533601,-0.471066,0.027277,0.003031,-0.127154,0.074236,0.508475,9.786252,-1.675408,0.305578,0,0,,38.990797,-76.937871,-3.775000,,,
2026-09-11T16:28:35.350,1.670504,0.203962,0.875345,1.888534,0.000000,118.057682,-40.616175,0.154825,-0.055798,-0.117470,-0.616194,0.536092,-0.475214,0.034386,-0.000462,-0.115987,0.301751,0.742461,9.770071,-1.645089,0.343009,0,0,,38.990797,-76.937871,-3.775000,,,
2026-09-11T16:28:35.383,1.703918,0.203962,0.882158,1.888534,0.000000,115.778705,-39.832123,0.156627,-0.049516,-0.104244,-0.619899,0.539313,-0.479663,0.035298,-0.001632,-0.102761,0.281157,0.314401,9.640722,-1.624066,0.352209,0,0,,38.990797,-76.937871,-3.775000,,,
2026-09-11T16:28:35.416,1.737327,0.194142,0.888447,1.797612,0.000000,112.118885,-38.573011,0.151783,-0.045281,-0.095329,-0.623232,0.542580,-0.483951,0.023404,-0.002534,-0.093845,0.376870,0.489254,9.718096,-1.596555,0.372497,0,0,,38.990797,-76.937871,-3.775000,,,
2026-09-11T16:28:35.449,1.770736,0.136281,0.892503,1.261862,0.000000,105.929462,-36.443622,0.109630,-0.046235,-0.097337,-0.626451,0.545228,-0.487744,0.024899,-0.000451,-0.095853,0.487979,0.475132,9.634445,-1.561323,0.391402,0,0,,38.990797,-76.937871,-3.775000,,,
2026-09-11T16:28:35.483,1.804135,0.194628,0.898427,1.802115,0.000000,101.403095,-34.886386,0.159651,-0.037923,-0.079838,-0.629409,0.548041,-0.491524,0.023205,-0.006091,-0.078355,0.375399,0.323129,9.540007,-1.536142,0.400395,0,0,,38.990797,-76.937871,-3.775000,,,
2026-09-11T16:28:35.517,1.837544,0.194628,0.904990,1.802115,0.000000,94.359485,-32.463126,0.164215,-0.034918,-0.073511,-0.631971,0.551692,-0.495697,0.031964,-0.000337,-0.072027,0.264387,0.166419,9.842641,-1.519435,0.399109,0,0,,38.990797,-76.937871,-3.775000,,,
2026-09-11T16:28:35.550,1.870964,0.204432,0.912008,1.892891,0.000000,91.281253,-31.404101,0.174486,-0.036301,-0.076424,-0.634476,0.555550,-0.500006,0.026085,0.002191,-0.074940,0.362944,0.518183,9.685048,-1.501869,0.420684,0,0,,38.990797,-76.937871,-3.775000,,,
2026-09-11T16:28:35.582,1.904365,0.137079,0.915881,1.269251,0.000000,84.795887,-29.172897,0.119691,-0.033368,-0.070248,-0.636926,0.558814,-0.503858,0.020523,-0.000635,-0.068764,0.372359,0.714120,9.701033,-1.483468,0.454362,0,0,,38.990797,-76.937871,-3.775000,,,
2026-09-11T16:28:35.616,1.937815,0.195392,0.921851,1.809182,0.000000,77.186481,-26.554982,0.174779,-0.019094,-0.040199,-0.638773,0.562247,-0.507497,0.035061,-0.000678,-0.038715,0.382655,0.658811,9.504801,-1.461724,0.484044,0,0,,38.990797,-76.937871,-3.775000,,,
2026-09-11T16:28:35.651,1.971235,0.195392,0.928436,1.809182,0.000000,66.614887,-22.917966,0.179968,-0.018674,-0.039314,-0.640102,0.566627,-0.511541,0.045878,0.001248,-0.037830,0.303124,0.346665,9.626992,-1.450023,0.493173,0,0,,38.990797,-76.937871,-3.775000,,,
2026-09-11T16:28:35.683,2.004643,0.195392,0.934930,1.809182,0.000000,62.865116,-21.627907,0.181635,-0.020189,-0.042503,-0.641468,0.571081,-0.515672,0.071196,0.002130,-0.041019,0.398738,0.432767,9.660923,-1.434776,0.507810,0,0,,38.990797,-76.937871,-3.775000,,,
2026-09-11T16:28:35.716,2.038054,0.147174,0.939442,1.362724,0.000000,57.015583,-19.615453,0.138633,-0.020654,-0.043481,-0.642905,0.574957,-0.519422,0.090271,0.004078,-0.041998,0.162300,-0.043051,9.875199,-1.434501,0.491391,0,0,,38.990797,-76.937871,-3.775000,,,
2026-09-11T16:28:35.750,2.071464,0.176348,0.945070,1.632850,0.000000,52.277729,-17.985457,0.167731,-0.015730,-0.033115,-0.644184,0.578687,-0.522980,0.093185,0.008557,-0.031632,0.258013,0.737656,9.734277,-1.427020,0.525634,0,0,,38.990797,-76.937871,-3.775000,,,
2026-09-11T16:28:35.784,2.104865,0.176348,0.950926,1.632850,0.000000,47.052356,-16.187737,0.169356,-0.013333,-0.028069,-0.645206,0.582895,-0.526751,0.100182,0.007737,-0.026586,0.334211,0.294886,9.581293,-1.416286,0.530798,0,0,,38.990797,-76.937871,-3.775000,,,
2026-09-11T16:28:35.818,2.138289,0.205759,0.958286,1.905177,0.000000,39.163486,-13.473676,0.200096,-0.012686,-0.026707,-0.646122,0.587564,-0.530814,0.107233,0.004108,-0.025223,0.354412,0.352353,9.702994,-1.409779,0.539666,0,0,,38.990797,-76.937871,-3.775000,,,
2026-09-11T16:28:35.850,2.171706,0.138406,0.962387,1.281537,0.000000,37.310916,-12.836324,0.134947,-0.006843,-0.014407,-0.646809,0.591836,-0.534446,0.116890,0.004134,-0.012923,0.362552,0.833467,9.639643,-1.408488,0.579349,0,0,,38.990797,-76.937871,-3.775000,,,
2026-09-11T16:28:35.883,2.205106,0.206437,0.968585,1.911457,0.000000,32.328617,-11.122230,0.202560,-0.009807,-0.020647,-0.647394,0.596165,-0.538066,0.116054,0.008143,-0.019163,0.238792,0.622918,9.834011,-1.415184,0.605099,0,0,,38.990797,-76.937871,-3.775000,,,
2026-09-11T16:28:35.917,2.238512,0.206437,0.975489,1.911457,0.000000,26.691257,-9.182772,0.203792,-0.005531,-0.011643,-0.647933,0.601424,-0.542365,0.116541,0.004669,-0.010160,0.287923,0.823268,9.549618,-1.421410,0.643413,0,0,,38.990797,-76.937871,-3.775000,,,
2026-09-11T16:28:35.950,2.271917,0.196618,0.981869,1.820535,0.000000,25.252048,-8.687631,0.194362,-0.008770,-0.018463,-0.648436,0.606581,-0.546571,0.079848,0.010366,-0.016979,2.027721,0.285570,8.342517,-1.321533,0.646596,0,0,,38.990797,-76.937871,-3.775000,,,
2026-09-11T16:28:35.985,2.305324,0.206261,0.988887,1.909826,0.000000,24.243366,-8.340607,0.204080,-0.009950,-0.020947,-0.649094,0.611695,-0.550841,0.062247,0.005079,-0.019464,-0.302535,-0.235556,8.295642,-1.379420,0.616072,0,0,,38.990797,-76.937871,-3.775000,,,
2026-09-11T16:28:36.018,2.338748,0.235435,0.997136,2.179952,0.000000,23.269702,-8.005632,0.233140,-0.022184,-0.046704,-0.650225,0.617188,-0.555689,0.005214,-0.009266,-0.045220,0.736970,1.024305,10.711216,-1.372521,0.667850,0,0,,38.990797,-76.937871,-3.775000,,,
2026-09-11T16:28:36.050,2.372154,0.245966,1.006752,2.277465,0.000000,23.181812,-7.975394,0.243587,-0.007620,-0.016043,-0.651273,0.623222,-0.560909,-0.007445,0.001222,-0.014559,0.787768,1.374892,9.047125,-1.363509,0.741258,0,1,2.370136,38.990796,-76.937869,-3.788000,1.054252,-0.348411,3.309987
2026-09-11T16:28:36.084,2.405554,0.275122,1.015456,2.547430,0.000000,22.337238,-7.684830,0.272652,-0.013355,-0.028116,-0.652011,0.629864,-0.566416,-0.020962,0.000628,-0.026633,1.598288,0.493373,9.545891,-1.308788,0.757063,1,0,,38.990796,-76.937869,-3.788000,,,
2026-09-11T16:28:36.118,2.438962,0.334040,1.026530,3.092963,0.000000,19.990284,-6.877391,0.331636,-0.012947,-0.027256,-0.652935,0.637618,-0.572894,-0.047308,-0.000833,-0.025773,1.303108,0.736676,10.294923,-1.277989,0.788528,1,0,,38.990796,-76.937869,-3.788000,,,
2026-09-11T16:28:36.152,2.472379,0.334040,1.037763,3.092963,0.000000,16.437580,-5.655131,0.332414,-0.010989,-0.023135,-0.653777,0.646185,-0.579956,-0.005455,0.003291,-0.021652,1.113741,1.366851,9.784487,-1.260379,0.860351,1,0,,38.990796,-76.937869,-3.788000,,,
2026-09-11T16:28:36.184,2.505788,0.383059,1.050501,3.546841,0.000000,14.604236,-5.024393,0.381587,-0.002907,-0.006121,-0.654266,0.655509,-0.587397,-0.009909,-0.000690,-0.004637,1.488649,2.277987,9.654647,-1.224289,0.989981,1,0,,38.990796,-76.937869,-3.788000,,,
2026-09-11T16:28:36.217,2.539196,0.392584,1.063853,3.635035,0.000000,11.753284,-4.043561,0.391607,-0.006595,-0.013884,-0.654600,0.665660,-0.595384,-0.017995,0.001869,-0.012400,1.212788,1.207101,10.098594,-1.212036,1.049077,1,0,,38.990796,-76.937869,-3.788000,,,
2026-09-11T16:28:36.251,2.572601,0.460617,1.079143,4.264968,0.000000,8.745766,-3.008864,0.459982,0.000372,0.000783,-0.654819,0.676879,-0.604128,-0.017710,0.005164,0.002267,1.634376,-0.022163,9.577567,-1.175726,1.027600,1,0,,38.990796,-76.937869,-3.788000,,,
2026-09-11T16:28:36.286,2.606008,0.470500,1.094660,4.356477,0.000000,5.508232,-1.895034,0.470242,0.003329,0.007008,-0.654689,0.689241,-0.613541,-0.028314,-0.007006,0.008492,1.381953,1.448148,9.363488,-1.157890,1.101315,1,0,,38.990796,-76.937869,-3.788000,,,
2026-09-11T16:28:36.318,2.639432,0.509181,1.111772,4.714636,0.000000,3.714028,-1.277762,0.509054,0.004982,0.010489,-0.654397,0.702309,-0.623394,-0.028767,0.000541,0.011972,1.818447,-0.078061,9.374177,-1.113739,1.075305,1,0,,38.990796,-76.937869,-3.788000,,,
2026-09-11T16:28:36.351,2.672835,0.538287,1.129773,4.984141,0.000000,2.832375,-0.974441,0.538209,0.004335,0.009126,-0.654069,0.716283,-0.633915,-0.069780,-0.008018,0.010610,1.707044,1.476097,9.594042,-1.076570,1.150188,1,0,,38.990796,-76.937869,-3.788000,,,
2026-09-11T16:28:36.384,2.706236,0.577344,1.149483,5.345778,0.000000,1.936302,-0.666159,0.577305,0.009059,0.019071,-0.653598,0.731207,-0.645068,-0.023461,-0.005175,0.020555,1.360379,0.690584,9.430859,-1.064594,1.173020,1,0,,38.990796,-76.937869,-3.788000,,,
2026-09-11T16:28:36.418,2.739642,0.616421,1.170286,5.707599,0.000000,0.182610,-0.062824,0.616420,0.011148,0.023470,-0.652887,0.747246,-0.656918,0.010357,-0.014856,0.024953,0.882206,0.269585,9.808317,-1.087301,1.168135,1,0,,38.990796,-76.937869,-3.788000,,,
2026-09-11T16:28:36.453,2.773060,0.655477,1.192412,6.069235,0.000000,-3.249244,1.117859,0.655353,0.016314,0.034345,-0.651921,0.764411,-0.669454,0.053316,-0.007897,0.035828,1.016753,0.479545,10.264915,-1.104125,1.176374,1,0,,38.990796,-76.937869,-3.788000,,,
2026-09-11T16:28:36.485,2.806468,0.704474,1.215858,6.522912,0.000000,-9.586296,3.298038,0.703308,0.022066,0.046455,-0.650572,0.782850,-0.682701,0.084902,-0.007538,0.047939,1.229166,1.637809,9.965420,-1.107634,1.258823,1,0,,38.990796,-76.937869,-3.788000,,,
2026-09-11T16:28:36.518,2.839876,0.743347,1.240763,6.882846,0.000000,-10.978126,3.776878,0.741733,0.036079,0.075955,-0.648527,0.802660,-0.696527,0.076471,-0.011788,0.077439,1.281141,1.534839,9.392417,-1.107079,1.332167,1,0,,38.990796,-76.937869,-3.788000,,,
2026-09-11T16:28:36.551,2.873281,0.772907,1.266375,7.156546,0.000000,-13.949241,4.799051,0.770197,0.046927,0.098793,-0.645608,0.823644,-0.710643,0.028286,0.002941,0.100277,1.221222,0.654986,9.289644,-1.109723,1.346474,1,0,,38.990796,-76.937869,-3.788000,,,
2026-09-11T16:28:36.585,2.906683,0.811940,1.293467,7.517964,0.000000,-16.081962,5.532785,0.808157,0.052372,0.110256,-0.642117,0.845723,-0.725140,-0.054021,0.007405,0.111740,1.675662,1.027737,9.436939,-1.079775,1.383900,1,0,,38.990796,-76.937869,-3.788000,,,
2026-09-11T16:28:36.620,2.940104,0.851042,1.322474,7.880022,0.000000,-17.295265,5.950206,0.846457,0.058960,0.124127,-0.638200,0.869009,-0.740162,-0.112584,0.019964,0.125610,1.907688,1.387739,9.968166,-1.030135,1.443210,1,0,,38.990796,-76.937869,-3.788000,,,
2026-09-11T16:28:36.652,2.973518,0.909715,1.353258,8.423284,0.000000,-17.731285,6.100213,0.904563,0.060826,0.128054,-0.633987,0.893732,-0.755929,-0.148763,0.008255,0.129537,1.758823,0.868183,9.146663,-0.986990,1.467521,1,0,,38.990796,-76.937869,-3.788000,,,
2026-09-11T16:28:36.685,3.006924,0.958312,1.385158,8.873261,0.000000,-17.828102,6.133521,0.952826,0.057276,0.120581,-0.629834,0.919931,-0.772662,-0.167525,-0.023929,0.122065,1.955740,0.710296,10.094475,-0.929996,1.481399,1,0,,38.990796,-76.937869,-3.788000,,,
2026-09-11T16:28:36.718,3.040334,1.017022,1.419268,9.416870,0.000000,-17.682533,6.083440,1.011295,0.057961,0.122023,-0.625781,0.947617,-0.790374,-0.167146,0.008378,0.123507,1.223772,-0.217806,9.725745,-0.913887,1.434496,1,0,,38.990796,-76.937869,-3.788000,,,
2026-09-11T16:28:36.753,3.073740,1.046384,1.454199,9.688739,0.000000,-17.522545,6.028398,1.040597,0.059257,0.124751,-0.621660,0.976581,-0.808801,-0.137517,-0.032165,0.126234,1.226125,0.633412,9.089294,-0.887373,1.442797,1,0,,38.990796,-76.937869,-3.788000,,,
2026-09-11T16:28:36.786,3.107161,1.085913,1.490816,10.054752,0.000000,-17.968178,6.181712,1.079599,0.070001,0.147370,-0.617112,1.006683,-0.827609,-0.053937,-0.005356,0.148853,0.372359,-0.598892,8.397533,-0.909616,1.369321,1,0,,38.990796,-76.937869,-3.788000,,,
2026-09-11T16:28:36.819,3.140570,1.086437,1.526932,10.059603,0.000000,-19.537163,6.721501,1.078970,0.072968,0.153617,-0.612085,1.037519,-0.846450,0.020102,0.021557,0.155100,0.530344,1.844239,9.125480,-0.918451,1.454392,1,0,,38.990796,-76.937869,-3.788000,,,
2026-09-11T16:28:36.852,3.173976,1.106421,1.563481,10.244635,0.000000,-19.720497,6.784575,1.098673,0.077538,0.163238,-0.606792,1.068783,-0.865208,0.040632,0.025600,0.164721,-0.229476,1.289084,11.965486,-0.973985,1.501705,1,0,,38.990796,-76.937869,-3.788000,,,
2026-09-11T16:28:36.886,3.207383,1.077668,1.599300,9.978407,0.000000,-19.805641,6.813867,1.070056,0.068063,0.143290,-0.601672,1.099976,-0.883788,0.017076,0.014097,0.144773,0.883285,-0.094536,8.640541,-0.953874,1.460623,1,0,,38.990796,-76.937869,-3.788000,,,
2026-09-11T16:28:36.920,3.240802,1.126926,1.637398,10.434499,0.000000,-19.252205,6.623465,1.119404,0.057404,0.120850,-0.597258,1.131366,-0.902697,0.058329,0.008089,0.122333,1.299479,0.879853,9.283073,-0.902637,1.484241,1,0,,38.990796,-76.937869,-3.788000,,,
2026-09-11T16:28:36.954,3.274213,1.127365,1.674289,10.438567,0.000000,-14.233513,4.896851,1.123250,0.046692,0.098299,-0.593597,1.163359,-0.922270,0.039733,-0.022372,0.099782,-0.116307,0.427472,9.801845,-0.941624,1.479917,1,0,,38.990796,-76.937869,-3.788000,,,
2026-09-11T16:28:36.986,3.307637,1.098716,1.711612,10.173292,0.000000,-10.645790,3.662542,1.096472,0.029739,0.062608,-0.590908,1.194849,-0.941919,0.044476,0.011155,0.064092,-1.156989,-0.382459,10.317675,-1.048702,1.425894,1,0,,38.990796,-76.937869,-3.788000,,,
2026-09-11T16:28:37.019,3.341043,1.050266,1.745928,9.724689,0.000000,-10.831871,3.726561,1.048046,0.023234,0.048913,-0.589046,1.225107,-0.961113,0.015370,0.033129,0.050397,0.310282,0.116013,10.024064,-1.060114,1.405887,1,0,,38.990796,-76.937869,-3.788000,,,
2026-09-11T16:28:37.052,3.374441,1.059914,1.781223,9.814018,0.000000,-8.522682,2.932115,1.058526,0.016031,0.033749,-0.587665,1.254733,-0.980091,-0.061237,0.005885,0.035232,0.650965,0.470621,8.877176,-1.049259,1.410057,1,1,3.374911,38.990795,-76.937862,-3.848000,1.736585,-0.399931,5.145072
2026-09-11T16:28:37.087,3.407865,1.069615,1.816860,9.903844,0.000000,-6.217613,2.139087,1.068870,0.012710,0.026758,-0.586654,1.284598,-0.999387,-0.083153,0.015205,0.028241,1.069513,-0.978900,11.157712,-1.012014,1.320781,1,0,,38.990795,-76.937862,-3.848000,,,
2026-09-11T16:28:37.120,3.441285,1.098884,1.853888,10.174850,0.000000,-4.919166,1.692374,1.098404,0.008452,0.017794,-0.585910,1.314961,-1.019129,-0.091548,-0.003177,0.019278,1.410490,0.263210,8.109021,-0.957555,1.313515,1,0,,38.990795,-76.937862,-3.848000,,,
2026-09-11T16:28:37.154,3.474696,1.118588,1.891257,10.357297,0.000000,-5.432091,1.868838,1.117993,0.011886,0.025024,-0.585194,1.346006,-1.039309,-0.013055,-0.041610,0.026508,1.328213,3.713484,9.396046,-0.911738,1.529127,1,0,,38.990795,-76.937862,-3.848000,,,
2026-09-11T16:28:37.186,3.508103,1.138206,1.929378,10.538941,0.000000,-9.209327,3.168347,1.136466,0.019257,0.040540,-0.584099,1.377697,-1.059658,-0.003482,-0.011454,0.042024,1.579851,0.035108,11.016497,-0.849545,1.503074,1,0,,38.990795,-76.937862,-3.848000,,,
2026-09-11T16:28:37.220,3.541509,1.196718,1.969823,11.080720,0.000000,-9.777183,3.363710,1.194656,0.040314,0.084871,-0.582004,1.410749,-1.080264,0.010475,-0.040477,0.086355,1.599170,3.545202,8.721348,-0.788491,1.700938,1,0,,38.990795,-76.937862,-3.848000,,,
2026-09-11T16:28:37.254,3.574912,1.245489,2.011293,11.532310,0.000000,-12.111778,4.166896,1.242197,0.057538,0.121132,-0.578564,1.445681,-1.101209,-0.058231,0.041190,0.122615,0.339997,0.019319,10.449476,-0.810776,1.665203,1,0,,38.990795,-76.937862,-3.848000,,,
2026-09-11T16:28:37.288,3.608333,1.275029,2.054153,11.805826,0.000000,-14.436760,4.966775,1.270242,0.063103,0.132849,-0.574320,1.481981,-1.122402,-0.088989,-0.080898,0.134333,3.538043,3.267184,15.791453,-0.628367,1.839014,1,0,,38.990795,-76.937862,-3.848000,,,
2026-09-11T16:28:37.320,3.641751,1.284926,2.096672,11.897465,0.000000,-16.004371,5.506091,1.278998,0.082359,0.173387,-0.569203,1.519115,-1.143405,0.063633,0.202446,0.174871,0.925159,0.947322,3.890985,-0.620712,1.857214,1,0,,38.990795,-76.937862,-3.848000,,,
2026-09-11T16:28:37.353,3.675152,1.304437,2.140011,12.078119,0.000000,-15.904808,5.471838,1.298493,0.077136,0.162391,-0.563595,1.556869,-1.164255,-0.067543,0.086020,0.163874,1.663012,0.077374,8.901398,-0.566549,1.819594,1,0,,38.990795,-76.937862,-3.848000,,,
2026-09-11T16:28:37.386,3.708558,1.343587,2.185469,12.440618,0.000000,-14.270591,4.909607,1.338657,0.058861,0.123918,-0.558813,1.595371,-1.185774,-0.123044,0.008993,0.125401,2.516386,1.359398,13.688318,-0.455834,1.868299,1,0,,38.990795,-76.937862,-3.848000,,,
2026-09-11T16:28:37.421,3.741971,1.363572,2.231770,12.625666,0.000000,-10.196037,3.507811,1.361017,0.046585,0.098073,-0.555104,1.634589,-1.208119,-0.122439,0.045416,0.099557,0.408447,0.898289,6.056293,-0.477762,1.888715,1,0,,38.990795,-76.937862,-3.848000,,,
2026-09-11T16:28:37.454,3.775385,1.383636,2.278527,12.811448,0.000000,-7.174797,2.468393,1.382353,0.023763,0.050028,-0.552630,1.674188,-1.231227,-0.048331,0.025098,0.051512,0.140922,-0.208980,12.779046,-0.508726,1.841365,1,0,,38.990795,-76.937862,-3.848000,,,
2026-09-11T16:28:37.487,3.808790,1.364753,2.324440,12.636599,0.000000,-4.072532,1.401101,1.364345,0.005811,0.012233,-0.551590,1.713508,-1.254868,-0.059920,-0.058550,0.013717,-2.014580,-1.099914,6.399918,-0.670119,1.740273,1,0,,38.990795,-76.937862,-3.848000,,,
2026-09-11T16:28:37.520,3.842192,1.326464,2.368964,12.282069,0.000000,-3.405800,1.171720,1.326186,-0.003761,-0.007917,-0.551518,1.751796,-1.278385,-0.004253,-0.006555,-0.006434,1.147574,0.107089,12.534370,-0.618458,1.720203,1,0,,38.990795,-76.937862,-3.848000,,,
2026-09-11T16:28:37.554,3.875615,1.365612,2.414878,12.644551,0.000000,-4.270286,1.469135,1.365163,0.018642,0.039247,-0.550994,1.790241,-1.301730,-0.059521,-0.063648,0.040731,1.870815,0.288512,9.427525,-0.516935,1.707943,1,0,,38.990795,-76.937862,-3.848000,,,
2026-09-11T16:28:37.588,3.909031,1.404499,2.462409,13.004616,0.000000,-6.921425,2.381224,1.403286,0.024904,0.052430,-0.549463,1.830050,-1.325296,-0.061862,-0.065131,0.053913,1.966724,2.474708,10.893619,-0.409208,1.836101,1,0,,38.990795,-76.937862,-3.848000,,,
2026-09-11T16:28:37.622,3.942447,1.423962,2.510351,13.184830,0.000000,-7.851143,2.701081,1.422380,0.028641,0.060296,-0.547579,1.870802,-1.349149,-0.075123,-0.022158,0.061780,0.413448,1.250740,8.616907,-0.401263,1.882791,1,0,,38.990795,-76.937862,-3.848000,,,
2026-09-11T16:28:37.655,3.975854,1.424139,2.557791,13.186477,0.000000,-8.107261,2.789195,1.422452,0.031283,0.065859,-0.545472,1.911919,-1.372990,-0.038678,-0.013046,0.067342,-0.168576,0.162496,12.768455,-0.427722,1.857979,1,0,,38.990795,-76.937862,-3.848000,,,
2026-09-11T16:28:37.687,4.009260,1.385593,2.603409,12.829563,0.000000,-8.293342,2.853214,1.383875,0.034804,0.073272,-0.543148,1.952591,-1.396319,-0.007473,0.040776,0.074756,-0.552703,-0.739225,8.357521,-0.477234,1.774566,1,0,,38.990795,-76.937862,-3.848000,,,
2026-09-11T16:28:37.720,4.042653,1.376337,2.650006,12.743859,0.000000,-8.163566,2.808566,1.374684,0.025512,0.053709,-0.541028,1.992565,-1.419219,-0.102401,0.019563,0.055193,-1.027345,-1.075005,6.131804,-0.561719,1.672171,1,0,,38.990795,-76.937862,-3.848000,,,
2026-09-11T16:28:37.756,4.076055,1.357204,2.696193,12.566700,0.000000,-8.168373,2.810220,1.355571,0.028110,0.059179,-0.539143,2.032133,-1.441898,-0.045841,0.052416,0.060662,-3.685829,-1.075495,0.974585,-0.825900,1.570442,1,0,,38.990795,-76.937862,-3.848000,,,
2026-09-11T16:28:37.789,4.109474,1.347783,2.741788,12.479476,0.000000,-8.590660,2.955502,1.345991,0.018661,0.039287,-0.537497,2.071291,-1.464372,0.003523,0.010350,0.040771,0.855924,0.827681,11.649614,-0.795233,1.594803,1,0,,38.990795,-76.937862,-3.848000,,,
2026-09-11T16:28:37.822,4.142896,1.338535,2.786995,12.393845,0.000000,-8.434791,2.901878,1.336819,0.004979,0.010482,-0.536666,2.110014,-1.486970,-0.080624,-0.006334,0.011965,0.848864,8.741256,6.793263,-0.761012,2.134022,1,0,,38.990795,-76.937862,-3.848000,,,
2026-09-11T16:28:37.854,4.176298,1.358356,2.832476,12.577373,0.000000,-8.601646,2.959282,1.356545,0.033120,0.069725,-0.535326,2.149012,-1.509395,0.063410,0.031824,0.071209,0.808951,-0.218100,12.631358,-0.726095,2.081725,1,0,,38.990795,-76.937862,-3.848000,,,
2026-09-11T16:28:37.887,4.209706,1.368591,2.878002,12.672142,0.000000,-8.722496,3.000859,1.366715,0.032489,0.068398,-0.533019,2.188723,-1.531611,0.035310,-0.042567,0.069881,-0.244774,1.910041,10.661300,-0.760391,2.167891,1,0,,38.990795,-76.937862,-3.848000,,,
2026-09-11T16:28:37.922,4.243110,1.369213,2.923506,12.677894,0.000000,-8.743782,3.008182,1.367326,0.023546,0.049570,-0.531049,2.228550,-1.553970,0.038401,-0.025115,0.051053,1.449031,1.084812,8.622595,-0.688554,2.201322,1,0,,38.990795,-76.937862,-3.848000,,,
2026-09-11T16:28:37.956,4.276524,1.388993,2.969989,12.861042,0.000000,-8.583793,2.953140,1.387148,0.024938,0.052500,-0.529343,2.268660,-1.576542,0.078372,-0.068526,0.053984,2.470001,1.059314,9.068896,-0.552742,2.232415,1,0,,38.990795,-76.937862,-3.848000,,,
2026-09-11T16:28:37.989,4.309939,1.447867,3.018204,13.406171,0.000000,-8.810386,3.031096,1.445841,0.038402,0.080847,-0.527115,2.310074,-1.599482,0.052898,-0.117164,0.082331,2.430186,-2.006441,11.935674,-0.419795,2.061722,1,0,,38.990795,-76.937862,-3.848000,,,
2026-09-11T16:28:38.022,4.343363,1.467595,3.067581,13.588840,0.000000,-9.170189,3.154881,1.465370,0.041485,0.087337,-0.524305,2.352826,-1.622742,0.091979,-0.087052,0.088821,1.715379,0.794241,9.484992,-0.335208,2.073619,1,0,,38.990795,-76.937862,-3.848000,,,
2026-09-11T16:28:38.055,4.376764,1.477759,3.116913,13.682950,0.000000,-9.862327,3.393003,1.475168,0.043846,0.092307,-0.521305,2.396087,-1.646028,0.056366,-0.016290,0.093790,0.268800,-1.336843,10.004156,-0.347677,1.946876,1,1,4.382887,38.990794,-76.937846,-3.789000,3.053572,-0.474617,5.144676
2026-09-11T16:28:38.088,4.410169,1.477836,3.166336,13.683667,0.000000,-10.125313,3.483479,1.475105,0.044704,0.094113,-0.518191,2.439591,-1.669218,0.055370,-0.006802,0.095597,0.578592,2.510404,10.803496,-0.339328,2.070457,1,0,,38.990794,-76.937846,-3.789000,,,
2026-09-11T16:28:38.123,4.443583,1.478030,3.216260,13.685464,0.000000,-10.040855,3.454423,1.475345,0.044062,0.092762,-0.515069,2.483183,-1.692277,-0.064479,0.050487,0.094246,0.656849,0.712061,9.187949,-0.322884,2.076356,1,0,,38.990794,-76.937846,-3.789000,,,
2026-09-11T16:28:38.156,4.476992,1.507453,3.266411,13.957901,0.000000,-10.128746,3.484660,1.504666,0.051442,0.108299,-0.511710,2.527329,-1.715335,-0.138904,0.034706,0.109783,0.924865,-2.603175,9.416738,-0.289349,1.865819,1,0,,38.990794,-76.937846,-3.789000,,,
2026-09-11T16:28:38.189,4.510409,1.498425,3.316244,13.874306,0.000000,-9.798469,3.371033,1.495832,0.038366,0.080770,-0.508551,2.571814,-1.738506,-0.174742,-0.008396,0.082254,0.168772,-2.566891,10.964129,-0.305251,1.662676,1,0,,38.990794,-76.937846,-3.789000,,,
2026-09-11T16:28:38.222,4.543813,1.479518,3.365439,13.699238,0.000000,-9.338417,3.212758,1.477192,0.029716,0.062561,-0.506157,2.615766,-1.761638,-0.160650,0.031001,0.064044,-1.131785,-0.417273,9.204032,-0.400219,1.602863,1,0,,38.990794,-76.937846,-3.789000,,,
2026-09-11T16:28:38.255,4.577213,1.451244,3.413973,13.437440,0.000000,-9.526558,3.277485,1.448870,0.031072,0.065415,-0.504020,2.659021,-1.784395,0.106705,0.063371,0.066898,1.132962,6.055803,6.557511,-0.344518,1.962548,1,0,,38.990794,-76.937846,-3.789000,,,
2026-09-11T16:28:38.290,4.610627,1.461247,3.463988,13.530067,0.000000,-9.799156,3.371269,1.458718,0.047582,0.100172,-0.501253,2.702222,-1.806645,0.057605,0.026705,0.101656,-0.089437,3.914717,10.104870,-0.369495,2.176477,1,0,,38.990794,-76.937846,-3.789000,,,
2026-09-11T16:28:38.324,4.644049,1.471322,3.513024,13.623352,0.000000,-9.856834,3.391113,1.468746,0.039204,0.082536,-0.498200,2.745856,-1.828814,0.119635,0.004571,0.084019,-1.072357,2.434305,10.717688,-0.461742,2.293810,1,0,,38.990794,-76.937846,-3.789000,,,
2026-09-11T16:28:38.356,4.677462,1.461955,3.562378,13.536624,0.000000,-9.909019,3.409066,1.459368,0.042460,0.089389,-0.495328,2.789512,-1.850928,0.134835,-0.081999,0.090873,-1.327036,2.164818,10.081825,-0.576317,2.391767,1,0,,38.990794,-76.937846,-3.789000,,,
2026-09-11T16:28:38.389,4.710874,1.452871,3.610525,13.452514,0.000000,-9.891853,3.403160,1.450309,0.030567,0.064352,-0.492760,2.832887,-1.872904,0.146238,-0.018229,0.065836,-1.094422,-3.284443,10.505962,-0.678043,2.138045,1,0,,38.990794,-76.937846,-3.789000,,,
2026-09-11T16:28:38.422,4.744280,1.473037,3.659765,13.639230,0.000000,-8.388786,2.886050,1.471168,0.027312,0.057498,-0.490724,2.876358,-1.895092,0.204996,-0.023753,0.058981,-0.479447,0.614681,12.784734,-0.743117,2.140273,1,0,,38.990794,-76.937846,-3.789000,,,
2026-09-11T16:28:38.457,4.777790,1.473658,3.708778,13.644981,0.000000,-5.119667,1.761353,1.472962,0.003798,0.007995,-0.489627,2.920124,-1.917855,0.105052,0.047486,0.009479,1.331449,2.066752,8.566795,-0.696856,2.241543,1,0,,38.990794,-76.937846,-3.789000,,,
2026-09-11T16:28:38.491,4.811206,1.474038,3.758132,13.648500,0.000000,-0.534248,0.183801,1.474030,-0.004272,-0.008993,-0.489644,2.963574,-1.941019,0.139261,0.007561,-0.007509,1.295262,2.911987,8.399004,-0.660413,2.397804,1,0,,38.990794,-76.937846,-3.789000,,,
2026-09-11T16:28:38.524,4.844629,1.503365,3.808330,13.920043,0.000000,4.586754,-1.578012,1.502794,-0.033329,-0.070167,-0.490967,3.007165,-1.965000,0.018843,0.037119,-0.068683,0.434042,-1.726657,9.055068,-0.684134,2.257743,1,0,,38.990794,-76.937846,-3.789000,,,
2026-09-11T16:28:38.556,4.878033,1.522810,3.858641,14.100094,0.000000,12.281304,-4.225219,1.518671,-0.066716,-0.140456,-0.494484,3.050834,-1.990343,-0.051327,0.044660,-0.138972,2.357028,2.121767,9.947572,-0.584330,2.375544,1,0,,38.990794,-76.937846,-3.789000,,,
2026-09-11T16:28:38.589,4.911436,1.580897,3.911459,14.637934,0.000000,16.293374,-5.605519,1.573337,-0.085422,-0.179837,-0.499834,3.095011,-2.017208,-0.055070,-0.024430,-0.178353,1.574065,1.420493,12.157696,-0.539193,2.451140,1,0,,38.990794,-76.937846,-3.789000,,,
2026-09-11T16:28:38.624,4.944844,1.639427,3.966419,15.179878,0.000000,21.551019,-7.414341,1.625719,-0.117711,-0.247812,-0.506977,3.140177,-2.045960,-0.171462,-0.028721,-0.246329,1.020088,-1.861891,11.195762,-0.531823,2.321055,1,0,,38.990794,-76.937846,-3.789000,,,
2026-09-11T16:28:38.658,4.978254,1.678595,4.022951,15.542543,0.000000,26.900675,-9.254819,1.656744,-0.135765,-0.285821,-0.515891,3.185919,-2.076490,-0.132508,-0.052969,-0.284338,2.186197,0.121995,8.901594,-0.447061,2.325496,1,0,,38.990794,-76.937846,-3.789000,,,
2026-09-11T16:28:38.690,5.011673,1.737352,4.081055,16.086597,0.000000,27.813226,-9.568771,1.713180,-0.148624,-0.312893,-0.525896,3.232392,-2.108638,-0.082221,0.014091,-0.311409,1.285260,-1.717243,9.856762,-0.417151,2.214772,1,0,,38.990794,-76.937846,-3.789000,,,
2026-09-11T16:28:38.723,5.045081,1.756879,4.139546,16.267399,0.000000,27.818720,-9.570660,1.732426,-0.152263,-0.320554,-0.536477,3.279469,-2.142127,0.020761,0.015639,-0.319071,1.165226,0.758839,9.614440,-0.392735,2.266935,1,0,,38.990794,-76.937846,-3.789000,,,
2026-09-11T16:28:38.757,5.078487,1.795966,4.199861,16.629313,0.000000,27.432138,-9.437662,1.771657,-0.140422,-0.295626,-0.546769,3.327100,-2.176493,0.048400,0.007652,-0.294142,0.962915,0.111796,11.121035,-0.378814,2.274566,1,0,,38.990794,-76.937846,-3.789000,,,
2026-09-11T16:28:38.792,5.111906,1.796221,4.260517,16.631678,0.000000,24.847604,-8.548488,1.776266,-0.120706,-0.254118,-0.555955,3.375313,-2.211266,0.088559,-0.007324,-0.252634,0.571237,-0.527206,9.003584,-0.386086,2.236026,1,0,,38.990794,-76.937846,-3.789000,,,
2026-09-11T16:28:38.825,5.145322,1.825811,4.321515,16.905658,0.000000,22.704584,-7.811210,1.808870,-0.107489,-0.226293,-0.563981,3.424039,-2.246315,0.053221,-0.035211,-0.224809,0.276744,-0.866908,9.371725,-0.405811,2.173187,1,0,,38.990794,-76.937846,-3.789000,,,
2026-09-11T16:28:38.857,5.178726,1.836193,4.382217,17.001786,0.000000,20.569803,-7.076767,1.822205,-0.114098,-0.240206,-0.571773,3.473175,-2.282053,-0.027110,-0.074809,-0.238723,-0.020300,-1.722244,12.330490,-0.433854,2.057523,1,0,,38.990794,-76.937846,-3.789000,,,
2026-09-11T16:28:38.890,5.212129,1.826835,4.443032,16.915134,0.000000,20.699579,-7.121415,1.812742,-0.113676,-0.239317,-0.579782,3.522025,-2.318299,-0.030114,-0.056586,-0.237834,0.162104,3.730254,10.407406,-0.440147,2.295963,1,0,,38.990794,-76.937846,-3.789000,,,
2026-09-11T16:28:38.925,5.245535,1.817731,4.503575,16.830846,0.000000,21.462442,-7.383868,1.802658,-0.131901,-0.277686,-0.588417,3.570137,-2.355019,-0.178718,-0.054101,-0.276203,0.547113,-1.404312,8.567580,-0.414726,2.203583,1,0,,38.990794,-76.937846,-3.789000,,,
2026-09-11T16:28:38.959,5.278958,1.788927,4.563798,16.564143,0.000000,25.637933,-8.820390,1.767771,-0.137226,-0.288898,-0.597886,3.617100,-2.392099,-0.146764,-0.057607,-0.287414,-0.248206,-2.138536,10.915194,-0.435771,2.065268,1,0,,38.990794,-76.937846,-3.789000,,,
2026-09-11T16:28:38.991,5.312369,1.788842,4.623884,16.563355,0.000000,27.259103,-9.378132,1.764933,-0.154012,-0.324236,-0.608128,3.662946,-2.429574,-0.085864,-0.115739,-0.322752,-0.354510,-0.776294,3.240706,-0.458147,2.020759,1,0,,38.990794,-76.937846,-3.789000,,,
2026-09-11T16:28:39.025,5.345793,1.779429,4.683584,16.476193,0.000000,28.586389,-9.834767,1.753279,-0.176904,-0.372430,-0.619771,3.707816,-2.467963,-0.044476,-0.003991,-0.370947,-3.364466,-0.237713,4.432214,-0.672513,2.016848,1,0,,38.990794,-76.937846,-3.789000,,,
2026-09-11T16:28:39.057,5.379199,1.770448,4.742166,16.393037,0.000000,29.352686,-10.098401,1.743020,-0.181640,-0.382400,-0.632379,3.751629,-2.507034,0.015447,-0.036539,-0.380916,0.365984,-0.355001,15.523437,-0.638925,2.006266,1,1,5.372866,38.990792,-76.937828,-3.808000,4.630413,-0.713871,5.145261
2026-09-11T16:28:39.092,5.412598,1.751185,4.801022,16.214674,0.000000,30.070917,-10.345499,1.722715,-0.177463,-0.373606,-0.645004,3.794523,-2.546350,0.017860,0.049170,-0.372123,-1.057255,-2.430872,12.225853,-0.690520,1.859940,1,0,,38.990792,-76.937828,-3.808000,,,
2026-09-11T16:28:39.126,5.446011,1.712757,4.858352,15.858863,0.000000,30.213052,-10.394399,1.684649,-0.168791,-0.355349,-0.657182,3.836299,-2.585447,0.001811,0.040374,-0.353866,-0.464247,-0.518772,9.151272,-0.701136,1.836093,1,0,,38.990792,-76.937828,-3.808000,,,
2026-09-11T16:28:39.159,5.479433,1.684044,4.914542,15.593002,0.000000,30.011179,-10.324947,1.656775,-0.162716,-0.342559,-0.668845,3.876899,-2.624180,0.002639,0.049621,-0.341076,0.386774,-0.079238,10.479484,-0.658750,1.838960,1,0,,38.990792,-76.937828,-3.808000,,,
2026-09-11T16:28:39.191,5.512842,1.694367,4.970983,15.688580,0.000000,29.596445,-10.182263,1.667681,-0.149636,-0.315024,-0.679830,3.917019,-2.662930,0.005164,0.015225,-0.313540,-0.169067,0.065214,12.422378,-0.655822,1.848416,1,0,,38.990792,-76.937828,-3.808000,,,
2026-09-11T16:28:39.224,5.546254,1.675564,5.026398,15.514484,0.000000,28.705866,-9.875871,1.650735,-0.142817,-0.300666,-0.690115,3.956861,-2.701784,0.014694,-0.057914,-0.299183,0.649494,0.553880,9.050557,-0.601268,1.887530,1,0,,38.990792,-76.937828,-3.808000,,,
2026-09-11T16:28:39.258,5.579662,1.666863,5.081700,15.433914,0.000000,27.664224,-9.517508,1.643919,-0.131605,-0.277064,-0.699766,3.996198,-2.740546,0.003151,-0.003839,-0.275580,0.984980,1.180230,10.701605,-0.523289,1.964122,1,0,,38.990792,-76.937828,-3.808000,,,
2026-09-11T16:28:39.293,5.613072,1.676946,5.138141,15.527275,0.000000,27.136194,-9.335847,1.654734,-0.130821,-0.275413,-0.708995,4.035348,-2.779569,-0.071645,-0.026869,-0.273929,-0.224180,0.856317,11.765136,-0.523012,2.018914,1,0,,38.990792,-76.937828,-3.808000,,,
2026-09-11T16:28:39.326,5.646495,1.638489,5.193009,15.171192,0.000000,27.134821,-9.335374,1.616788,-0.131377,-0.276583,-0.718220,4.073814,-2.818666,-0.174088,0.041893,-0.275100,0.336270,-0.273900,8.155112,-0.489899,1.999346,1,0,,38.990792,-76.937828,-3.808000,,,
2026-09-11T16:28:39.358,5.679901,1.609843,5.246533,14.905955,0.000000,27.180826,-9.351202,1.588450,-0.118813,-0.250132,-0.727017,4.111209,-2.857206,-0.184017,0.076914,-0.248648,-0.631548,-3.698676,10.337876,-0.526805,1.755047,1,0,,38.990792,-76.937828,-3.808000,,,
2026-09-11T16:28:39.391,5.713303,1.609766,5.300308,14.905242,0.000000,27.058603,-9.309152,1.588565,-0.117052,-0.246425,-0.735310,4.148075,-2.895568,-0.122133,0.004150,-0.244941,0.455617,3.378783,11.624509,-0.497950,1.971268,1,0,,38.990792,-76.937828,-3.808000,,,
2026-09-11T16:28:39.425,5.746710,1.619388,5.354265,14.994333,0.000000,23.864328,-8.210205,1.602791,-0.096927,-0.204058,-0.742835,4.185067,-2.934119,-0.129856,0.076011,-0.202574,-2.357911,1.089029,9.112634,-0.650705,2.032714,1,0,,38.990792,-76.937828,-3.808000,,,
2026-09-11T16:28:39.458,5.780122,1.600109,5.407334,14.815820,0.000000,18.357431,-6.315630,1.590398,-0.088380,-0.186063,-0.749352,4.222140,-2.972601,-0.130278,-0.007578,-0.184579,-0.553389,-4.418680,8.705167,-0.684240,1.734813,1,0,,38.990792,-76.937828,-3.808000,,,
2026-09-11T16:28:39.493,5.813530,1.591025,5.460698,14.731715,0.000000,14.284937,-4.914542,1.585176,-0.069793,-0.146932,-0.754914,4.259070,-3.010770,-0.162964,-0.002417,-0.145449,-1.057549,-2.183353,10.813009,-0.752857,1.580923,1,0,,38.990792,-76.937828,-3.808000,,,
2026-09-11T16:28:39.526,5.846941,1.542841,5.511944,14.285569,0.000000,10.424614,-3.586450,1.539820,-0.034927,-0.073531,-0.758597,4.295827,-3.047884,0.005927,0.101663,-0.072047,-1.457562,2.288970,11.471623,-0.848895,1.710525,1,0,,38.990792,-76.937828,-3.808000,,,
2026-09-11T16:28:39.559,5.880346,1.542762,5.562506,14.284837,0.000000,6.041069,-2.078350,1.541748,-0.019958,-0.042017,-0.760527,4.332519,-3.083991,0.068564,0.018352,-0.040533,2.438129,1.423631,6.733344,-0.694902,1.779523,1,0,,38.990792,-76.937828,-3.808000,,,
2026-09-11T16:28:39.592,5.913748,1.562590,5.614845,14.468422,0.000000,2.256966,-0.776479,1.562446,0.002808,0.005912,-0.761130,4.369870,-3.119946,0.107756,-0.019771,0.007396,1.407450,-0.247030,8.980734,-0.614192,1.734817,1,0,,38.990792,-76.937828,-3.808000,,,
2026-09-11T16:28:39.625,5.947150,1.592443,5.668164,14.744838,0.000000,1.253090,-0.431109,1.592397,0.003432,0.007225,-0.760911,4.408096,-3.156208,0.126434,-0.033794,0.008709,-0.857984,1.766472,8.318687,-0.682750,1.820797,1,0,,38.990792,-76.937828,-3.808000,,,
2026-09-11T16:28:39.659,5.980554,1.573559,5.720185,14.569991,0.000000,1.253090,-0.431109,1.573515,0.001722,0.003626,-0.760730,4.446452,-3.192605,0.108747,-0.018267,0.005109,1.115801,0.974585,10.653651,-0.622012,1.854943,1,0,,38.990792,-76.937828,-3.808000,,,
2026-09-11T16:28:39.694,6.013965,1.564458,5.772592,14.485721,0.000000,1.428871,-0.491584,1.564400,0.003236,0.006813,-0.760555,4.484482,-3.228683,0.035237,0.000445,0.008297,0.702254,-1.943678,11.037385,-0.587953,1.699442,1,0,,38.990792,-76.937828,-3.808000,,,
2026-09-11T16:28:39.725,6.047367,1.555185,5.824134,14.399857,0.000000,1.745415,-0.600487,1.555099,-0.005077,-0.010688,-0.760620,4.522203,-3.264620,0.031912,0.023995,-0.009205,0.830329,2.072145,10.383477,-0.546950,1.807420,1,0,,38.990792,-76.937828,-3.808000,,,
2026-09-11T16:28:39.759,6.080774,1.584822,5.877545,14.674275,0.000000,1.847039,-0.635449,1.584724,-0.021819,-0.045934,-0.761566,4.559868,-3.301118,0.014470,0.000470,-0.044451,0.371182,0.013631,10.030046,-0.540198,1.784585,1,0,,38.990792,-76.937828,-3.808000,,,
2026-09-11T16:28:39.794,6.114182,1.594810,5.930681,14.766756,0.000000,2.085991,-0.717658,1.594685,-0.014284,-0.030072,-0.762835,4.597866,-3.338227,-0.021121,0.006262,-0.028588,0.543485,1.417944,8.639365,-0.523883,1.851316,1,0,,38.990792,-76.937828,-3.808000,,,
2026-09-11T16:28:39.827,6.147591,1.604616,5.984866,14.857552,0.000000,2.154656,-0.741281,1.604481,-0.003630,-0.007643,-0.763465,4.636279,-3.375381,-0.036590,0.007718,-0.006159,0.551526,-0.245559,8.207284,-0.504709,1.807291,1,0,,38.990792,-76.937828,-3.808000,,,
2026-09-11T16:28:39.859,6.180992,1.604633,6.037525,14.857715,0.000000,2.422447,-0.833411,1.604463,-0.027215,-0.057294,-0.764550,4.674618,-3.412828,-0.002558,0.045236,-0.055811,0.311361,-0.515536,9.912464,-0.497744,1.751448,1,0,,38.990792,-76.937828,-3.808000,,,
2026-09-11T16:28:39.892,6.214400,1.605169,6.090616,14.862680,0.000000,2.656594,-0.913966,1.604965,-0.022006,-0.046329,-0.766281,4.712708,-3.450564,0.007579,-0.003031,-0.044846,0.319108,1.607996,11.445734,-0.487375,1.832560,1,0,,38.990792,-76.937828,-3.808000,,,
2026-09-11T16:28:39.927,6.247852,1.605468,6.144117,14.865444,0.000000,2.815895,-0.968771,1.605238,-0.023004,-0.048430,-0.767866,4.750841,-3.488371,0.067388,0.000157,-0.046946,0.020006,1.085302,10.940985,-0.496870,1.879212,1,0,,38.990792,-76.937828,-3.808000,,,
2026-09-11T16:28:39.960,6.281261,1.596115,6.197847,14.778846,0.000000,4.945870,-1.701561,1.595412,-0.036512,-0.076868,-0.769959,4.788574,-3.526263,0.013993,-0.016880,-0.075385,-0.588203,-2.001537,12.745997,-0.547991,1.728331,1,0,,38.990792,-76.937828,-3.808000,,,
2026-09-11T16:28:39.993,6.314682,1.606018,6.251576,14.870540,0.000000,11.124993,-3.827406,1.602436,-0.057738,-0.121554,-0.773275,4.825778,-3.564653,0.017990,-0.018965,-0.120070,0.097282,-2.696142,10.191757,-0.553326,1.538781,1,0,,38.990792,-76.937828,-3.808000,,,
2026-09-11T16:28:40.026,6.348106,1.616142,6.305579,14.964282,0.000000,16.348992,-5.624653,1.608361,-0.093467,-0.196773,-0.778595,4.862307,-3.604038,-0.028264,-0.015189,-0.195290,-0.367161,-0.572022,10.789669,-0.582892,1.496768,1,0,,38.990792,-76.937828,-3.808000,,,
2026-09-11T16:28:40.060,6.381505,1.596955,6.358989,14.786616,0.000000,22.515756,-7.746246,1.582382,-0.100791,-0.212191,-0.785424,4.897826,-3.643888,-0.054350,0.039409,-0.210708,0.590851,-2.480396,9.292487,-0.547691,1.333013,1,1,6.371949,38.990787,-76.937811,-3.834000,6.103111,-1.259653,3.389778
2026-09-11T16:28:40.093,6.414913,1.617085,6.412787,14.973008,0.000000,29.392511,-10.112102,1.591965,-0.127850,-0.269159,-0.793464,4.932454,-3.684221,-0.076953,0.050172,-0.267675,-0.579279,-4.123206,8.763517,-0.589436,1.070738,1,0,,38.990787,-76.937811,-3.834000,,,
2026-09-11T16:28:40.128,6.448334,1.608100,6.466880,14.889817,0.000000,32.188532,-11.074036,1.578157,-0.157466,-0.331508,-0.803502,4.966003,-3.725490,-0.024449,0.039740,-0.330024,0.484841,0.432179,11.240284,-0.563041,1.112316,1,0,,38.990787,-76.937811,-3.834000,,,
2026-09-11T16:28:40.161,6.481742,1.589005,6.520838,14.713013,0.000000,33.552211,-11.543192,1.556866,-0.165083,-0.347544,-0.814845,4.998243,-3.767105,0.026367,-0.001592,-0.346060,0.500139,-0.304398,8.994856,-0.538579,1.106911,1,0,,38.990787,-76.937811,-3.834000,,,
2026-09-11T16:28:40.193,6.515150,1.589482,6.573541,14.717429,0.000000,34.153712,-11.750130,1.556175,-0.172794,-0.363776,-0.826727,5.029558,-3.808998,0.131835,-0.010672,-0.362293,0.468660,0.371084,11.464661,-0.520342,1.146897,1,0,,38.990787,-76.937811,-3.834000,,,
2026-09-11T16:28:40.227,6.548557,1.609660,6.627840,14.904259,0.000000,34.326747,-11.809661,1.575588,-0.174588,-0.367554,-0.838942,5.060457,-3.851605,0.114163,0.003553,-0.366070,-0.360198,-0.116601,8.563461,-0.559094,1.155723,1,0,,38.990787,-76.937811,-3.834000,,,
2026-09-11T16:28:40.260,6.581959,1.600025,6.680909,14.815042,0.000000,35.930751,-12.361497,1.562930,-0.180593,-0.380196,-0.851431,5.090802,-3.894751,0.165482,0.152658,-0.378712,0.323325,1.160911,12.404040,-0.558616,1.248090,1,0,,38.990787,-76.937811,-3.834000,,,
2026-09-11T16:28:40.295,6.615368,1.571037,6.733180,14.546635,0.000000,40.038951,-13.774868,1.525852,-0.184217,-0.387826,-0.864260,5.119943,-3.937763,0.055791,0.120953,-0.386343,1.157381,-3.728292,8.276126,-0.511603,1.022873,1,0,,38.990787,-76.937811,-3.834000,,,
2026-09-11T16:28:40.328,6.648792,1.590779,6.786886,14.729437,0.000000,40.240138,-13.844084,1.544568,-0.191583,-0.403333,-0.877482,5.148190,-3.981057,-0.016314,0.043839,-0.401849,0.407761,-0.122093,9.854016,-0.519325,1.035561,1,0,,38.990787,-76.937811,-3.834000,,,
2026-09-11T16:28:40.360,6.682201,1.600860,6.840228,14.822779,0.000000,42.473796,-14.612544,1.549079,-0.208420,-0.438778,-0.891549,5.175765,-4.025267,-0.083489,-0.032782,-0.437295,0.552409,-0.039423,7.080696,-0.523432,1.057123,1,0,,38.990787,-76.937811,-3.834000,,,
2026-09-11T16:28:40.394,6.715609,1.620642,6.894231,15.005947,0.000000,44.484294,-15.304230,1.563171,-0.229769,-0.483723,-0.906958,5.202377,-4.070517,-0.119991,0.015564,-0.482240,0.306850,2.016247,10.432707,-0.548370,1.216427,1,0,,38.990787,-76.937811,-3.834000,,,
2026-09-11T16:28:40.427,6.749015,1.650008,6.949601,15.277856,0.000000,44.875682,-15.438881,1.590468,-0.224763,-0.473186,-0.922942,5.228480,-4.116896,-0.165770,0.025020,-0.471702,0.689996,-0.416194,9.081350,-0.551623,1.216321,1,0,,38.990787,-76.937811,-3.834000,,,
2026-09-11T16:28:40.461,6.782418,1.669653,7.005221,15.459754,0.000000,42.995647,-14.792080,1.614319,-0.220822,-0.464889,-0.938609,5.254473,-4.164272,-0.121246,-0.007399,-0.463405,0.830819,1.192096,6.428750,-0.545127,1.320153,1,0,,38.990787,-76.937811,-3.834000,,,
2026-09-11T16:28:40.495,6.815841,1.689259,7.062391,15.641290,0.000000,41.638835,-14.325287,1.636735,-0.194080,-0.408589,-0.953206,5.280632,-4.212395,0.015836,-0.029954,-0.407106,0.707256,2.326137,-0.587124,-0.546640,1.491048,1,0,,38.990787,-76.937811,-3.834000,,,
2026-09-11T16:28:40.528,6.849263,1.757763,7.121954,16.275587,0.000000,38.415034,-13.216182,1.711208,-0.181511,-0.382129,-0.966420,5.307580,-4.261826,-0.055789,-0.306249,-0.380645,4.740339,1.245248,19.571132,-0.292077,1.589100,1,0,,38.990787,-76.937811,-3.834000,,,
2026-09-11T16:28:40.561,6.882664,1.767771,7.180195,16.368252,0.000000,33.717006,-11.599887,1.731666,-0.173501,-0.365264,-0.978902,5.335056,-4.312680,0.193133,0.126222,-0.363781,3.746729,-1.251525,12.069633,-0.105168,1.523036,1,0,,38.990787,-76.937811,-3.834000,,,
2026-09-11T16:28:40.594,6.916071,1.816959,7.241215,16.823690,0.000000,32.091716,-11.040728,1.783329,-0.159811,-0.336444,-0.990623,5.362885,-4.364679,0.201709,0.075934,-0.334961,1.284475,-2.549827,10.643157,-0.075129,1.371556,1,0,,38.990787,-76.937811,-3.834000,,,
2026-09-11T16:28:40.629,6.949493,1.846827,7.303011,17.100252,0.000000,29.602626,-10.184390,1.817728,-0.157868,-0.332353,-1.001799,5.391131,-4.418078,0.174416,0.188799,-0.330870,-0.024320,1.130413,6.081888,-0.126889,1.460265,1,0,,38.990787,-76.937811,-3.834000,,,
2026-09-11T16:28:40.662,6.982902,1.856667,7.364829,17.191358,0.000000,30.533031,-10.504483,1.825550,-0.166223,-0.349943,-1.013196,5.419050,-4.472425,0.103580,-0.016478,-0.348459,0.953697,-4.267952,10.351900,-0.110460,1.200791,1,0,,38.990787,-76.937811,-3.834000,,,
2026-09-11T16:28:40.695,7.016323,1.895652,7.428675,17.552336,0.000000,37.413219,-12.871520,1.848018,-0.194155,-0.408746,-1.025874,5.446068,-4.527869,0.014361,0.031130,-0.407263,-0.088848,-0.032068,9.421935,-0.157101,1.225907,1,0,,38.990787,-76.937811,-3.834000,,,
2026-09-11T16:28:40.728,7.049737,1.895991,7.491815,17.555470,0.000000,42.340587,-14.566716,1.835045,-0.231271,-0.486886,-1.040838,5.471462,-4.584360,-0.050877,0.052969,-0.485402,0.562411,-4.491054,8.056457,-0.155848,0.971068,1,0,,38.990787,-76.937811,-3.834000,,,
2026-09-11T16:28:40.761,7.083137,1.935279,7.556368,17.919252,0.000000,48.420833,-16.658543,1.854056,-0.282496,-0.594728,-1.058901,5.494674,-4.642059,-0.109753,-0.009839,-0.593245,0.059134,-1.583872,9.338383,-0.176600,0.920785,1,0,,38.990787,-76.937811,-3.834000,,,
2026-09-11T16:28:40.796,7.116543,1.964712,7.622196,18.191782,0.000000,54.097331,-18.611467,1.861967,-0.318111,-0.669707,-1.080021,5.515702,-4.701303,-0.335481,-0.025773,-0.668223,0.192995,-1.265940,8.891494,-0.181667,0.900959,1,0,,38.990787,-76.937811,-3.834000,,,
2026-09-11T16:28:40.829,7.149965,1.945558,7.688116,18.014424,0.000000,54.537471,-18.762891,1.842167,-0.320765,-0.675294,-1.102497,5.534790,-4.761141,-0.397511,0.026010,-0.673811,-0.799928,-2.263571,8.674374,-0.248935,0.816573,1,0,,38.990787,-76.937811,-3.834000,,,
2026-09-11T16:28:40.863,7.183374,1.916903,7.752213,17.749099,0.000000,54.212688,-18.651154,1.816233,-0.309532,-0.651647,-1.124663,5.552325,-4.820620,-0.315486,0.011767,-0.650163,-1.291144,-0.894563,6.744622,-0.342321,0.817827,1,0,,38.990787,-76.937811,-3.834000,,,
2026-09-11T16:28:40.895,7.216798,1.907507,7.815672,17.662101,0.000000,53.298076,-18.336494,1.810654,-0.281142,-0.591877,-1.145445,5.568961,-4.879735,-0.172935,0.009429,-0.590394,0.169263,-2.387625,5.937731,-0.337469,0.715176,1,0,,38.990787,-76.937811,-3.834000,,,
2026-09-11T16:28:40.928,7.250205,1.869020,7.877513,17.305738,0.000000,48.365901,-16.639645,1.790754,-0.265243,-0.558406,-1.164658,5.584911,-4.938451,-0.064264,0.020638,-0.556922,-0.971349,2.865601,8.862172,-0.406398,0.948966,1,0,,38.990787,-76.937811,-3.834000,,,
2026-09-11T16:28:40.963,7.283613,1.840475,7.939445,17.041438,0.000000,38.768657,-13.337841,1.790832,-0.218748,-0.460522,-1.181678,5.600626,-4.996745,0.045191,0.016529,-0.459038,-1.565141,2.979653,8.872371,-0.515396,1.176242,1,0,,38.990787,-76.937811,-3.834000,,,
2026-09-11T16:28:40.996,7.317036,1.801939,7.999395,16.684619,0.000000,37.674144,-12.961288,1.756029,-0.193011,-0.406340,-1.196165,5.616334,-5.054313,0.093555,0.003741,-0.404856,-0.769822,-2.162857,11.749544,-0.572762,1.060969,1,0,,38.990787,-76.937811,-3.834000,,,
2026-09-11T16:28:41.029,7.350460,1.763015,8.058000,16.324211,0.000000,35.111583,-12.079673,1.723977,-0.173932,-0.366172,-1.209075,5.631548,-5.110779,0.122540,-0.013384,-0.364688,0.474936,1.669386,5.880362,-0.547731,1.189761,1,0,,38.990787,-76.937811,-3.834000,,,
2026-09-11T16:28:41.062,7.383861,1.782499,8.117153,16.504625,0.000000,33.908580,-11.665796,1.745680,-0.165302,-0.348004,-1.221002,5.646418,-5.167070,0.075367,0.034968,-0.346521,-0.093065,-3.585017,16.559215,-0.562042,0.975540,1,1,7.372430,38.990778,-76.937796,-3.968000,7.411887,-2.327680,6.942754
2026-09-11T16:28:41.097,7.417265,1.802206,8.177627,16.687092,0.000000,33.919566,-11.669576,1.764955,-0.169960,-0.357811,-1.232791,5.660913,-5.224158,0.026433,-0.043718,-0.356328,2.903847,1.263881,9.948945,-0.385983,1.078973,1,0,,38.990778,-76.937796,-3.968000,,,
2026-09-11T16:28:41.130,7.450685,1.792843,8.237941,16.600402,0.000000,33.855022,-11.647370,1.755926,-0.167335,-0.352284,-1.244657,5.674766,-5.281615,-0.058786,-0.008510,-0.350800,-0.025595,-2.565518,9.095962,-0.405313,0.932580,1,0,,38.990778,-76.937796,-3.968000,,,
2026-09-11T16:28:41.162,7.484092,1.802746,8.297937,16.692096,0.000000,34.078181,-11.724145,1.765136,-0.166700,-0.350948,-1.256403,5.687985,-5.339195,-0.039284,-0.089275,-0.349464,0.677149,-2.074107,7.925146,-0.380619,0.819730,1,0,,38.990778,-76.937796,-3.968000,,,
2026-09-11T16:28:41.195,7.517502,1.822396,8.358638,16.874033,0.000000,33.681987,-11.587840,1.785251,-0.177883,-0.374491,-1.268521,5.700496,-5.397452,-0.075752,0.009801,-0.373007,0.669010,-0.497884,7.657032,-0.354903,0.813294,1,0,,38.990778,-76.937796,-3.968000,,,
2026-09-11T16:28:41.229,7.550912,1.842371,8.420183,17.058994,0.000000,30.232967,-10.401250,1.812097,-0.150068,-0.315932,-1.280055,5.712813,-5.456525,-0.022515,0.007373,-0.314449,1.691745,-0.161025,11.112406,-0.262726,0.822510,1,0,,38.990778,-76.937796,-3.968000,,,
2026-09-11T16:28:41.262,7.584312,1.832993,8.481341,16.972158,0.000000,28.203242,-9.702950,1.806772,-0.143662,-0.302446,-1.290382,5.725132,-5.515895,0.009298,0.080222,-0.300962,-0.343821,0.046484,8.362817,-0.305264,0.843361,1,0,,38.990778,-76.937796,-3.968000,,,
2026-09-11T16:28:41.297,7.617729,1.843452,8.543911,17.069000,0.000000,26.337627,-9.061110,1.820447,-0.123424,-0.259840,-1.299777,5.737336,-5.575427,0.004961,0.059051,-0.258357,0.018142,-1.177681,8.368701,-0.324756,0.780009,1,0,,38.990778,-76.937796,-3.968000,,,
2026-09-11T16:28:41.330,7.651155,1.853717,8.605137,17.164046,0.000000,26.257976,-9.033707,1.830724,-0.128371,-0.270254,-1.308636,5.749351,-5.635401,-0.059879,-0.015834,-0.268770,-0.349509,-0.288904,7.021463,-0.364454,0.776287,1,0,,38.990778,-76.937796,-3.968000,,,
2026-09-11T16:28:41.363,7.684556,1.854083,8.667137,17.167436,0.000000,26.253169,-9.032054,1.831094,-0.127196,-0.267780,-1.317622,5.760808,-5.695624,-0.054151,-0.030566,-0.266297,0.522793,-1.767453,9.752223,-0.345823,0.676678,1,0,,38.990778,-76.937796,-3.968000,,,
2026-09-11T16:28:41.396,7.717961,1.883610,8.730596,17.440830,0.000000,26.242869,-9.028510,1.860272,-0.133980,-0.282063,-1.326805,5.771747,-5.756458,-0.086567,0.023535,-0.280579,-0.124937,-1.800305,9.525788,-0.368908,0.578263,1,0,,38.990778,-76.937796,-3.968000,,,
2026-09-11T16:28:41.430,7.751370,1.854537,8.792187,17.171636,0.000000,26.368526,-9.071740,1.831340,-0.139532,-0.293752,-1.336424,5.781919,-5.817449,-0.099842,0.029873,-0.292269,-0.516222,0.172793,8.873449,-0.415229,0.609444,1,0,,38.990778,-76.937796,-3.968000,,,
2026-09-11T16:28:41.464,7.784775,1.835190,8.853458,16.992503,0.000000,26.356166,-9.067488,1.812257,-0.127703,-0.268848,-1.345821,5.791429,-5.877723,-0.130006,0.041092,-0.267364,-0.611935,-1.523757,8.832458,-0.466153,0.527244,1,0,,38.990778,-76.937796,-3.968000,,,
2026-09-11T16:28:41.497,7.818197,1.806206,8.913681,16.724132,0.000000,23.877376,-8.214693,1.787674,-0.115386,-0.242919,-1.354373,5.800636,-5.937312,-0.090014,0.006409,-0.241435,-0.395894,0.777373,9.237570,-0.501858,0.591421,1,0,,38.990778,-76.937796,-3.968000,,,
2026-09-11T16:28:41.530,7.851602,1.786943,8.973130,16.545769,0.000000,18.003123,-6.193735,1.776512,-0.103293,-0.217459,-1.362063,5.809627,-5.996274,-0.004871,0.030780,-0.215976,-0.018731,0.956050,8.760967,-0.513506,0.663315,1,0,,38.990778,-76.937796,-3.968000,,,
2026-09-11T16:28:41.564,7.885002,1.796927,9.033171,16.638213,0.000000,14.436687,-4.966750,1.790180,-0.065398,-0.137679,-1.367993,5.819039,-6.055158,0.018431,-0.003441,-0.136196,-0.421588,0.213589,8.931112,-0.548928,0.677331,1,0,,38.990778,-76.937796,-3.968000,,,
2026-09-11T16:28:41.598,7.918422,1.768048,9.092574,16.370813,0.000000,9.529228,-3.278404,1.765154,-0.042021,-0.088466,-1.371772,5.829137,-6.113732,0.061390,0.000328,-0.086982,-0.119837,0.266545,9.972971,-0.561906,0.688783,1,0,,38.990778,-76.937796,-3.968000,,,
2026-09-11T16:28:41.630,7.951849,1.778400,9.152318,16.466668,0.000000,3.052788,-1.050271,1.778101,-0.015560,-0.032758,-1.373798,5.839843,-6.171985,0.120662,-0.048581,-0.031274,0.046778,0.580554,9.781447,-0.563259,0.714100,1,0,,38.990778,-76.937796,-3.968000,,,
2026-09-11T16:28:41.663,7.985251,1.759291,9.210628,16.289735,0.000000,-0.008964,0.003084,1.759291,0.015701,0.033055,-1.373793,5.851409,-6.229919,0.135420,-0.036131,0.034538,-0.030695,-0.191328,10.496352,-0.571631,0.681656,1,0,,38.990778,-76.937796,-3.968000,,,
2026-09-11T16:28:41.696,8.018659,1.779259,9.269962,16.474624,0.000000,-1.826515,0.628388,1.779152,0.020487,0.043130,-1.372521,5.863607,-6.287755,0.102500,-0.007080,0.044614,0.882599,1.408431,10.647865,-0.524042,0.751869,1,0,,38.990778,-76.937796,-3.968000,,,
2026-09-11T16:28:41.731,8.052076,1.789819,9.330163,16.572401,0.000000,-1.910972,0.657445,1.789701,0.027683,0.058281,-1.370826,5.876192,-6.346049,0.057356,-0.016546,0.059764,1.284671,-0.826799,7.954370,-0.451997,0.674876,1,0,,38.990778,-76.937796,-3.968000,,,
2026-09-11T16:28:41.765,8.085496,1.789990,9.390454,16.573980,0.000000,-2.133445,0.733984,1.789843,0.018890,0.039768,-1.369188,5.888884,-6.404506,0.015354,-0.099701,0.041252,0.748345,-1.310168,8.096174,-0.417983,0.569595,1,0,,38.990778,-76.937796,-3.968000,,,
2026-09-11T16:28:41.797,8.118913,1.809886,9.449949,16.758206,0.000000,-2.154731,0.741307,1.809735,0.011967,0.025193,-1.368102,5.901465,-6.463322,0.116160,-0.017874,0.026676,4.166355,0.296357,22.425357,-0.160743,0.571112,1,0,,38.990778,-76.937796,-3.968000,,,
2026-09-11T16:28:41.830,8.152317,1.780564,9.509420,16.486701,0.000000,-1.735191,0.596969,1.780467,0.002129,0.004482,-1.367607,5.913781,-6.522007,0.100117,0.165444,0.005966,4.276484,-3.202362,10.929904,0.103340,0.348728,1,0,,38.990778,-76.937796,-3.968000,,,
2026-09-11T16:28:41.864,8.185720,1.781094,9.569484,16.491613,0.000000,2.248726,-0.773644,1.780932,-0.023863,-0.050238,-1.368371,5.925406,-6.580342,0.074541,0.029733,-0.048754,0.983411,0.586242,11.926946,0.151858,0.380176,1,0,,38.990778,-76.937796,-3.968000,,,
2026-09-11T16:28:41.898,8.219129,1.800761,9.629160,16.673713,0.000000,6.887703,-2.369623,1.799221,-0.046418,-0.097721,-1.370843,5.936206,-6.639174,0.025919,0.020950,-0.096238,0.890738,-1.114624,9.248946,0.195934,0.306833,1,0,,38.990778,-76.937796,-3.968000,,,
2026-09-11T16:28:41.932,8.252553,1.820752,9.690431,16.858819,0.000000,15.785256,-5.430707,1.812580,-0.074644,-0.157146,-1.375102,5.946085,-6.698754,0.002106,0.103977,-0.155662,-0.156122,-3.034472,8.458922,0.175501,0.117076,1,0,,38.990778,-76.937796,-3.968000,,,
2026-09-11T16:28:41.965,8.285965,1.811315,9.750586,16.771433,0.000000,17.834893,-6.135858,1.800938,-0.110191,-0.231982,-1.381603,5.954600,-6.758595,0.035449,0.109287,-0.230498,-0.671854,-3.188730,8.104118,0.129551,-0.071880,1,0,,38.990778,-76.937796,-3.968000,,,
2026-09-11T16:28:41.997,8.319373,1.801867,9.810719,16.683955,0.000000,22.685358,-7.804596,1.785176,-0.137046,-0.288518,-1.390297,5.961551,-6.818233,0.010394,0.060119,-0.287034,-0.596244,-0.956835,8.315157,0.093579,-0.108057,1,0,,38.990778,-76.937796,-3.968000,,,
2026-09-11T16:28:42.031,8.352780,1.831459,9.872013,16.957952,0.000000,28.678400,-9.866422,1.804371,-0.159501,-0.335792,-1.400725,5.967127,-6.878134,-0.078188,-0.014348,-0.334308,-0.279686,-1.509832,8.931505,0.077340,-0.173727,1,0,,38.990778,-76.937796,-3.968000,,,
2026-09-11T16:28:42.065,8.386185,1.783346,9.931256,16.512461,0.000000,32.042963,-11.023955,1.750438,-0.178499,-0.375787,-1.412610,5.971264,-6.937628,-0.049906,-0.022065,-0.374303,-0.950264,-1.425200,9.905795,0.011721,-0.229832,1,1,8.373343,38.990765,-76.937784,-4.012000,8.397431,-3.790264,5.122647
2026-09-11T16:28:42.099,8.419604,1.793906,9.991935,16.610237,0.000000,36.059154,-12.405672,1.752020,-0.195596,-0.411782,-1.425770,5.973923,-6.996423,-0.053813,0.028898,-0.410298,0.126408,-2.188452,11.719045,0.010661,-0.330607,1,0,,38.990765,-76.937784,-4.012000,,,
2026-09-11T16:28:42.131,8.453030,1.784706,10.051042,16.525052,0.000000,40.527156,-13.942829,1.732122,-0.213833,-0.450176,-1.440176,5.975147,-7.055037,0.053278,-0.006631,-0.448692,-1.176112,4.174299,11.990493,-0.076886,-0.014732,1,0,,38.990765,-76.937784,-4.012000,,,
2026-09-11T16:28:42.164,8.486432,1.765650,10.109420,16.348611,0.000000,40.431026,-13.909757,1.713873,-0.212709,-0.447809,-1.455173,5.975148,-7.113026,0.016562,-0.024807,-0.446325,0.142981,2.777930,10.617856,-0.077285,0.206335,1,0,,38.990765,-76.937784,-4.012000,,,
2026-09-11T16:28:42.199,8.519835,1.726849,10.166863,15.989338,0.000000,40.773662,-14.027636,1.675352,-0.225946,-0.475675,-1.470597,5.973965,-7.170088,0.016491,0.003427,-0.474192,-1.159244,-3.029470,12.233306,-0.162446,0.051255,1,0,,38.990765,-76.937784,-4.012000,,,
2026-09-11T16:28:42.233,8.553260,1.677758,10.223759,15.534799,0.000000,41.390956,-14.240008,1.626207,-0.219496,-0.462097,-1.486270,5.971648,-7.225715,0.130826,0.093547,-0.460614,-1.468546,-1.958486,10.599126,-0.271278,-0.035831,1,0,,38.990765,-76.937784,-4.012000,,,
2026-09-11T16:28:42.266,8.586671,1.668491,10.279881,15.448988,0.000000,42.176478,-14.510256,1.615270,-0.234889,-0.494502,-1.502250,5.968222,-7.280284,0.146130,0.072138,-0.493019,0.565550,-3.400848,6.910943,-0.247719,-0.212159,1,0,,38.990765,-76.937784,-4.012000,,,
2026-09-11T16:28:42.298,8.620077,1.726924,10.337849,15.990035,0.000000,45.072749,-15.506680,1.664063,-0.252936,-0.532497,-1.519404,5.963364,-7.335444,0.100704,0.037896,-0.531013,-3.316315,1.482177,14.660648,-0.478775,-0.065027,1,0,,38.990765,-76.937784,-4.012000,,,
2026-09-11T16:28:42.332,8.653481,1.775890,10.397160,16.443422,0.000000,48.362468,-16.638464,1.701534,-0.261157,-0.549803,-1.537481,5.957160,-7.391966,-0.002463,0.006089,-0.548320,0.088358,-0.393443,5.078080,-0.492871,-0.037644,1,0,,38.990765,-76.937784,-4.012000,,,
2026-09-11T16:28:42.367,8.686894,1.815162,10.458500,16.807058,0.000000,52.570232,-18.086089,1.725477,-0.291381,-0.613433,-1.556914,5.949279,-7.449412,-0.169325,0.002670,-0.611950,-0.328131,1.643300,8.816375,-0.538229,0.129163,1,0,,38.990765,-76.937784,-4.012000,,,
2026-09-11T16:28:42.400,8.720314,1.844847,10.519931,17.081915,0.000000,52.485087,-18.056796,1.753988,-0.274850,-0.578632,-1.576833,5.940041,-7.507592,-0.099900,-0.013908,-0.577148,0.543190,-6.377167,11.653144,-0.536066,-0.227653,1,0,,38.990765,-76.937784,-4.012000,,,
2026-09-11T16:28:42.432,8.753728,1.835565,10.581613,16.995976,0.000000,52.511180,-18.065773,1.745074,-0.288864,-0.608136,-1.596661,5.929694,-7.565888,-0.059380,-0.063371,-0.606652,0.903192,0.087279,9.513824,-0.522595,-0.159227,1,0,,38.990765,-76.937784,-4.012000,,,
2026-09-11T16:28:42.466,8.787142,1.855743,10.643613,17.182807,0.000000,52.649196,-18.113255,1.763780,-0.275767,-0.580562,-1.616520,5.918166,-7.624134,-0.012384,-0.071981,-0.579078,1.906511,2.205025,8.075188,-0.458370,0.043041,1,0,,38.990765,-76.937784,-4.012000,,,
2026-09-11T16:28:42.498,8.820549,1.875711,10.705819,17.367695,0.000000,51.144069,-17.595437,1.787955,-0.270310,-0.569074,-1.635723,5.905775,-7.682862,-0.033708,-0.024732,-0.567591,-1.201413,-3.409478,10.499588,-0.606550,-0.120551,1,0,,38.990765,-76.937784,-4.012000,,,
2026-09-11T16:28:42.532,8.853955,1.856737,10.767956,17.192006,0.000000,49.722713,-17.106438,1.774595,-0.258343,-0.543880,-1.654313,5.892559,-7.741550,0.008866,-0.090069,-0.542396,1.120312,0.739814,11.158399,-0.603119,-0.017332,1,0,,38.990765,-76.937784,-4.012000,,,
2026-09-11T16:28:42.567,8.887362,1.886360,10.831894,17.466296,0.000000,49.631389,-17.075019,1.803211,-0.257416,-0.541929,-1.672450,5.878452,-7.800257,-0.026911,0.052931,-0.540446,0.478957,-1.295458,9.370058,-0.635851,-0.046123,1,0,,38.990765,-76.937784,-4.012000,,,
2026-09-11T16:28:42.600,8.920786,1.895980,10.894783,17.555369,0.000000,49.475520,-17.021395,1.812927,-0.256081,-0.539119,-1.690516,5.863247,-7.859368,-0.011559,0.073586,-0.537635,0.361179,-0.771097,9.768012,-0.670763,-0.040663,1,0,,38.990765,-76.937784,-4.012000,,,
2026-09-11T16:28:42.633,8.954202,1.925425,10.959085,17.828008,0.000000,45.452464,-15.637316,1.854160,-0.253398,-0.533469,-1.708437,5.846937,-7.919038,0.036976,-0.077596,-0.531985,1.617705,0.786493,10.269524,-0.620449,0.066275,1,0,,38.990765,-76.937784,-4.012000,,,
2026-09-11T16:28:42.666,8.987603,1.974215,11.024572,18.279764,0.000000,39.221156,-13.493517,1.919719,-0.239989,-0.505239,-1.725784,5.829588,-7.980185,0.088594,-0.004798,-0.503755,1.773631,0.204763,10.651885,-0.560930,0.133114,1,0,,38.990765,-76.937784,-4.012000,,,
2026-09-11T16:28:42.700,9.021011,2.032897,11.092451,18.823121,0.000000,37.090495,-12.760491,1.982688,-0.217514,-0.457924,-1.741873,5.811458,-8.043267,0.091565,-0.008048,-0.456440,2.267199,0.144550,6.104051,-0.469909,0.191325,1,0,,38.990765,-76.937784,-4.012000,,,
2026-09-11T16:28:42.734,9.054432,2.091491,11.162882,19.365654,0.000000,33.604396,-11.561145,2.049057,-0.191170,-0.402463,-1.756250,5.792782,-8.108360,0.012780,-0.122910,-0.400979,1.489336,-0.673227,7.719795,-0.426544,0.190604,1,0,,38.990765,-76.937784,-4.012000,,,
2026-09-11T16:28:42.766,9.087923,2.120924,11.233610,19.638184,0.000000,29.693950,-10.215808,2.087300,-0.173546,-0.365360,-1.769108,5.773574,-8.175190,-0.038464,0.004124,-0.363876,-0.782963,-2.827650,11.361691,-0.528923,0.046158,1,0,,38.990765,-76.937784,-4.012000,,,
2026-09-11T16:28:42.801,9.121331,2.121462,11.304155,19.643168,0.000000,28.578837,-9.832169,2.090303,-0.167845,-0.353358,-1.781113,5.753831,-8.242364,-0.051586,-0.024925,-0.351874,-0.376281,-1.597111,8.653977,-0.600200,-0.018283,1,0,,38.990765,-76.937784,-4.012000,,,
2026-09-11T16:28:42.834,9.154750,2.122192,11.376045,19.649928,0.000000,28.750499,-9.891227,2.090647,-0.177938,-0.374606,-1.793277,5.733188,-8.309353,-0.141374,0.018164,-0.373123,-0.716082,-4.091825,10.414662,-0.685954,-0.240565,1,0,,38.990765,-76.937784,-4.012000,,,
2026-09-11T16:28:42.867,9.188159,2.112859,11.447069,19.563513,0.000000,32.423366,-11.154828,2.072943,-0.203864,-0.429188,-1.806704,5.711178,-8.375633,-0.224548,-0.009890,-0.427704,1.259860,-2.955136,4.488406,-0.634173,-0.379900,1,0,,38.990765,-76.937784,-4.012000,,,
2026-09-11T16:28:42.899,9.221569,2.142494,11.518867,19.837910,0.000000,37.575954,-12.927507,2.088190,-0.224859,-0.473387,-1.821782,5.687472,-8.441363,-0.173013,0.007302,-0.471904,0.834252,-3.404084,12.451896,-0.598128,-0.540338,1,0,,38.990765,-76.937784,-4.012000,,,
2026-09-11T16:28:42.933,9.254978,2.152413,11.591281,19.929750,0.000000,37.849925,-13.021763,2.097063,-0.224999,-0.473682,-1.837602,5.662309,-8.507018,-0.078458,0.146812,-0.472199,0.037559,-0.462580,6.096991,-0.599530,-0.508421,1,0,,38.990765,-76.937784,-4.012000,,,
2026-09-11T16:28:42.967,9.288382,2.142866,11.662920,19.841355,0.000000,35.314830,-12.149597,2.094869,-0.203879,-0.429219,-1.852682,5.636446,-8.572474,-0.110880,0.046669,-0.427735,-0.061193,-2.245527,9.581293,-0.590102,-0.598260,1,0,,38.990765,-76.937784,-4.012000,,,
2026-09-11T16:28:43.001,9.321805,2.123866,11.733898,19.665428,0.000000,32.332042,-11.123409,2.083967,-0.190647,-0.401363,-1.866562,5.610236,-8.637539,-0.044421,0.027936,-0.399879,-1.114722,-0.942517,11.770726,-0.641361,-0.606897,1,0,,38.990765,-76.937784,-4.012000,,,
2026-09-11T16:28:43.034,9.355226,2.104888,11.803988,19.489703,0.000000,28.314479,-9.741220,2.074540,-0.173858,-0.366018,-1.879386,5.583742,-8.702069,-0.012549,0.005182,-0.364534,0.965563,-0.344606,14.644663,-0.557826,-0.581740,1,0,,38.990765,-76.937784,-4.012000,,,
2026-09-11T16:28:43.067,9.388628,2.075981,11.872574,19.222048,0.000000,28.433955,-9.782324,2.045797,-0.170113,-0.358133,-1.891480,5.556987,-8.765726,0.024077,0.026887,-0.356650,-0.250168,-1.138944,9.013782,-0.552152,-0.609967,1,1,9.371239,38.990748,-76.937780,-4.082000,8.782458,-5.617012,3.106175
2026-09-11T16:28:43.100,9.422038,2.037658,11.940316,18.867205,0.000000,28.222468,-9.709565,2.008469,-0.163172,-0.343520,-1.903201,5.529992,-8.828090,0.024173,0.034284,-0.342037,-0.424334,-2.219539,9.515981,-0.557486,-0.710550,1,0,,38.990748,-76.937780,-4.082000,,,
2026-09-11T16:28:43.135,9.455456,1.989647,12.007330,18.422653,0.000000,28.131831,-9.678382,1.961328,-0.161839,-0.340714,-1.914634,5.502871,-8.888864,0.059767,0.017950,-0.339231,-0.260072,0.601442,9.460377,-0.551867,-0.628931,1,0,,38.990748,-76.937780,-4.082000,,,
2026-09-11T16:28:43.168,9.488864,1.951507,12.072133,18.069514,0.000000,28.186763,-9.697281,1.923623,-0.175383,-0.369228,-1.926492,5.475346,-8.947897,0.064121,0.078937,-0.367745,-1.054313,-4.255792,7.135024,-0.598055,-0.859683,1,0,,38.990748,-76.937780,-4.082000,,,
2026-09-11T16:28:43.200,9.522273,1.893827,12.134680,17.535432,0.000000,28.913234,-9.947213,1.865357,-0.185675,-0.390896,-1.939190,5.447294,-9.004952,0.018398,0.146241,-0.389412,-0.617721,4.051519,6.106895,-0.616363,-0.549332,1,0,,38.990748,-76.937780,-4.082000,,,
2026-09-11T16:28:43.235,9.555680,1.816893,12.197091,16.823079,0.000000,30.636027,-10.539918,1.786237,-0.143567,-0.302246,-1.950768,5.419887,-9.059721,0.113752,0.238307,-0.300762,-0.681268,0.205744,-12.806701,-0.639494,-0.503421,1,0,,38.990748,-76.937780,-4.082000,,,
2026-09-11T16:28:43.268,9.589090,1.884920,12.261256,17.452963,0.000000,31.029475,-10.675278,1.852297,-0.177934,-0.374598,-1.962075,5.392045,-9.114012,-0.104061,0.025041,-0.373114,-1.014988,-3.110473,-2.204143,-0.685949,-0.662557,1,0,,38.990748,-76.937780,-4.082000,,,
2026-09-11T16:28:43.302,9.622513,1.865316,12.323553,17.271445,0.000000,30.620921,-10.534721,1.833875,-0.188861,-0.397603,-1.974979,5.362536,-9.168431,-0.158906,0.073632,-0.396119,1.760588,0.796202,12.681666,-0.554914,-0.564911,1,0,,38.990748,-76.937780,-4.082000,,,
2026-09-11T16:28:43.334,9.655919,1.856128,12.385599,17.186367,0.000000,28.650249,-9.856737,1.828729,-0.150855,-0.317590,-1.986925,5.332937,-9.222273,-0.023821,-0.008926,-0.316107,2.334571,-1.190527,11.275784,-0.390983,-0.606488,1,0,,38.990748,-76.937780,-4.082000,,,
2026-09-11T16:28:43.367,9.689318,1.836710,12.447349,17.006573,0.000000,27.679332,-9.522706,1.811400,-0.150964,-0.317818,-1.997536,5.303474,-9.275680,-0.117960,0.134746,-0.316335,1.552687,-1.402155,9.223351,-0.283844,-0.661609,1,0,,38.990748,-76.937780,-4.082000,,,
2026-09-11T16:28:43.401,9.722725,1.847046,12.509509,17.102281,0.000000,27.356608,-9.411677,1.822183,-0.156046,-0.328518,-2.008332,5.273397,-9.328646,-0.032313,0.109100,-0.327035,-0.033245,5.329620,6.598405,-0.287147,-0.279247,1,0,,38.990748,-76.937780,-4.082000,,,
2026-09-11T16:28:43.436,9.756147,1.866658,12.571874,17.283871,0.000000,27.516597,-9.466719,1.841237,-0.141392,-0.297667,-2.018797,5.242675,-9.381832,-0.047979,0.066160,-0.296183,-0.729811,-1.235148,10.773586,-0.340343,-0.329014,1,0,,38.990748,-76.937780,-4.082000,,,
2026-09-11T16:28:43.469,9.789557,1.866957,12.634126,17.286636,0.000000,27.044185,-9.304192,1.842395,-0.133309,-0.280650,-2.028457,5.211627,-9.435156,-0.072083,0.008985,-0.279166,0.833173,2.841477,9.667592,-0.294817,-0.116520,1,0,,38.990748,-76.937780,-4.082000,,,
2026-09-11T16:28:43.502,9.822978,1.867371,12.696263,17.290469,0.000000,27.291377,-9.389235,1.842353,-0.151447,-0.318837,-2.038475,5.179887,-9.488132,-0.005005,0.040686,-0.317353,0.052760,-0.622918,7.423830,-0.300281,-0.125927,1,0,,38.990748,-76.937780,-4.082000,,,
2026-09-11T16:28:43.535,9.856401,1.877717,12.758924,17.386266,0.000000,27.180827,-9.351202,1.852764,-0.142450,-0.299894,-2.048815,5.147391,-9.540869,0.012144,0.021995,-0.298410,0.525244,1.121979,7.104330,-0.277565,-0.024371,1,0,,38.990748,-76.937780,-4.082000,,,
2026-09-11T16:28:43.568,9.889800,1.868616,12.820856,17.301996,0.000000,26.471522,-9.107175,1.845060,-0.128652,-0.270847,-2.058346,5.114714,-9.593462,-0.000120,0.048054,-0.269363,-0.340977,-1.047154,9.501958,-0.317622,-0.067897,1,0,,38.990748,-76.937780,-4.082000,,,
2026-09-11T16:28:43.601,9.923206,1.849892,12.882401,17.128629,0.000000,25.062526,-8.622429,1.828984,-0.104047,-0.219047,-2.066529,5.082318,-9.645727,-0.062540,0.118604,-0.217563,2.611021,-3.977872,8.179237,-0.169559,-0.306913,1,0,,38.990748,-76.937780,-4.082000,,,
2026-09-11T16:28:43.636,9.956613,1.849807,12.943559,17.127846,0.000000,25.316585,-8.709834,1.828475,-0.105018,-0.221090,-2.073880,5.049994,-9.697686,0.070568,-0.060658,-0.219606,-0.633608,-1.528366,4.137720,-0.233517,-0.384619,1,0,,38.990748,-76.937780,-4.082000,,,
2026-09-11T16:28:43.669,9.990022,1.868837,13.006152,17.304048,0.000000,25.154536,-8.654084,1.847560,-0.125694,-0.264619,-2.081994,5.016801,-9.749490,-0.088977,-0.126439,-0.263135,2.495792,-6.934675,7.958587,-0.093699,-0.805683,1,0,,38.990748,-76.937780,-4.082000,,,
2026-09-11T16:28:43.702,10.023439,1.829885,13.068152,16.943376,0.000000,26.068461,-8.968507,1.807513,-0.143545,-0.302201,-2.091465,4.982763,-9.800392,-0.024954,0.150915,-0.300717,-7.698417,-0.905154,17.725030,-0.614462,-0.828379,1,0,,38.990748,-76.937780,-4.082000,,,
2026-09-11T16:28:43.735,10.056847,1.781869,13.127054,16.498788,0.000000,27.950557,-9.616017,1.756833,-0.161976,-0.341003,-2.102209,4.948460,-9.849319,0.062047,0.185833,-0.339519,1.407941,0.767567,10.173419,-0.540756,-0.739207,1,0,,38.990748,-76.937780,-4.082000,,,
2026-09-11T16:28:43.769,10.090255,1.821180,13.187710,16.862775,0.000000,28.654368,-9.858154,1.794289,-0.161626,-0.340266,-2.113589,4.913464,-9.897515,0.001267,-0.002997,-0.338783,2.527566,-3.531081,8.859818,-0.395238,-0.928315,1,0,,38.990748,-76.937780,-4.082000,,,
2026-09-11T16:28:43.803,10.123678,1.869882,13.250736,17.313725,0.000000,28.490947,-9.801931,1.842586,-0.179788,-0.378501,-2.125600,4.876888,-9.946387,0.004276,0.016921,-0.377017,1.379305,1.294086,10.029163,-0.325128,-0.797562,1,0,,38.990748,-76.937780,-4.082000,,,
2026-09-11T16:28:43.835,10.157103,1.899250,13.314537,17.585650,0.000000,28.668788,-9.863115,1.871179,-0.172008,-0.362122,-2.137978,4.838886,-9.995810,0.069975,0.010011,-0.360638,-0.359610,-0.354118,12.222028,-0.368557,-0.776193,1,0,,38.990748,-76.937780,-4.082000,,,
2026-09-11T16:28:43.868,10.190503,1.899672,13.377517,17.589555,0.000000,28.938640,-9.955954,1.871065,-0.158426,-0.333528,-2.149595,4.800368,-10.045332,0.086714,-0.032495,-0.332045,-0.867300,-1.404018,10.064467,-0.443562,-0.826430,1,0,,38.990748,-76.937780,-4.082000,,,
2026-09-11T16:28:43.902,10.223910,1.900230,13.440817,17.594724,0.000000,28.777278,-9.900440,1.871932,-0.158561,-0.333813,-2.160742,4.761461,-10.094556,0.061910,-0.037283,-0.332329,0.733439,-0.819738,9.043791,-0.411724,-0.838278,1,0,,38.990748,-76.937780,-4.082000,,,
2026-09-11T16:28:43.937,10.257331,1.920117,13.505711,17.778861,0.000000,28.674968,-9.865241,1.891725,-0.162874,-0.342893,-2.172050,4.721730,-10.143605,0.064838,-0.006900,-0.341410,0.037952,1.069121,9.029865,-0.423979,-0.726243,1,0,,38.990748,-76.937780,-4.082000,,,
2026-09-11T16:28:43.969,10.290739,1.910759,13.568987,17.692209,0.000000,28.789638,-9.904692,1.882279,-0.165899,-0.349260,-2.183612,4.681260,-10.192251,0.006617,0.011379,-0.347777,0.561627,-2.178449,9.270913,-0.406493,-0.824979,1,0,,38.990748,-76.937780,-4.082000,,,
2026-09-11T16:28:44.002,10.324149,1.930578,13.633175,17.875723,0.000000,28.879588,-9.935638,1.901624,-0.170109,-0.358124,-2.195429,4.640026,-10.240484,-0.014013,-0.018178,-0.356641,0.426491,-1.157381,10.607952,-0.396647,-0.855053,1,0,,38.990748,-76.937780,-4.082000,,,
2026-09-11T16:28:44.036,10.357557,1.920675,13.697683,17.784032,0.000000,29.996074,-10.319750,1.889605,-0.180107,-0.379172,-2.207745,4.597954,-10.288175,-0.025484,-0.026757,-0.377689,-0.405603,-0.868771,7.852381,-0.432034,-0.863830,1,0,,38.990748,-76.937780,-4.082000,,,
2026-09-11T16:28:44.069,10.390958,1.930513,13.761301,17.875118,0.000000,30.894893,-10.628977,1.897389,-0.185273,-0.390047,-2.220591,4.555131,-10.335114,-0.003416,0.002908,-0.388564,-0.409232,-0.883775,13.036667,-0.461055,-0.871954,1,1,10.373268,38.990731,-76.937783,-4.074000,8.535568,-7.496206,3.390301
2026-09-11T16:28:44.104,10.424383,1.901780,13.825147,17.609076,0.000000,30.940211,-10.644568,1.869054,-0.189822,-0.399626,-2.233788,4.511756,-10.381154,0.101762,0.023101,-0.398142,-1.073044,0.825818,11.694626,-0.529654,-0.768920,1,0,,38.990731,-76.937783,-4.074000,,,
2026-09-11T16:28:44.136,10.457813,1.902237,13.888925,17.613308,0.000000,31.073421,-10.690397,1.869222,-0.185191,-0.389875,-2.246985,4.468059,-10.426256,0.049503,0.001524,-0.388392,-0.359218,-0.762173,9.076349,-0.549848,-0.770964,1,0,,38.990731,-76.937783,-4.074000,,,
2026-09-11T16:28:44.169,10.491212,1.883150,13.951290,17.436577,0.000000,31.630977,-10.882217,1.849286,-0.186473,-0.392575,-2.260051,4.424069,-10.470519,0.059139,-0.002180,-0.391092,-0.174853,-3.284934,9.684852,-0.555713,-0.936292,1,0,,38.990731,-76.937783,-4.074000,,,
2026-09-11T16:28:44.202,10.524618,1.864087,14.013564,17.260062,0.000000,32.451518,-11.164513,1.828809,-0.192721,-0.405728,-2.273386,4.379825,-10.513608,0.015334,0.067345,-0.404245,-0.743540,-1.166403,12.304502,-0.595764,-0.961769,1,0,,38.990731,-76.937783,-4.074000,,,
2026-09-11T16:28:44.238,10.558036,1.864506,14.076317,17.263949,0.000000,34.416698,-11.840607,1.824834,-0.195860,-0.412337,-2.287054,4.335134,-10.555697,0.014410,0.051405,-0.410854,-0.245460,-0.245264,12.590072,-0.602588,-0.926701,1,0,,38.990731,-76.937783,-4.074000,,,
2026-09-11T16:28:44.271,10.591453,1.845906,14.137702,17.091722,0.000000,39.003490,-13.418632,1.795514,-0.196122,-0.412888,-2.300843,4.290197,-10.596716,-0.081168,-0.049720,-0.411404,0.199565,-1.411471,8.955825,-0.579490,-0.968191,1,0,,38.990731,-76.937783,-4.074000,,,
2026-09-11T16:28:44.304,10.624892,1.826801,14.198996,16.914828,0.000000,39.476588,-13.581395,1.775719,-0.211641,-0.445560,-2.315196,4.245016,-10.636337,-0.079683,-0.007008,-0.444077,-0.207411,1.561513,9.463810,-0.580195,-0.813553,1,0,,38.990731,-76.937783,-4.074000,,,
2026-09-11T16:28:44.336,10.658301,1.827498,14.259926,16.921279,0.000000,39.541820,-13.603837,1.776228,-0.217575,-0.458052,-2.330290,4.199251,-10.674773,-0.028429,0.150304,-0.456569,-0.581829,-2.130299,5.259699,-0.605156,-0.898108,1,0,,38.990731,-76.937783,-4.074000,,,
2026-09-11T16:28:44.370,10.691705,1.808641,14.320217,16.746676,0.000000,40.143321,-13.810776,1.756352,-0.211417,-0.445088,-2.345375,4.153148,-10.712281,0.048010,0.140018,-0.443605,-2.716736,-1.175327,-3.061734,-0.770258,-0.922014,1,0,,38.990731,-76.937783,-4.074000,,,
2026-09-11T16:28:44.405,10.725121,1.808827,14.381307,16.748398,0.000000,40.852626,-14.054802,1.754678,-0.227900,-0.479790,-2.360827,4.106594,-10.748712,0.008563,0.086741,-0.478307,-0.007943,-1.863362,6.693725,-0.759542,-0.986284,1,0,,38.990731,-76.937783,-4.074000,,,
2026-09-11T16:28:44.438,10.758543,1.799102,14.441165,16.658356,0.000000,41.489833,-14.274025,1.743560,-0.222980,-0.469431,-2.376690,4.059483,-10.784133,0.000593,-0.002887,-0.467948,0.006080,-3.547850,9.505978,-0.751283,-1.160370,1,0,,38.990731,-76.937783,-4.074000,,,
2026-09-11T16:28:44.470,10.791954,1.780100,14.500864,16.482409,0.000000,41.296199,-14.207408,1.725653,-0.243031,-0.511644,-2.393079,4.012004,-10.818259,0.066143,-0.011774,-0.510161,1.187389,-1.336352,10.587946,-0.671343,-1.185247,1,0,,38.990731,-76.937783,-4.074000,,,
2026-09-11T16:28:44.504,10.825362,1.799941,14.560837,16.666122,0.000000,41.397822,-14.242370,1.744618,-0.238960,-0.503073,-2.410029,3.963768,-10.851400,0.077228,0.004069,-0.501590,-0.471504,-2.059691,9.574723,-0.704150,-1.256975,1,0,,38.990731,-76.937783,-4.074000,,,
2026-09-11T16:28:44.537,10.858770,1.771035,14.620263,16.398468,0.000000,41.397822,-14.242370,1.716599,-0.234470,-0.493622,-2.426678,3.915196,-10.883737,0.050141,-0.027542,-0.492138,-1.513460,-0.598990,9.478127,-0.809957,-1.235387,1,0,,38.990731,-76.937783,-4.074000,,,
2026-09-11T16:28:44.572,10.892207,1.752062,14.679689,16.222795,0.000000,41.763118,-14.368045,1.697260,-0.227616,-0.479193,-2.442942,3.866780,-10.914927,0.083284,-0.007330,-0.477709,-0.487979,-0.010885,9.801453,-0.852718,-1.178153,1,0,,38.990731,-76.937783,-4.074000,,,
2026-09-11T16:28:44.604,10.925631,1.752339,14.737907,16.225360,0.000000,42.013057,-14.454033,1.696874,-0.236613,-0.498133,-2.459275,3.818111,-10.945072,0.072043,0.008934,-0.496650,1.219163,0.825818,7.447955,-0.789601,-1.065361,1,0,,38.990731,-76.937783,-4.074000,,,
2026-09-11T16:28:44.637,10.959038,1.762578,14.796603,16.320171,0.000000,42.587092,-14.651523,1.705263,-0.238789,-0.502714,-2.475993,3.768754,-10.974330,0.059149,-0.045991,-0.501230,0.381283,1.042741,7.526702,-0.789446,-0.939070,1,0,,38.990731,-76.937783,-4.074000,,,
2026-09-11T16:28:44.670,10.992439,1.753418,14.855368,16.235350,0.000000,42.775233,-14.716250,1.695898,-0.234541,-0.493770,-2.492635,3.718958,-11.002777,0.021214,-0.015401,-0.492287,0.947322,-2.628771,9.711035,-0.760778,-1.052912,1,0,,38.990731,-76.937783,-4.074000,,,
2026-09-11T16:28:44.705,11.025846,1.773483,14.914748,16.421135,0.000000,42.818492,-14.731133,1.715188,-0.237343,-0.499670,-2.509228,3.668570,-11.030511,0.046866,-0.010617,-0.498186,1.185428,1.853163,7.160522,-0.724268,-0.874361,1,0,,38.990731,-76.937783,-4.074000,,,
2026-09-11T16:28:44.739,11.059266,1.803124,14.975610,16.695592,0.000000,42.946208,-14.775072,1.743503,-0.233542,-0.491668,-2.525793,3.617070,-11.057894,0.004643,-0.028394,-0.490184,0.874557,1.166697,11.620096,-0.710384,-0.742123,1,0,,38.990731,-76.937783,-4.074000,,,
2026-09-11T16:28:44.771,11.092687,1.813086,15.036198,16.787837,0.000000,43.243526,-14.877360,1.752307,-0.243002,-0.511583,-2.542558,3.564560,-11.084694,-0.032008,0.015185,-0.510099,0.152886,-4.070152,7.017247,-0.745040,-0.947657,1,0,,38.990731,-76.937783,-4.074000,,,
2026-09-11T16:28:44.804,11.126096,1.851975,15.097834,17.147919,0.000000,44.303020,-15.241865,1.786831,-0.257297,-0.541677,-2.560152,3.510793,-11.110647,-0.112653,0.022194,-0.540194,0.437180,-2.807546,8.958473,-0.764648,-1.064551,1,0,,38.990731,-76.937783,-4.074000,,,
2026-09-11T16:28:44.838,11.159504,1.871701,15.160472,17.330569,0.000000,45.734675,-15.734407,1.801567,-0.265226,-0.558371,-2.578527,3.455678,-11.135765,-0.127676,0.031749,-0.556887,-0.742363,-3.490187,14.027629,-0.861293,-1.221840,1,0,,38.990731,-76.937783,-4.074000,,,
2026-09-11T16:28:44.872,11.192913,1.920608,15.225116,17.783405,0.000000,46.472819,-15.988355,1.846314,-0.250222,-0.526783,-2.596654,3.399323,-11.160496,-0.064029,-0.072269,-0.525299,2.368208,-4.280014,8.316334,-0.752589,-1.430646,1,0,,38.990731,-76.937783,-4.074000,,,
2026-09-11T16:28:44.905,11.226335,1.979188,15.291332,18.325811,0.000000,45.915263,-15.796536,1.904442,-0.271435,-0.571443,-2.615007,3.340976,-11.184987,-0.048298,-0.027988,-0.569959,1.742544,-2.280340,8.307508,-0.682438,-1.500337,1,0,,38.990731,-76.937783,-4.074000,,,
2026-09-11T16:28:44.938,11.259758,2.028072,15.359507,18.778448,0.000000,43.603328,-15.001145,1.958957,-0.279446,-0.588307,-2.634388,3.280298,-11.208880,0.006015,-0.065623,-0.586823,2.609452,3.736138,8.271223,-0.553703,-1.175767,1,0,,38.990731,-76.937783,-4.074000,,,
2026-09-11T16:28:44.971,11.293159,2.047791,15.427136,18.961027,0.000000,40.403560,-13.900307,1.987822,-0.250540,-0.527452,-2.653022,3.218158,-11.232579,0.002390,-0.001526,-0.525968,2.210027,1.673799,9.212956,-0.446303,-0.995105,1,0,,38.990731,-76.937783,-4.074000,,,
2026-09-11T16:28:45.004,11.326566,2.048484,15.496041,18.967444,0.000000,38.870280,-13.372803,1.992941,-0.226443,-0.476722,-2.669795,3.155503,-11.256229,0.025444,-0.030108,-0.475238,1.638985,2.799014,11.264311,-0.373458,-0.749997,1,0,,38.990731,-76.937783,-4.074000,,,
2026-09-11T16:28:45.039,11.359974,2.058729,15.564672,19.062306,0.000000,38.211101,-13.146021,2.004777,-0.204018,-0.429512,-2.684933,3.092572,-11.279697,-0.000596,0.009059,-0.428029,-0.264387,-2.317802,9.698973,-0.419005,-0.844308,1,0,,38.990731,-76.937783,-4.074000,,,
2026-09-11T16:28:45.072,11.393385,2.059485,15.633645,19.069305,0.000000,38.942378,-13.397607,2.003437,-0.214514,-0.451608,-2.699652,3.029224,-11.302481,-0.029463,-0.048415,-0.450124,-0.555841,0.467385,7.514640,-0.474304,-0.754596,1,1,11.371032,38.990718,-76.937794,-4.083000,7.561116,-8.988071,3.106708
2026-09-11T16:28:45.106,11.426809,2.059940,15.701980,19.073520,0.000000,40.319789,-13.871487,1.999864,-0.247286,-0.520602,-2.715900,2.965280,-11.323598,-0.098595,-0.063528,-0.519118,0.347057,-0.487489,11.268626,-0.463442,-0.718810,1,0,,38.990718,-76.937794,-4.083000,,,
2026-09-11T16:28:45.138,11.460217,2.030938,15.769153,18.804985,0.000000,42.866557,-14.747669,1.964032,-0.280319,-0.590145,-2.734454,2.901171,-11.342322,-0.112297,-0.063544,-0.588662,0.486998,-1.391368,7.699789,-0.435853,-0.734272,1,0,,38.990718,-76.937794,-4.083000,,,
2026-09-11T16:28:45.172,11.493618,2.021059,15.836440,18.713512,0.000000,43.951457,-15.120914,1.951085,-0.288988,-0.608395,-2.754470,2.837204,-11.358844,-0.089581,0.022590,-0.606912,-0.168871,0.175833,8.241607,-0.440974,-0.646407,1,0,,38.990718,-76.937794,-4.083000,,,
2026-09-11T16:28:45.206,11.527023,1.992433,15.902952,18.448457,0.000000,43.970683,-15.127529,1.923390,-0.283567,-0.596982,-2.774603,2.773518,-11.373783,-0.024789,0.031532,-0.595499,-0.140137,-0.754622,9.754675,-0.436998,-0.622189,1,0,,38.990718,-76.937794,-4.083000,,,
2026-09-11T16:28:45.240,11.560446,1.973441,15.970148,18.272606,0.000000,43.829921,-15.079101,1.905491,-0.277603,-0.584427,-2.794346,2.710295,-11.387367,-0.036895,-0.050180,-0.582944,0.367749,0.462384,9.512353,-0.395576,-0.521717,1,0,,38.990718,-76.937794,-4.083000,,,
2026-09-11T16:28:45.272,11.593854,1.973809,16.035475,18.276013,0.000000,43.919185,-15.109811,1.905571,-0.272403,-0.573481,-2.813687,2.647187,-11.399782,0.058388,0.048799,-0.571997,1.453247,-2.752236,20.122069,-0.280377,-0.631668,1,0,,38.990718,-76.937794,-4.083000,,,
2026-09-11T16:28:45.305,11.627263,1.935558,16.098775,17.921833,0.000000,45.794414,-15.754959,1.862842,-0.291853,-0.614428,-2.833531,2.584454,-11.410516,-0.046557,0.003826,-0.612945,4.089373,-3.075758,20.704094,0.004518,-0.757983,1,0,,38.990718,-76.937794,-4.083000,,,
2026-09-11T16:28:45.338,11.660671,1.897105,16.161960,17.565785,0.000000,47.160838,-16.225059,1.821546,-0.289192,-0.608824,-2.853964,2.522777,-11.419305,-0.032055,0.087438,-0.607341,0.468366,1.094030,7.627907,0.052392,-0.615496,1,0,,38.990718,-76.937794,-4.083000,,,
2026-09-11T16:28:45.374,11.694077,1.887823,16.225624,17.479846,0.000000,47.377132,-16.299472,1.811948,-0.288014,-0.606346,-2.874261,2.461770,-11.426659,-0.041070,0.042206,-0.604862,0.329307,-1.604172,12.362459,0.088079,-0.649771,1,0,,38.990718,-76.937794,-4.083000,,,
2026-09-11T16:28:45.406,11.727496,1.878663,16.287921,17.395025,0.000000,47.245296,-16.254115,1.803572,-0.277111,-0.583391,-2.894142,2.400944,-11.432907,-0.101636,-0.019276,-0.581907,1.055490,-0.062664,11.954012,0.167229,-0.586949,1,0,,38.990718,-76.937794,-4.083000,,,
2026-09-11T16:28:45.439,11.760903,1.840308,16.349375,17.039893,0.000000,46.414455,-15.968276,1.769299,-0.263681,-0.555118,-2.913158,2.340819,-11.438201,-0.121643,0.015143,-0.553634,-0.244774,-0.901427,10.481642,0.160530,-0.583624,1,0,,38.990718,-76.937794,-4.083000,,,
2026-09-11T16:28:45.473,11.794303,1.831389,16.410646,16.957307,0.000000,41.222041,-14.181895,1.775574,-0.243331,-0.512275,-2.930984,2.281196,-11.442828,-0.081249,0.021968,-0.510792,0.495334,0.971054,8.758712,0.199215,-0.463947,1,0,,38.990718,-76.937794,-4.083000,,,
2026-09-11T16:28:45.507,11.827812,1.782865,16.470664,16.508008,0.000000,39.968913,-13.750773,1.731766,-0.205323,-0.432259,-2.946809,2.222120,-11.447301,0.054371,0.027623,-0.430775,0.010885,-0.918295,10.683757,0.202777,-0.478227,1,0,,38.990718,-76.937794,-4.083000,,,
2026-09-11T16:28:45.540,11.861234,1.772982,16.529839,16.416499,0.000000,36.637996,-12.604815,1.730250,-0.191073,-0.402258,-2.960755,2.164046,-11.451596,0.089703,0.035531,-0.400775,0.426197,2.623965,8.355070,0.227567,-0.266501,1,0,,38.990718,-76.937794,-4.083000,,,
2026-09-11T16:28:45.573,11.894638,1.773223,16.588627,16.418735,0.000000,34.082301,-11.725562,1.736220,-0.173053,-0.364323,-2.973558,2.105972,-11.455654,0.020450,-0.004831,-0.362839,1.195823,2.355754,11.128390,0.294842,-0.078680,1,0,,38.990718,-76.937794,-4.083000,,,
2026-09-11T16:28:45.606,11.928045,1.753986,16.647346,16.240610,0.000000,33.421062,-11.498072,1.718786,-0.161261,-0.339496,-2.985314,2.048116,-11.459462,0.042066,0.013926,-0.338013,0.307438,0.065116,12.679018,0.297875,-0.044250,1,0,,38.990718,-76.937794,-4.083000,,,
2026-09-11T16:28:45.640,11.961453,1.773972,16.707046,16.425663,0.000000,33.641475,-11.573902,1.737901,-0.159381,-0.335540,-2.996590,1.990228,-11.462830,0.043673,0.011527,-0.334056,-0.808558,1.649577,7.216812,0.222404,0.092263,1,0,,38.990718,-76.937794,-4.083000,,,
2026-09-11T16:28:45.674,11.994862,1.754809,16.765560,16.248235,0.000000,33.717006,-11.599887,1.718969,-0.161786,-0.340603,-3.007885,1.932298,-11.465540,0.080298,-0.014245,-0.339119,-1.015184,1.369499,10.976584,0.125459,0.209312,1,0,,38.990718,-76.937794,-4.083000,,,
2026-09-11T16:28:45.708,12.028286,1.745322,16.823824,16.160393,0.000000,33.614696,-11.564689,1.709891,-0.166599,-0.350735,-3.019438,1.874765,-11.467408,-0.018185,-0.017855,-0.349251,-0.484841,2.678785,6.086988,0.057133,0.410780,1,0,,38.990718,-76.937794,-4.083000,,,
2026-09-11T16:28:45.740,12.061712,1.745706,16.882771,16.163946,0.000000,32.448085,-11.163332,1.712676,-0.156379,-0.329219,-3.030802,1.817324,-11.468694,-0.050970,-0.032303,-0.327736,-1.531897,0.541033,14.477852,-0.081346,0.469342,1,0,,38.990718,-76.937794,-4.083000,,,
2026-09-11T16:28:45.773,12.095115,1.775533,16.941650,16.440122,0.000000,31.426356,-10.811820,1.744015,-0.146650,-0.308736,-3.041457,1.759379,-11.469736,-0.002798,-0.022791,-0.307253,1.409902,-0.536620,7.446484,-0.033879,0.455865,1,0,,38.990718,-76.937794,-4.083000,,,
2026-09-11T16:28:45.806,12.128524,1.785434,17.001668,16.531798,0.000000,29.507182,-10.151554,1.757483,-0.148703,-0.313059,-3.051844,1.700685,-11.470368,-0.077048,-0.010501,-0.311575,0.754720,-0.802674,11.501239,-0.037626,0.426083,1,0,,38.990718,-76.937794,-4.083000,,,
2026-09-11T16:28:45.841,12.161942,1.795683,17.062165,16.626698,0.000000,28.788951,-9.904456,1.768920,-0.131432,-0.276700,-3.061698,1.641576,-11.470695,0.043323,0.034283,-0.275216,0.599971,-0.173774,10.920980,-0.059975,0.433391,1,0,,38.990718,-76.937794,-4.083000,,,
2026-09-11T16:28:45.875,12.195351,1.825129,17.123049,16.899340,0.000000,27.819408,-9.570897,1.799724,-0.126788,-0.266921,-3.070779,1.581808,-11.470880,0.042626,-0.034511,-0.265438,2.297698,0.133076,9.001818,0.019550,0.459880,1,0,,38.990718,-76.937794,-4.083000,,,
2026-09-11T16:28:45.908,12.228774,1.873580,17.185528,17.347962,0.000000,27.664226,-9.517509,1.847790,-0.131969,-0.277828,-3.079883,1.520701,-11.470597,0.065992,0.019404,-0.276345,1.468350,-0.368436,11.601856,0.039580,0.455763,1,0,,38.990718,-76.937794,-4.083000,,,
2026-09-11T16:28:45.940,12.262181,1.921910,17.249488,17.795467,0.000000,27.620280,-9.502390,1.895539,-0.143806,-0.302749,-3.089580,1.458015,-11.469548,0.013754,-0.003302,-0.301265,1.283102,-0.941733,13.060104,0.045965,0.418520,1,0,,38.990718,-76.937794,-4.083000,,,
2026-09-11T16:28:45.974,12.295583,1.951237,17.314815,18.067008,0.000000,27.662852,-9.517036,1.924381,-0.211336,-0.444918,-3.102067,1.394022,-11.466538,-0.102347,0.026211,-0.443435,-2.388017,2.271907,7.870523,-0.183783,0.607826,1,0,,38.990718,-76.937794,-4.083000,,,
2026-09-11T16:28:46.008,12.329002,1.932692,17.378889,17.895294,0.000000,27.574275,-9.486563,1.906261,-0.133072,-0.280151,-3.114183,1.329850,-11.462931,-0.210382,0.045596,-0.278667,4.145565,1.020186,7.825216,0.017926,0.693281,1,0,,38.990718,-76.937794,-4.083000,,,
2026-09-11T16:28:46.041,12.362421,2.000901,17.445994,18.526864,0.000000,28.352931,-9.754449,1.971974,-0.176373,-0.371312,-3.125068,1.264955,-11.459179,-0.222000,-0.062205,-0.369828,3.834204,-0.909076,6.147004,0.204313,0.665751,1,0,,38.990718,-76.937794,-4.083000,,,
2026-09-11T16:28:46.074,12.395823,2.069176,17.515127,19.159034,0.000000,28.269160,-9.725629,2.039438,-0.177782,-0.374278,-3.137521,1.197903,-11.453947,-0.179554,-0.021343,-0.372794,2.474904,4.953143,10.614032,0.305766,1.019801,1,1,12.370594,38.990709,-76.937812,-4.038000,5.986868,-9.951390,4.348184
2026-09-11T16:28:46.107,12.429230,2.118023,17.586310,19.611323,0.000000,25.070766,-8.625263,2.094069,-0.145877,-0.307109,-3.148902,1.128866,-11.448424,-0.041671,-0.032236,-0.305626,2.204437,-0.898387,10.029261,0.395297,0.983586,1,0,,38.990709,-76.937812,-4.038000,,,
2026-09-11T16:28:46.141,12.462640,2.177175,17.659043,20.159023,0.000000,14.628947,-5.032895,2.168780,-0.126436,-0.266181,-3.158479,1.057716,-11.443008,0.128415,-0.010596,-0.264698,1.647223,-0.058546,6.405410,0.457213,0.997859,1,0,,38.990709,-76.937812,-4.038000,,,
2026-09-11T16:28:46.176,12.496053,2.177652,17.732003,20.163441,0.000000,13.020824,-4.479641,2.170999,-0.064027,-0.134793,-3.165178,0.985289,-11.438360,0.135768,-0.034139,-0.133310,0.159848,-0.404034,4.869198,0.433642,0.971193,1,0,,38.990709,-76.937812,-4.038000,,,
2026-09-11T16:28:46.208,12.529471,2.168363,17.804166,20.077431,0.000000,12.119258,-4.169469,2.162624,-0.049439,-0.104082,-3.169169,0.912950,-11.434612,-0.004658,0.024222,-0.102598,0.620663,2.774988,15.546090,0.448155,1.146228,1,0,,38.990709,-76.937812,-4.038000,,,
2026-09-11T16:28:46.241,12.562877,2.149095,17.875464,19.899032,0.000000,12.827876,-4.413260,2.142723,-0.061275,-0.129001,-3.173062,0.841124,-11.430642,-0.097474,0.040469,-0.127517,0.212902,-3.288464,10.349154,0.441747,0.930231,1,0,,38.990709,-76.937812,-4.038000,,,
2026-09-11T16:28:46.274,12.596281,2.110205,17.945735,19.538934,0.000000,14.918025,-5.132348,2.101744,-0.099533,-0.209543,-3.178717,0.770369,-11.425529,-0.186827,0.032979,-0.208059,-0.228495,0.006178,11.259800,0.417053,0.940423,1,0,,38.990709,-76.937812,-4.038000,,,
2026-09-11T16:28:46.307,12.629689,2.091217,18.015073,19.363117,0.000000,18.605998,-6.401146,2.078179,-0.121074,-0.254893,-3.186475,0.700760,-11.418987,-0.206472,0.019351,-0.253410,-0.983117,-2.199926,8.219150,0.353422,0.813537,1,0,,38.990709,-76.937812,-4.038000,,,
2026-09-11T16:28:46.343,12.663111,2.062728,18.084274,19.099330,0.000000,20.814937,-7.161102,2.046637,-0.148266,-0.312139,-3.195950,0.632140,-11.411075,-0.147356,-0.008745,-0.310656,-0.680385,0.134449,6.345001,0.318516,0.846175,1,0,,38.990709,-76.937812,-4.038000,,,
2026-09-11T16:28:46.376,12.696519,2.033858,18.151812,18.832022,0.000000,21.490596,-7.393554,2.016948,-0.146521,-0.308466,-3.206317,0.564677,-11.402123,-0.066187,0.006370,-0.306982,-0.858964,-2.166093,7.219558,0.282700,0.728508,1,0,,38.990709,-76.937812,-4.038000,,,
2026-09-11T16:28:46.408,12.729925,1.995566,18.217504,18.477459,0.000000,21.139033,-7.272603,1.979511,-0.146118,-0.307617,-3.216607,0.498427,-11.392590,-0.038928,-0.037312,-0.306134,-0.421294,2.303484,10.022495,0.281792,0.900477,1,0,,38.990709,-76.937812,-4.038000,,,
2026-09-11T16:28:46.441,12.763334,1.947318,18.282899,18.030724,0.000000,18.621791,-6.406579,1.935157,-0.124340,-0.261768,-3.226119,0.433601,-11.382879,0.032770,0.009806,-0.260285,-0.814933,0.530344,10.539599,0.257513,0.949200,1,0,,38.990709,-76.937812,-4.038000,,,
2026-09-11T16:28:46.476,12.796733,1.938448,18.347178,17.948595,0.000000,13.211024,-4.545077,1.932352,-0.086652,-0.182425,-3.233537,0.369576,-11.373678,0.178497,0.155858,-0.180941,2.944839,-3.885199,20.351251,0.474333,0.701773,1,0,,38.990709,-76.937812,-4.038000,,,
2026-09-11T16:28:46.509,12.830156,1.861546,18.409065,17.236534,0.000000,9.330101,-3.209897,1.858625,-0.051946,-0.109360,-3.238413,0.306722,-11.365405,0.214000,0.243444,-0.107877,0.167890,0.153180,-0.442182,0.504117,0.708666,1,0,,38.990709,-76.937812,-4.038000,,,
2026-09-11T16:28:46.542,12.863576,1.823124,18.470496,16.880777,0.000000,6.210671,-2.136699,1.821856,-0.031047,-0.065362,-3.241332,0.245654,-11.357991,0.128093,-0.028642,-0.063879,-1.528661,-1.160715,7.952507,0.419267,0.624995,1,0,,38.990709,-76.937812,-4.038000,,,
2026-09-11T16:28:46.575,12.896976,1.842862,18.531858,17.063540,0.000000,2.831002,-0.973968,1.842596,-0.006406,-0.013487,-3.242649,0.184828,-11.351235,0.106643,0.021100,-0.012004,-0.593597,-0.348332,8.239351,0.390024,0.588754,1,0,,38.990709,-76.937812,-4.038000,,,
2026-09-11T16:28:46.608,12.930383,1.813495,18.592105,16.791616,0.000000,2.747231,-0.945148,1.813248,0.000053,0.000113,-3.242872,0.124085,-11.344962,-0.004990,0.018579,0.001596,0.074629,0.385990,7.667329,0.400538,0.598794,1,0,,38.990709,-76.937812,-4.038000,,,
2026-09-11T16:28:46.643,12.963789,1.813591,18.652601,16.792513,0.000000,2.732811,-0.940187,1.813347,-0.000859,-0.001809,-3.242901,0.063822,-11.338823,-0.013314,0.029274,-0.000325,0.049426,-1.170914,8.864525,0.407721,0.508226,1,0,,38.990709,-76.937812,-4.038000,,,
2026-09-11T16:28:46.676,12.997200,1.794669,18.712437,16.617302,0.000000,3.205223,-1.102714,1.794336,-0.021621,-0.045518,-3.243691,0.003904,-11.332331,-0.020196,-0.036866,-0.044034,0.454734,-0.986157,7.882782,0.437916,0.435679,1,0,,38.990709,-76.937812,-4.038000,,,
2026-09-11T16:28:46.710,13.030620,1.775603,18.771908,16.440770,0.000000,4.803047,-1.652425,1.774865,-0.034190,-0.071978,-3.245655,-0.055325,-11.325266,-0.057442,0.023129,-0.070495,0.327052,0.263112,2.419104,0.455095,0.447746,1,0,,38.990709,-76.937812,-4.038000,,,
2026-09-11T16:28:46.742,13.064030,1.805116,18.832337,16.714033,0.000000,6.719475,-2.311746,1.803646,-0.052923,-0.111417,-3.248718,-0.114617,-11.317518,-0.060470,0.014472,-0.109933,3.197851,-5.222237,22.439185,0.651730,0.109540,1,0,,38.990709,-76.937812,-4.038000,,,
2026-09-11T16:28:46.776,13.097436,1.795502,18.892173,16.625016,0.000000,11.736107,-4.037652,1.791045,-0.051364,-0.108135,-3.252386,-0.174113,-11.309257,0.033674,-0.072013,-0.106652,2.768515,1.057549,15.295726,0.813650,0.180863,1,0,,38.990709,-76.937812,-4.038000,,,
2026-09-11T16:28:46.810,13.130844,1.815301,18.952578,16.808347,0.000000,14.600793,-5.023208,1.808329,-0.074270,-0.156358,-3.256804,-0.233616,-11.300392,0.050696,-0.006512,-0.154874,1.410000,1.366066,9.884123,0.886418,0.277123,1,0,,38.990709,-76.937812,-4.038000,,,
2026-09-11T16:28:46.843,13.164266,1.835351,19.014579,16.993987,0.000000,15.651360,-5.384642,1.827251,-0.100218,-0.210986,-3.262942,-0.293600,-11.290327,-0.001508,0.049936,-0.209503,0.201919,-4.805062,12.954977,0.880299,-0.020353,1,0,,38.990709,-76.937812,-4.038000,,,
2026-09-11T16:28:46.876,13.197801,1.816390,19.074779,16.818426,0.000000,17.825967,-6.132787,1.805995,-0.093310,-0.196442,-3.269774,-0.353643,-11.279527,0.060269,0.050521,-0.194958,-1.152281,-1.232696,10.900386,0.782993,-0.085559,1,0,,38.990709,-76.937812,-4.038000,,,
2026-09-11T16:28:46.909,13.231207,1.797659,19.134684,16.644995,0.000000,20.054818,-6.899593,1.784641,-0.129189,-0.271978,-3.277598,-0.412603,-11.267945,-0.003884,-0.045388,-0.270494,-0.804538,3.205598,5.676776,0.707131,0.145731,1,0,,38.990709,-76.937812,-4.038000,,,
2026-09-11T16:28:46.944,13.264611,1.788412,19.194725,16.559368,0.000000,22.029611,-7.578995,1.772788,-0.119382,-0.251331,-3.286338,-0.470854,-11.255523,0.103514,-0.010883,-0.249848,2.623279,1.183270,7.348417,0.854496,0.241073,1,0,,38.990709,-76.937812,-4.038000,,,
2026-09-11T16:28:46.977,13.298024,1.827386,19.256383,16.920237,0.000000,25.519830,-8.779758,1.805973,-0.158341,-0.333350,-3.296106,-0.529278,-11.242020,-0.015270,0.159406,-0.331867,0.317245,0.538091,17.387485,0.852687,0.303768,1,0,,38.990709,-76.937812,-4.038000,,,
2026-09-11T16:28:47.010,13.331444,1.817586,19.316926,16.829497,0.000000,28.018533,-9.639404,1.791923,-0.163595,-0.344411,-3.307432,-0.587771,-11.227122,-0.041017,0.061547,-0.342928,0.175539,0.427668,8.753318,0.842027,0.359618,1,0,,38.990709,-76.937812,-4.038000,,,
2026-09-11T16:28:47.043,13.364854,1.798477,19.376853,16.652563,0.000000,30.204813,-10.391564,1.768978,-0.173155,-0.364537,-3.319275,-0.645417,-11.211415,-0.025685,0.020181,-0.363054,-0.550643,1.990162,13.435699,0.785296,0.517714,1,1,13.372380,38.990704,-76.937833,-4.042000,4.187048,-10.538684,4.011036
2026-09-11T16:28:47.076,13.398256,1.798760,19.436597,16.655183,0.000000,31.294519,-10.766463,1.767096,-0.177642,-0.373982,-3.331609,-0.702406,-11.194859,-0.113280,0.008171,-0.372499,0.136901,2.388998,9.101160,0.774796,0.700870,1,0,,38.990704,-76.937833,-4.042000,,,
2026-09-11T16:28:47.110,13.431664,1.789403,19.496137,16.568547,0.000000,31.161310,-10.720634,1.758171,-0.174827,-0.368057,-3.344004,-0.759013,-11.177606,-0.011305,0.032044,-0.366574,0.593695,-1.491101,11.164185,0.792550,0.630103,1,0,,38.990704,-76.937833,-4.042000,,,
2026-09-11T16:28:47.144,13.465073,1.818856,19.557203,16.841260,0.000000,30.889398,-10.627087,1.787660,-0.174937,-0.368289,-3.356304,-0.815749,-11.159623,-0.032233,0.004474,-0.366806,0.458559,1.873757,8.587291,0.798435,0.778558,1,0,,38.990704,-76.937833,-4.042000,,,
2026-09-11T16:28:47.177,13.498482,1.809575,19.617381,16.755321,0.000000,30.872232,-10.621181,1.778572,-0.168776,-0.355317,-3.368392,-0.872619,-11.140977,0.027119,0.001499,-0.353834,-0.358139,1.520815,9.850780,0.745750,0.900836,1,0,,38.990704,-76.937833,-4.042000,,,
2026-09-11T16:28:47.210,13.531906,1.771428,19.676442,16.402108,0.000000,30.776102,-10.588108,1.741266,-0.165148,-0.347680,-3.380140,-0.928571,-11.121987,-0.033954,-0.041476,-0.346197,-0.076198,0.604874,8.033412,0.704755,0.960801,1,0,,38.990704,-76.937833,-4.042000,,,
2026-09-11T16:28:47.243,13.565310,1.791530,19.736164,16.588241,0.000000,30.680658,-10.555272,1.761215,-0.162826,-0.342792,-3.391672,-0.984006,-11.102520,0.047245,-0.010675,-0.341309,0.361081,0.935064,9.952279,0.684776,1.041323,1,0,,38.990704,-76.937833,-4.042000,,,
2026-09-11T16:28:47.278,13.598711,1.782253,19.795225,16.502340,0.000000,30.367548,-10.447551,1.752705,-0.166238,-0.349974,-3.403242,-1.039387,-11.082353,-0.017491,-0.016060,-0.348491,-0.019907,-1.675957,10.435747,0.630138,0.952649,1,0,,38.990704,-76.937833,-4.042000,,,
2026-09-11T16:28:47.311,13.632131,1.782799,19.854902,16.507397,0.000000,30.387460,-10.454402,1.753204,-0.160175,-0.337211,-3.414725,-1.094448,-11.061614,0.010100,-0.033153,-0.335728,0.517889,-1.895920,7.331844,0.602486,0.849236,1,0,,38.990704,-76.937833,-4.042000,,,
2026-09-11T16:28:47.344,13.665550,1.802603,19.915034,16.690764,0.000000,30.686151,-10.557162,1.772089,-0.172594,-0.363356,-3.426431,-1.149541,-11.040046,-0.063474,-0.006502,-0.361872,-0.766586,-1.489042,11.916649,0.486185,0.776723,1,0,,38.990704,-76.937833,-4.042000,,,
2026-09-11T16:28:47.377,13.698951,1.802781,19.975007,16.692416,0.000000,30.309183,-10.427471,1.773008,-0.142678,-0.300376,-3.437515,-1.204763,-11.018049,-0.037666,0.041833,-0.298892,0.412566,0.531913,9.400851,0.444046,0.828587,1,0,,38.990704,-76.937833,-4.042000,,,
2026-09-11T16:28:47.411,13.732361,1.802710,20.034956,16.691756,0.000000,29.368478,-10.103834,1.774752,-0.142036,-0.299024,-3.447528,-1.259954,-10.995941,-0.001956,-0.030280,-0.297540,1.786968,0.793946,10.569804,0.488188,0.896723,1,0,,38.990704,-76.937833,-4.042000,,,
2026-09-11T16:28:47.445,13.765766,1.851559,20.096866,17.144064,0.000000,27.130701,-9.333957,1.827044,-0.141943,-0.298827,-3.457514,-1.315776,-10.973016,-0.009703,0.002373,-0.297344,2.513150,0.469052,9.640035,0.572687,0.944066,1,0,,38.990704,-76.937833,-4.042000,,,
2026-09-11T16:28:47.478,13.799176,1.929550,20.161578,17.866205,0.000000,25.799295,-8.875904,1.906444,-0.135934,-0.286178,-3.467286,-1.373496,-10.948938,-0.040139,-0.008184,-0.284694,2.027721,-0.423451,9.870099,0.623741,0.933111,1,0,,38.990704,-76.937833,-4.042000,,,
2026-09-11T16:28:47.512,13.832595,1.988142,20.228341,18.408720,0.000000,24.673196,-8.488485,1.966363,-0.127051,-0.267476,-3.476538,-1.433284,-10.923787,-0.047941,-0.043338,-0.265993,2.853441,0.160339,8.543357,0.732847,0.958792,1,0,,38.990704,-76.937833,-4.042000,,,
2026-09-11T16:28:47.544,13.866000,2.046868,20.296129,18.952479,0.000000,22.650339,-7.792548,2.027966,-0.122438,-0.257765,-3.485311,-1.494805,-10.897647,-0.030555,-0.037733,-0.256282,2.041156,-1.570731,10.818500,0.794570,0.871968,1,0,,38.990704,-76.937833,-4.042000,,,
2026-09-11T16:28:47.577,13.899402,2.086075,20.365900,19.315513,0.000000,19.456751,-6.693836,2.071855,-0.115361,-0.242865,-3.493672,-1.557818,-10.870568,-0.023967,-0.007465,-0.241381,1.626433,-1.949464,5.716394,0.836715,0.760351,1,0,,38.990704,-76.937833,-4.042000,,,
2026-09-11T16:28:47.611,13.932807,2.115833,20.436468,19.591046,0.000000,15.504419,-5.334089,2.106670,-0.110499,-0.232628,-3.501614,-1.621918,-10.842702,-0.068085,-0.202285,-0.231145,3.445861,2.016149,15.719864,1.005776,0.905683,1,0,,38.990704,-76.937833,-4.042000,,,
2026-09-11T16:28:47.646,13.966248,2.155142,20.508904,19.955015,0.000000,14.968149,-5.149593,2.146443,-0.105561,-0.222235,-3.509219,-1.687090,-10.814018,-0.096014,-0.114416,-0.220751,1.307913,0.955854,19.447960,1.044172,0.980041,1,0,,38.990704,-76.937833,-4.042000,,,
2026-09-11T16:28:47.678,13.999659,2.184688,20.581796,20.228591,0.000000,15.183756,-5.223769,2.175614,-0.089559,-0.188544,-3.516081,-1.753196,-10.784798,-0.005459,0.028174,-0.187061,-0.353432,-3.445763,8.125496,0.985639,0.764350,1,0,,38.990704,-76.937833,-4.042000,,,
2026-09-11T16:28:47.712,14.033077,2.204191,20.655987,20.409176,0.000000,14.956476,-5.145577,2.195308,-0.090242,-0.189983,-3.522406,-1.819976,-10.755074,-0.121258,0.007913,-0.188500,1.138258,-1.272413,8.298191,1.036489,0.692120,1,0,,38.990704,-76.937833,-4.042000,,,
2026-09-11T16:28:47.745,14.066484,2.184668,20.728242,20.228410,0.000000,15.285379,-5.258731,2.175473,-0.089937,-0.189341,-3.528742,-1.886538,-10.724935,-0.158205,-0.020036,-0.187858,-1.403822,0.187209,8.551203,0.932887,0.714817,1,0,,38.990704,-76.937833,-4.042000,,,
2026-09-11T16:28:47.778,14.099885,2.136150,20.799060,19.779165,0.000000,15.200922,-5.229675,2.127258,-0.100247,-0.211046,-3.535429,-1.951779,-10.694648,-0.219587,-0.040400,-0.209562,-0.345881,-1.116487,12.368539,0.909110,0.655322,1,0,,38.990704,-76.937833,-4.042000,,,
2026-09-11T16:28:47.813,14.133299,2.078239,20.869241,19.242957,0.000000,16.960794,-5.835136,2.067471,-0.106951,-0.225159,-3.542717,-2.015057,-10.664332,-0.107855,-0.000691,-0.223675,-2.210321,-2.554927,11.419942,0.772874,0.504459,1,0,,38.990704,-76.937833,-4.042000,,,
2026-09-11T16:28:47.846,14.166724,2.039968,20.937280,18.888593,0.000000,21.161691,-7.280398,2.023522,-0.144020,-0.303199,-3.551547,-2.076226,-10.633509,0.002962,0.045174,-0.301716,-2.139713,-0.426491,10.096633,0.649813,0.502573,1,0,,38.990704,-76.937833,-4.042000,,,
2026-09-11T16:28:47.878,14.200125,1.962913,21.002562,18.175119,0.000000,26.012155,-8.949136,1.939018,-0.160438,-0.337765,-3.562251,-2.134725,-10.602165,-0.004388,0.036099,-0.336281,-3.118809,-2.650541,3.903145,0.471249,0.359538,1,0,,38.990704,-76.937833,-4.042000,,,
2026-09-11T16:28:47.912,14.233530,1.905161,21.066112,17.640378,0.000000,28.090631,-9.664208,1.878124,-0.182885,-0.385021,-3.574324,-2.190392,-10.570565,0.038330,-0.041808,-0.383538,-6.471507,0.994100,-3.512938,0.084398,0.458242,1,0,,38.990704,-76.937833,-4.042000,,,
2026-09-11T16:28:47.946,14.266940,1.847307,21.128409,17.104699,0.000000,28.178522,-9.694446,1.820928,-0.160982,-0.338909,-3.586417,-2.243893,-10.539119,0.092355,0.088148,-0.337426,-3.302782,-1.663208,10.679148,-0.089751,0.377091,1,0,,38.990704,-76.937833,-4.042000,,,
2026-09-11T16:28:47.980,14.300351,1.848030,21.190272,17.111389,0.000000,27.955362,-9.617670,1.822055,-0.183671,-0.386675,-3.598538,-2.296157,-10.507419,0.158100,0.073197,-0.385192,1.807464,-0.998513,13.693614,0.065963,0.345497,1,0,,38.990704,-76.937833,-4.042000,,,
2026-09-11T16:28:48.013,14.333773,1.819735,21.250154,16.849397,0.000000,27.782327,-9.558140,1.794473,-0.162266,-0.341613,-3.610708,-2.347650,-10.475253,0.055148,-0.012503,-0.340129,0.911920,2.350752,10.273741,0.157197,0.525087,1,0,,38.990704,-76.937833,-4.042000,,,
2026-09-11T16:28:48.045,14.367181,1.810475,21.310992,16.763658,0.000000,27.467157,-9.449710,1.785907,-0.176437,-0.371447,-3.622619,-2.398244,-10.442869,0.099254,0.053703,-0.369963,-1.666934,0.233104,13.530137,0.075748,0.568870,1,1,14.370549,38.990703,-76.937855,-4.080000,2.304403,-10.615965,3.188314
2026-09-11T16:28:48.079,14.400584,1.800899,21.371079,16.674992,0.000000,27.807733,-9.566881,1.775853,-0.167324,-0.352262,-3.634706,-2.448125,-10.409955,-0.053008,-0.136813,-0.350778,-1.222693,-0.696076,12.687844,0.019074,0.549612,1,0,,38.990703,-76.937855,-4.080000,,,
2026-09-11T16:28:48.114,14.433998,1.781473,21.430892,16.495124,0.000000,29.016916,-9.982884,1.754501,-0.181144,-0.381357,-3.646963,-2.497121,-10.376608,-0.116561,0.018702,-0.379873,0.336858,-1.627414,6.946345,0.055658,0.473112,1,0,,38.990703,-76.937855,-4.080000,,,
2026-09-11T16:28:48.146,14.467419,1.781693,21.490705,16.497159,0.000000,30.633966,-10.539209,1.751636,-0.185113,-0.389711,-3.659848,-2.545204,-10.342578,-0.092954,0.132722,-0.388227,0.744717,2.614943,5.263131,0.110622,0.672893,1,0,,38.990703,-76.937855,-4.080000,,,
2026-09-11T16:28:48.179,14.500952,1.752917,21.549698,16.230710,0.000000,32.430231,-11.157189,1.719787,-0.168088,-0.353869,-3.672315,-2.592620,-10.308308,0.014673,-0.014784,-0.352385,2.855108,2.700555,22.466545,0.294559,0.871886,1,0,,38.990703,-76.937855,-4.080000,,,
2026-09-11T16:28:48.212,14.534361,1.782716,21.608828,16.506632,0.000000,32.758447,-11.270108,1.748340,-0.175776,-0.370054,-3.684408,-2.639465,-10.273746,0.005215,0.084360,-0.368571,1.941423,-7.125316,10.059466,0.409402,0.434681,1,0,,38.990703,-76.937855,-4.080000,,,
2026-09-11T16:28:48.247,14.567806,1.802168,21.669689,16.686737,0.000000,35.233806,-12.121722,1.761986,-0.199479,-0.419957,-3.697619,-2.686247,-10.237742,-0.068141,0.065834,-0.418473,0.774627,-0.610072,7.886900,0.445228,0.429866,1,0,,38.990703,-76.937855,-4.080000,,,
2026-09-11T16:28:48.280,14.601214,1.802445,21.729753,16.689302,0.000000,38.166469,-13.130666,1.755319,-0.183560,-0.386442,-3.711089,-2.732527,-10.200984,0.002301,-0.004502,-0.384959,-1.281043,-0.872007,7.535528,0.348947,0.404177,1,0,,38.990703,-76.937855,-4.080000,,,
2026-09-11T16:28:48.313,14.634625,1.773981,21.788654,16.425754,0.000000,38.033259,-13.084837,1.727922,-0.203145,-0.427673,-3.724689,-2.777796,-10.163864,0.145394,0.092691,-0.426190,-1.777946,4.013568,4.598142,0.222107,0.698798,1,0,,38.990703,-76.937855,-4.080000,,,
2026-09-11T16:28:48.346,14.668032,1.774547,21.848103,16.430992,0.000000,38.564036,-13.267444,1.727183,-0.190396,-0.400834,-3.738528,-2.822094,-10.126292,-0.015859,0.038252,-0.399350,1.135806,-0.815129,7.870719,0.282572,0.674714,1,0,,38.990703,-76.937855,-4.080000,,,
2026-09-11T16:28:48.380,14.701432,1.775147,21.906845,16.436547,0.000000,38.629268,-13.289886,1.727608,-0.177490,-0.373664,-3.751462,-2.866114,-10.088495,-0.023423,0.034819,-0.372180,1.034307,-1.574948,11.048662,0.333652,0.598730,1,0,,38.990703,-76.937855,-4.080000,,,
2026-09-11T16:28:48.414,14.734841,1.746159,21.965405,16.168141,0.000000,38.687633,-13.309965,1.699255,-0.195731,-0.412065,-3.764587,-2.909217,-10.050318,0.009297,-0.018496,-0.410582,1.384209,3.244530,6.938499,0.402709,0.838936,1,0,,38.990703,-76.937855,-4.080000,,,
2026-09-11T16:28:48.447,14.768263,1.775846,22.025036,16.443020,0.000000,38.813289,-13.353196,1.727836,-0.197617,-0.416037,-3.778426,-2.951621,-10.011268,0.064780,-0.089558,-0.414553,0.944184,-3.610416,10.594222,0.441629,0.634067,1,0,,38.990703,-76.937855,-4.080000,,,
2026-09-11T16:28:48.480,14.801664,1.805016,22.084575,16.713113,0.000000,38.734325,-13.326029,1.756415,-0.185213,-0.389921,-3.791886,-2.994331,-9.971235,0.035137,-0.092216,-0.388438,1.143455,-1.310953,9.375256,0.496771,0.578151,1,0,,38.990703,-76.937855,-4.080000,,,
2026-09-11T16:28:48.513,14.835069,1.785387,22.144480,16.531361,0.000000,39.032329,-13.428553,1.736575,-0.215761,-0.454235,-3.805985,-3.036421,-9.930290,0.047658,0.128489,-0.452751,0.428845,-4.988545,11.099559,0.506476,0.291675,1,0,,38.990703,-76.937855,-4.080000,,,
2026-09-11T16:28:48.547,14.868477,1.747023,22.203313,16.176135,0.000000,39.097560,-13.450995,1.699100,-0.203308,-0.428016,-3.820722,-3.076987,-9.889098,0.076409,0.044092,-0.426533,1.198275,-0.291061,9.507645,0.564036,0.308263,1,0,,38.990703,-76.937855,-4.080000,,,
2026-09-11T16:28:48.581,14.901883,1.757125,22.262351,16.269677,0.000000,38.796809,-13.347526,1.709661,-0.179712,-0.378341,-3.834191,-3.116998,-9.848085,0.030345,0.043333,-0.376858,-0.088750,-0.542504,9.743495,0.536926,0.303201,1,0,,38.990703,-76.937855,-4.080000,,,
2026-09-11T16:28:48.614,14.935303,1.757303,22.320911,16.271327,0.000000,39.112666,-13.456193,1.709062,-0.194124,-0.408681,-3.847342,-3.156699,-9.806540,-0.076543,0.023641,-0.407198,0.102970,0.286158,8.500600,0.525587,0.355159,1,0,,38.990703,-76.937855,-4.080000,,,
2026-09-11T16:28:48.647,14.968710,1.767507,22.379813,16.365802,0.000000,39.288447,-13.516668,1.718550,-0.204280,-0.430062,-3.861352,-3.195660,-9.764067,-0.083132,0.013152,-0.428579,1.088734,-1.085008,9.283956,0.579539,0.320450,1,0,,38.990703,-76.937855,-4.080000,,,
