timestamp,time_s,speed_mps,distance_m,wheel_omega_rad_s,motor_current_A,steer_motor_deg,steer_column_deg,vx_mps,vy_mps,yaw_rate_rad_s,heading_rad,x_m,y_m,gyro_x_rad_s,gyro_y_rad_s,gyro_z_rad_s,accel_x_mps2,accel_y_mps2,accel_z_mps2,grade_deg,bank_deg,moving,gps_new_fix,gps_time_s,gps_latitude_deg,gps_longitude_deg,gps_altitude_m,gps_east_m,gps_north_m,gps_sigma_m
2026-09-11T16:37:26.973,0.000010,1.339685,0.005924,12.404488,0.000000,-96.521483,33.206932,1.120912,0.368721,0.776254,0.000000,0.000000,0.000000,0.063233,0.004277,0.777737,1.136983,1.347532,7.702339,6.436783,1.587126,1,0,,,,,,,
2026-09-11T16:37:27.007,0.033430,1.359399,0.052134,12.587026,0.000000,-95.319853,32.793527,1.142748,0.371780,0.782694,0.026050,0.037658,0.012869,-0.003218,0.023171,0.784178,-1.035092,0.338133,9.621206,6.294864,1.520164,1,0,,,,,,,
2026-09-11T16:37:27.041,0.066846,1.369499,0.097706,12.680549,0.000000,-95.549193,32.872429,1.150217,0.368002,0.774741,0.052072,0.075454,0.026716,0.013511,0.054883,0.776225,-0.314597,-0.090025,10.079177,6.201488,1.426441,1,1,0.073009,38.990761,-76.937897,-4.286000,0.000000,0.000000,2.907101
2026-09-11T16:37:27.074,0.100260,1.350509,0.142275,12.504713,0.000000,-96.870299,33.326938,1.128417,0.384649,0.809788,0.078544,0.112614,0.041742,0.011105,0.000783,0.811271,-1.205532,0.950166,9.562661,6.051829,1.399660,1,0,,38.990761,-76.937897,-4.286000,,,
2026-09-11T16:37:27.107,0.133675,1.350867,0.187301,12.508027,0.000000,-100.205336,34.474313,1.113628,0.380797,0.801678,0.105468,0.148738,0.057914,0.039982,0.015974,0.803161,-0.805028,2.030173,11.783181,5.931110,1.444478,1,0,,38.990761,-76.937897,-4.286000,,,
2026-09-11T16:37:27.140,0.167090,1.341842,0.231323,12.424466,0.000000,-105.194502,36.190769,1.082941,0.398082,0.838066,0.132864,0.183624,0.075189,0.051557,0.024465,0.839550,-1.041368,0.008630,10.653847,5.795145,1.356923,1,0,,38.990761,-76.937897,-4.286000,,,
2026-09-11T16:37:27.174,0.200506,1.332839,0.275254,12.341105,0.000000,-106.794386,36.741188,1.068065,0.407971,0.858885,0.161216,0.217196,0.093770,0.095426,0.030534,0.860369,-0.018535,0.698233,9.656216,5.725510,1.314367,1,0,,38.990761,-76.937897,-4.286000,,,
2026-09-11T16:37:27.208,0.233920,1.274857,0.318365,11.804235,0.000000,-108.127165,37.199713,1.015466,0.400790,0.843768,0.189663,0.249114,0.113137,0.054539,0.007538,0.845252,-1.253682,0.788160,11.221259,5.573933,1.282028,1,0,,38.990761,-76.937897,-4.286000,,,
2026-09-11T16:37:27.241,0.267339,1.275496,0.361750,11.810150,0.000000,-108.028288,37.165696,1.016432,0.399508,0.841070,0.217816,0.279655,0.133101,0.065164,0.021613,0.842554,-0.463070,1.004691,9.300235,5.473516,1.264190,1,0,,38.990761,-76.937897,-4.286000,,,
2026-09-11T16:37:27.274,0.300754,1.276226,0.404678,11.816908,0.000000,-107.942458,37.136167,1.017411,0.389267,0.819509,0.245560,0.309701,0.153728,0.055357,-0.001613,0.820993,0.844156,3.612476,9.997488,5.459246,1.416790,1,0,,38.990761,-76.937897,-4.286000,,,
2026-09-11T16:37:27.307,0.334176,1.276863,0.447151,11.822807,0.000000,-107.854567,37.105929,1.018326,0.387421,0.815624,0.272884,0.339254,0.174992,0.024412,0.041762,0.817107,0.199565,1.441774,10.403973,5.403488,1.427343,1,0,,38.990761,-76.937897,-4.286000,,,
2026-09-11T16:37:27.340,0.367596,1.257441,0.488986,11.642977,0.000000,-107.327223,36.924503,1.005234,0.373469,0.786251,0.299652,0.368103,0.196734,0.187190,0.025927,0.787735,-2.087542,6.824154,10.276291,5.197678,1.789064,1,0,,38.990761,-76.937897,-4.286000,,,
2026-09-11T16:37:27.375,0.401014,1.247741,0.530913,11.553156,0.000000,-106.486769,36.635356,1.001249,0.370724,0.780471,0.325830,0.396175,0.218877,0.036602,0.067257,0.781955,-1.038622,-0.238400,10.361412,5.058291,1.689830,1,0,,38.990761,-76.937897,-4.286000,,,
2026-09-11T16:37:27.408,0.434431,1.267520,0.573568,11.736299,0.000000,-105.036574,36.136436,1.023668,0.373030,0.785326,0.351992,0.423948,0.241848,0.085036,0.088403,0.786810,0.199565,3.912853,12.175839,5.000700,1.859173,1,0,,38.990761,-76.937897,-4.286000,,,
2026-09-11T16:37:27.440,0.467843,1.267777,0.615950,11.738680,0.000000,-103.543120,35.622633,1.030539,0.348554,0.733798,0.377371,0.451712,0.265352,0.076882,0.073652,0.735282,-0.029812,-2.239447,11.288239,4.926810,1.631192,1,0,,38.990761,-76.937897,-4.286000,,,
2026-09-11T16:37:27.475,0.501257,1.277933,0.658787,11.832715,0.000000,-99.237166,34.141227,1.057690,0.352288,0.741658,0.402021,0.479531,0.289439,0.017074,0.051241,0.743142,0.516320,0.612327,10.353763,4.885980,1.588636,1,0,,38.990761,-76.937897,-4.286000,,,
2026-09-11T16:37:27.508,0.534676,1.278398,0.701807,11.837017,0.000000,-92.993498,31.993176,1.084223,0.347794,0.732199,0.426649,0.507580,0.314560,0.029563,0.088346,0.733682,0.082964,0.429139,9.501859,4.819028,1.534067,1,0,,38.990761,-76.937897,-4.286000,,,
2026-09-11T16:37:27.541,0.568095,1.288360,0.744645,11.929259,0.000000,-93.709670,32.239565,1.089727,0.341537,0.719026,0.450898,0.535570,0.340419,0.045436,0.057594,0.720510,-0.693134,1.120704,10.106832,4.704773,1.525570,1,0,,38.990761,-76.937897,-4.286000,,,
2026-09-11T16:37:27.575,0.601512,1.259461,0.786936,11.661674,0.000000,-93.971281,32.329569,1.064227,0.330141,0.695033,0.474525,0.562767,0.366521,0.057684,-0.000353,0.696517,-0.097282,0.046876,10.284136,4.632741,1.450459,1,0,,38.990761,-76.937897,-4.286000,,,
2026-09-11T16:37:27.608,0.634940,1.279207,0.830047,11.844506,0.000000,-94.466353,32.499892,1.078873,0.347481,0.731539,0.498368,0.589131,0.393277,0.058504,-0.016277,0.733022,-0.271252,2.323293,8.964553,4.548838,1.520432,1,0,,38.990761,-76.937897,-4.286000,,,
2026-09-11T16:37:27.641,0.668363,1.289281,0.873431,11.937791,0.000000,-95.196944,32.751242,1.084321,0.356698,0.750944,0.523143,0.614911,0.421213,0.042997,0.014298,0.752427,-1.266333,0.639099,10.797906,4.401686,1.478896,1,0,,38.990761,-76.937897,-4.286000,,,
2026-09-11T16:37:27.676,0.701782,1.241372,0.914719,11.494186,0.000000,-96.329909,33.141024,1.039435,0.342699,0.721471,0.547746,0.639474,0.449361,0.014964,0.002792,0.722954,-0.084631,1.526601,9.335343,4.337150,1.499478,1,0,,38.990761,-76.937897,-4.286000,,,
2026-09-11T16:37:27.709,0.735195,1.261336,0.956554,11.679035,0.000000,-98.293715,33.816645,1.047947,0.357178,0.751953,0.572362,0.662803,0.477791,0.010538,0.012766,0.753436,0.075021,1.444225,8.660645,4.287858,1.512029,1,0,,38.990761,-76.937897,-4.286000,,,
2026-09-11T16:37:27.742,0.768615,1.271676,0.998663,11.774775,0.000000,-102.385436,35.224347,1.038832,0.366034,0.770598,0.597804,0.685196,0.507119,0.019139,0.015485,0.772081,-0.030106,0.148571,10.159199,4.237757,1.439708,1,0,,38.990761,-76.937897,-4.286000,,,
2026-09-11T16:37:27.775,0.802032,1.281519,1.041591,11.865918,0.000000,-107.285338,36.910093,1.024676,0.394386,0.830286,0.624553,0.706137,0.537300,0.079045,0.020965,0.831770,-0.111207,3.485087,10.311300,4.186252,1.581042,1,0,,38.990761,-76.937897,-4.286000,,,
2026-09-11T16:37:27.809,0.835447,1.291875,1.085432,11.961804,0.000000,-113.576384,39.074444,1.002918,0.409409,0.861913,0.652825,0.725328,0.568268,0.108566,0.015184,0.863396,-0.180050,2.343789,9.629934,4.128852,1.646006,1,0,,38.990761,-76.937897,-4.286000,,,
2026-09-11T16:37:27.843,0.868866,1.311752,1.130365,12.145849,0.000000,-121.245528,41.712911,0.979207,0.437303,0.920637,0.682610,0.742571,0.599872,0.110783,-0.000309,0.922121,-0.146315,2.110391,9.460770,4.074566,1.692740,1,0,,38.990761,-76.937897,-4.286000,,,
2026-09-11T16:37:27.875,0.902283,1.341189,1.175026,12.418413,0.000000,-120.267744,41.376518,1.006404,0.440000,0.926316,0.713470,0.758559,0.632427,0.070644,0.035493,0.927800,-0.542308,0.677640,9.971794,3.997877,1.644150,1,0,,38.990761,-76.937897,-4.286000,,,
2026-09-11T16:37:27.908,0.935700,1.312106,1.218410,12.149128,0.000000,-119.316740,41.049337,0.989517,0.432901,0.911371,0.744175,0.773725,0.665510,0.001672,0.026305,0.912854,-0.545348,0.769234,10.529400,3.920423,1.604005,1,0,,38.990761,-76.937897,-4.286000,,,
2026-09-11T16:37:27.942,0.969114,1.282859,1.261157,11.878322,0.000000,-118.278532,40.692156,0.972694,0.408421,0.859834,0.773767,0.787843,0.698267,-0.000699,0.034393,0.861317,-0.323325,0.797967,10.956382,3.857845,1.570410,1,0,,38.990761,-76.937897,-4.286000,,,
2026-09-11T16:37:27.976,1.002529,1.244051,1.302718,11.518991,0.000000,-114.844618,39.510763,0.959792,0.383912,0.808236,0.801636,0.801244,0.730487,0.014830,0.046504,0.809719,-0.071294,-0.255757,8.675845,3.812821,1.472868,1,0,,38.990761,-76.937897,-4.286000,,,
2026-09-11T16:37:28.009,1.035946,1.205601,1.342548,11.162973,0.000000,-112.282744,38.629384,0.941816,0.368584,0.775966,0.828105,0.813894,0.762228,0.031019,0.032965,0.777450,-0.242911,0.997631,10.213038,3.757777,1.460494,1,0,,38.990761,-76.937897,-4.286000,,,
2026-09-11T16:37:28.042,1.069411,1.186613,1.382469,10.987154,0.000000,-109.120055,37.541303,0.940882,0.358438,0.754606,0.853716,0.825834,0.793815,0.056014,0.018650,0.756089,-0.494942,2.168152,9.082037,3.685195,1.525511,1,1,1.075125,38.990753,-76.937889,-4.566000,0.664040,-0.872880,3.424104
2026-09-11T16:37:28.076,1.102825,1.186947,1.422208,10.990251,0.000000,-106.449690,36.622600,0.952623,0.346591,0.729665,0.878514,0.837352,0.825547,0.043317,0.013667,0.731148,0.032656,1.265156,10.855079,3.645516,1.532193,1,0,,38.990753,-76.937889,-4.566000,,,
2026-09-11T16:37:28.110,1.136253,1.148258,1.460579,10.632021,0.000000,-105.462294,36.282899,0.925617,0.334546,0.704308,0.902481,0.848254,0.857108,0.055667,0.046250,0.705791,-0.365788,1.994280,11.148788,3.581940,1.588843,1,0,,38.990753,-76.937889,-4.566000,,,
2026-09-11T16:37:28.143,1.169668,1.148642,1.498860,10.635572,0.000000,-104.291563,35.880125,0.930681,0.326332,0.687014,0.925727,0.858442,0.888413,0.047780,0.035106,0.688498,-0.127486,1.108740,10.158415,3.535971,1.588301,1,0,,38.990753,-76.937889,-4.566000,,,
2026-09-11T16:37:28.176,1.203084,1.119672,1.535682,10.367330,0.000000,-104.031325,35.790593,0.908233,0.314378,0.661849,0.948263,0.868016,0.919507,0.030076,0.016211,0.663333,-0.437573,1.043526,9.615224,3.468597,1.586021,1,0,,38.990753,-76.937889,-4.566000,,,
2026-09-11T16:37:28.209,1.236499,1.110107,1.572686,10.278772,0.000000,-103.943434,35.760356,0.900817,0.319275,0.672158,0.970551,0.876696,0.950330,0.042242,0.011761,0.673641,-0.373928,0.502787,9.319260,3.402653,1.548459,1,0,,38.990753,-76.937889,-4.566000,,,
2026-09-11T16:37:28.243,1.269915,1.110705,1.609508,10.284303,0.000000,-104.230452,35.859100,0.900182,0.319300,0.672211,0.993013,0.884541,0.981275,0.032778,0.007182,0.673695,-0.140725,0.331759,10.143705,3.349983,1.500261,1,0,,38.990753,-76.937889,-4.566000,,,
2026-09-11T16:37:28.277,1.303330,1.072192,1.645510,9.927703,0.000000,-104.597807,35.985484,0.867581,0.317330,0.668064,1.015406,0.891425,1.011900,0.014054,0.015633,0.669547,-0.003530,1.019597,9.718586,3.304188,1.498800,1,0,,38.990753,-76.937889,-4.566000,,,
2026-09-11T16:37:28.310,1.336747,1.102099,1.682423,10.204623,0.000000,-105.023528,36.131948,0.890123,0.317372,0.668151,1.037732,0.897554,1.042516,0.006661,0.009297,0.669635,-0.095223,1.202295,9.238355,3.250363,1.508207,1,0,,38.990753,-76.937889,-4.566000,,,
2026-09-11T16:37:28.343,1.370195,1.063721,1.717696,9.849267,0.000000,-105.426588,36.270615,0.857606,0.319564,0.672766,1.060157,0.902895,1.073159,-0.036348,-0.000797,0.674249,-0.637138,0.892503,9.824302,3.159304,1.498587,1,0,,38.990753,-76.937889,-4.566000,,,
2026-09-11T16:37:28.376,1.403612,1.083876,1.754518,10.035892,0.000000,-106.554060,36.658507,0.869495,0.328551,0.691687,1.082955,0.907200,1.103677,-0.053203,0.019852,0.693170,-0.063155,0.652142,9.865882,3.101902,1.471932,1,0,,38.990753,-76.937889,-4.566000,,,
2026-09-11T16:37:28.410,1.437029,1.064724,1.790064,9.858556,0.000000,-108.578291,37.354917,0.846341,0.328416,0.691403,1.106064,0.910593,1.134183,-0.032224,0.010682,0.692887,-0.433454,0.718827,9.266892,3.013967,1.450944,1,0,,38.990753,-76.937889,-4.566000,,,
2026-09-11T16:37:28.444,1.470446,1.094252,1.826977,10.131963,0.000000,-110.200148,37.912895,0.863306,0.334187,0.703552,1.129372,0.913139,1.164712,-0.042611,0.016872,0.705035,0.390010,0.443359,9.431742,2.974147,1.410909,1,0,,38.990753,-76.937889,-4.566000,,,
2026-09-11T16:37:28.478,1.503863,1.104337,1.863891,10.225339,0.000000,-110.513945,38.020853,0.869982,0.334498,0.704207,1.152893,0.915045,1.195692,-0.038254,-0.017689,0.705691,0.461697,1.666738,9.406343,2.934121,1.450208,1,0,,38.990753,-76.937889,-4.566000,,,
2026-09-11T16:37:28.511,1.537280,1.104319,1.901077,10.225176,0.000000,-109.869185,37.799032,0.872595,0.336698,0.708839,1.176503,0.916243,1.226867,-0.034057,0.005459,0.710322,0.476505,0.815227,9.140288,2.887460,1.433543,1,0,,38.990753,-76.937889,-4.566000,,,
2026-09-11T16:37:28.545,1.570699,1.114058,1.938173,10.315348,0.000000,-107.099257,36.846075,0.891524,0.332817,0.700667,1.200056,0.916864,1.258391,-0.018690,0.007691,0.702150,1.091676,0.783944,9.883927,2.875235,1.414639,1,0,,38.990753,-76.937889,-4.566000,,,
2026-09-11T16:37:28.578,1.604114,1.143224,1.976544,10.585404,0.000000,-105.033141,36.135255,0.923298,0.322777,0.679530,1.223115,0.917263,1.290629,-0.034594,0.010941,0.681013,0.771097,0.640865,9.549128,2.837906,1.386503,1,0,,38.990753,-76.937889,-4.566000,,,
2026-09-11T16:37:28.611,1.637533,1.123836,2.014278,10.405886,0.000000,-102.903853,35.402702,0.916039,0.325544,0.685355,1.245922,0.917180,1.323213,-0.055539,0.022294,0.686839,0.557116,0.174755,8.952491,2.782997,1.328463,1,0,,38.990753,-76.937889,-4.566000,,,
2026-09-11T16:37:28.645,1.670948,1.172904,2.053652,10.860220,0.000000,-98.426924,33.862474,0.973953,0.320461,0.674654,1.268644,0.916641,1.356581,-0.025306,0.021518,0.676138,1.322231,1.597209,9.900696,2.776425,1.361291,1,0,,38.990753,-76.937889,-4.566000,,,
2026-09-11T16:37:28.678,1.704367,1.192511,2.093573,11.041771,0.000000,-93.606673,32.204131,1.009049,0.324583,0.683333,1.291335,0.915809,1.391415,0.005312,0.028344,0.684817,0.990570,0.658713,10.294433,2.747818,1.330878,1,0,,38.990753,-76.937889,-4.566000,,,
2026-09-11T16:37:28.712,1.737785,1.231580,2.135317,11.403519,0.000000,-93.786574,32.266023,1.041398,0.329287,0.693237,1.314336,0.914339,1.427344,-0.017153,0.002119,0.694720,1.000180,1.050096,8.835792,2.721496,1.324050,1,0,,38.990753,-76.937889,-4.566000,,,
2026-09-11T16:37:28.745,1.771207,1.280470,2.178155,11.856206,0.000000,-93.739195,32.249723,1.082933,0.340535,0.716915,1.337902,0.912070,1.464496,-0.023132,0.024280,0.718398,0.951245,1.747643,8.656428,2.692235,1.358952,1,0,,38.990753,-76.937889,-4.566000,,,
2026-09-11T16:37:28.778,1.804625,1.339010,2.223271,12.398238,0.000000,-93.748122,32.252794,1.132403,0.357421,0.752466,1.362454,0.908780,1.503163,-0.015209,-0.004023,0.753949,0.276155,1.086087,11.558020,2.619630,1.345714,1,0,,38.990753,-76.937889,-4.566000,,,
2026-09-11T16:37:28.812,1.838043,1.378156,2.269389,12.760700,0.000000,-93.748122,32.252794,1.165509,0.364080,0.766485,1.387834,0.904412,1.543166,-0.006012,-0.032302,0.767968,0.569864,0.895739,10.386125,2.567441,1.317625,1,0,,38.990753,-76.937889,-4.566000,,,
2026-09-11T16:37:28.847,1.871470,1.407662,2.316511,13.033906,0.000000,-93.610793,32.205548,1.191081,0.369255,0.777378,1.413637,0.898993,1.584055,0.017965,-0.035539,0.778862,1.041270,1.086087,9.219918,2.544702,1.300059,1,0,,38.990753,-76.937889,-4.566000,,,
2026-09-11T16:37:28.879,1.904886,1.427641,2.364179,13.218901,0.000000,-93.528395,32.177200,1.208363,0.371082,0.781224,1.439678,0.892507,1.625503,-0.001378,0.126526,0.782708,2.504520,-0.644689,17.416022,2.617883,1.169450,1,0,,38.990753,-76.937889,-4.566000,,,
2026-09-11T16:37:28.913,1.938305,1.428258,2.411938,13.224616,0.000000,-93.424712,32.141529,1.209359,0.370718,0.780458,1.465773,0.884958,1.667077,-0.071013,0.091005,0.781942,-0.246343,0.547407,0.761486,2.516841,1.117489,1,0,,38.990753,-76.937889,-4.566000,,,
2026-09-11T16:37:28.946,1.971719,1.428923,2.459971,13.230768,0.000000,-93.111601,32.033808,1.211348,0.374714,0.788871,1.491992,0.876269,1.708488,0.008756,0.051086,0.790355,-0.496216,2.212576,7.477080,2.405558,1.173164,1,0,,38.990753,-76.937889,-4.566000,,,
2026-09-11T16:37:28.979,2.005140,1.429388,2.508186,13.235073,0.000000,-92.994872,31.993648,1.212274,0.375694,0.790934,1.518391,0.866412,1.749719,0.013304,0.041613,0.792418,-0.721769,-0.094634,10.615797,2.286944,1.078613,1,0,,38.990753,-76.937889,-4.566000,,,
2026-09-11T16:37:29.013,2.038559,1.439568,2.556766,13.329330,0.000000,-92.875395,31.952544,1.221454,0.362572,0.763310,1.544361,0.855687,1.790839,-0.003076,0.017343,0.764794,0.398444,0.630666,11.134863,2.250406,1.033798,1,0,,38.990753,-76.937889,-4.566000,,,
2026-09-11T16:37:29.047,2.071978,1.449370,2.605345,13.420089,0.000000,-92.395430,31.787419,1.231976,0.365680,0.769853,1.569980,0.844077,1.831993,0.041036,0.001233,0.771337,-0.121897,1.944070,10.347977,2.188912,1.073481,1,1,2.079024,38.990752,-76.937877,-4.576000,1.738314,-0.963133,3.018883
2026-09-11T16:37:29.080,2.105397,1.478550,2.654563,13.690275,0.000000,-90.910902,31.276687,1.263672,0.371737,0.782605,1.595921,0.831243,1.873537,0.069898,-0.002534,0.784088,1.023716,1.371754,10.446730,2.209172,1.073043,1,0,,38.990752,-76.937877,-4.576000,,,
2026-09-11T16:37:29.113,2.138812,1.488429,2.704237,13.781746,0.000000,-88.601714,30.482241,1.282708,0.368244,0.775250,1.621949,0.817264,1.915575,0.091965,0.004871,0.776734,0.253600,0.272821,9.684655,2.184477,1.001109,1,0,,38.990752,-76.937877,-4.576000,,,
2026-09-11T16:37:29.147,2.172228,1.498608,2.754092,13.876001,0.000000,-86.162749,29.643148,1.302474,0.359142,0.756089,1.647535,0.802372,1.957902,0.084593,0.014597,0.757573,0.168478,0.838567,10.877634,2.157624,0.967223,1,0,,38.990752,-76.937877,-4.576000,,,
2026-09-11T16:37:29.180,2.205647,1.479726,2.803401,13.701168,0.000000,-83.317290,28.664205,1.298380,0.347611,0.731812,1.672397,0.786741,2.000136,0.112004,0.002848,0.733296,0.884364,1.079320,9.119890,2.179395,0.951539,1,0,,38.990752,-76.937877,-4.576000,,,
2026-09-11T16:37:29.213,2.239065,1.470369,2.852436,13.614531,0.000000,-82.058669,28.231193,1.295463,0.341075,0.718053,1.696622,0.770392,2.041888,0.087446,0.023588,0.719536,-0.528186,1.191900,10.635018,2.111832,0.944611,1,0,,38.990752,-76.937877,-4.576000,,,
2026-09-11T16:37:29.247,2.272482,1.451106,2.900651,13.436168,0.000000,-82.058669,28.231193,1.278491,0.342025,0.720052,1.720651,0.753182,2.082917,0.082890,0.039421,0.721536,-0.616152,1.042937,10.249813,2.042822,0.928739,1,0,,38.990752,-76.937877,-4.576000,,,
2026-09-11T16:37:29.280,2.305906,1.432139,2.948137,13.260548,0.000000,-82.257109,28.299464,1.260972,0.341658,0.719279,1.744705,0.735070,2.122957,0.059744,0.010762,0.720763,-0.697743,-0.041580,9.533927,1.973858,0.843694,1,0,,38.990752,-76.937877,-4.576000,,,
2026-09-11T16:37:29.313,2.339320,1.403383,2.994985,12.994286,0.000000,-83.265791,28.646488,1.231601,0.345656,0.727697,1.768880,0.716092,2.161757,0.011581,0.006509,0.729181,-0.260955,0.075903,8.674865,1.937990,0.767921,1,0,,38.990752,-76.937877,-4.576000,,,
2026-09-11T16:37:29.347,2.372745,1.394105,3.041742,12.908382,0.000000,-85.468550,29.404318,1.214512,0.348553,0.733795,1.793305,0.696217,2.199312,0.042839,0.007839,0.735279,-0.318226,1.338510,10.235593,1.903216,0.775045,1,0,,38.990752,-76.937877,-4.576000,,,
2026-09-11T16:37:29.380,2.406189,1.375382,3.087678,12.735017,0.000000,-86.470366,29.748979,1.194117,0.339992,0.715773,1.817545,0.675660,2.235809,0.004102,0.011854,0.717256,-0.208686,0.929572,9.382611,1.878149,0.757964,1,0,,38.990752,-76.937877,-4.576000,,,
2026-09-11T16:37:29.414,2.439606,1.366108,3.133342,12.649150,0.000000,-86.716872,29.833786,1.185061,0.324802,0.683793,1.840929,0.654764,2.271403,0.062610,0.025700,0.685277,1.592894,5.972936,10.679540,1.969354,1.070467,1,0,,38.990752,-76.937877,-4.576000,,,
2026-09-11T16:37:29.447,2.473027,1.347356,3.178093,12.475514,0.000000,-87.054015,29.949776,1.167434,0.342868,0.721828,1.864418,0.633118,2.306055,0.101401,0.046381,0.723311,0.547701,0.179266,10.793493,1.992432,1.002315,1,0,,38.990752,-76.937877,-4.576000,,,
2026-09-11T16:37:29.480,2.506444,1.328648,3.222298,12.302296,0.000000,-87.442656,30.083483,1.149674,0.316401,0.666107,1.887608,0.610981,2.339675,0.164737,0.032090,0.667591,-0.222121,3.680436,11.224103,1.964759,1.166596,1,0,,38.990752,-76.937877,-4.576000,,,
2026-09-11T16:37:29.514,2.539861,1.299945,3.265409,12.036525,0.000000,-87.820311,30.213410,1.123356,0.316559,0.666440,1.909873,0.588742,2.372222,0.179958,0.018482,0.667924,0.674698,1.540625,10.878027,1.992205,1.191622,1,0,,38.990752,-76.937877,-4.576000,,,
2026-09-11T16:37:29.547,2.573276,1.270862,3.307973,11.767240,0.000000,-87.725554,30.180810,1.098588,0.311223,0.655206,1.931954,0.566161,2.403496,0.111111,0.026360,0.656689,0.046484,-2.065182,10.306593,1.974578,0.984778,1,0,,38.990752,-76.937877,-4.576000,,,
2026-09-11T16:37:29.580,2.606697,1.270781,3.350446,11.766490,0.000000,-86.383849,29.719214,1.103629,0.303831,0.639643,1.953592,0.543211,2.434043,0.109820,0.048719,0.641127,-2.099408,1.633200,11.154280,1.814615,1.020579,1,0,,38.990752,-76.937877,-4.576000,,,
2026-09-11T16:37:29.614,2.640115,1.231870,3.391370,11.406208,0.000000,-83.342009,28.672710,1.080812,0.258472,0.544151,1.973372,0.520565,2.464176,-0.021203,0.009812,0.545635,0.699999,0.567315,7.922498,1.836151,0.994595,1,0,,38.990752,-76.937877,-4.576000,,,
2026-09-11T16:37:29.647,2.673532,1.251650,3.433569,11.589352,0.000000,-80.600233,27.729438,1.107904,0.297237,0.625762,1.992919,0.497402,2.493951,-0.084625,0.012602,0.627246,-0.252227,2.036743,10.219020,1.794916,1.057229,1,0,,38.990752,-76.937877,-4.576000,,,
2026-09-11T16:37:29.681,2.706961,1.252006,3.475131,11.592649,0.000000,-80.455351,27.679593,1.108725,0.287576,0.605423,2.013498,0.473001,2.523494,-0.114613,-0.039270,0.606907,-0.030008,0.839449,9.743005,1.765125,1.043072,1,0,,38.990752,-76.937877,-4.576000,,,
2026-09-11T16:37:29.714,2.740376,1.232937,3.516237,11.416080,0.000000,-80.589247,27.725658,1.091377,0.291003,0.612637,2.033849,0.448229,2.552316,-0.103250,-0.021564,0.614121,-0.001667,1.983297,9.520394,1.732637,1.103304,1,0,,38.990752,-76.937877,-4.576000,,,
2026-09-11T16:37:29.748,2.773904,1.243001,3.558254,11.509272,0.000000,-81.209288,27.938975,1.098126,0.298100,0.627579,2.054640,0.422705,2.580478,-0.032271,-0.001399,0.629062,-0.016671,0.456696,9.460475,1.696830,1.062564,1,0,,38.990752,-76.937877,-4.576000,,,
2026-09-11T16:37:29.781,2.807324,1.262650,3.600453,11.691207,0.000000,-83.260985,28.644834,1.108112,0.308124,0.648683,2.075966,0.396292,2.608116,0.053824,0.008220,0.650166,0.627037,0.517595,10.648257,1.700433,1.024430,1,0,,38.990752,-76.937877,-4.576000,,,
2026-09-11T16:37:29.815,2.840741,1.272644,3.642562,11.783743,0.000000,-84.058867,28.919335,1.113947,0.307847,0.648099,2.097633,0.369023,2.635329,0.105929,-0.003898,0.649583,0.850825,0.251246,8.692419,1.714672,0.969277,1,0,,38.990752,-76.937877,-4.576000,,,
2026-09-11T16:37:29.848,2.874175,1.273107,3.684944,11.788028,0.000000,-83.920165,28.871616,1.114865,0.310693,0.654091,2.119402,0.341060,2.662032,0.160440,0.004095,0.655575,0.495922,0.254385,9.072034,1.702973,0.914440,1,0,,38.990752,-76.937877,-4.576000,,,
2026-09-11T16:37:29.881,2.907587,1.254166,3.726597,11.612648,0.000000,-82.614165,28.422304,1.102993,0.291648,0.613997,2.140587,0.312875,2.688104,0.147442,0.014003,0.615480,-0.226534,-1.126588,10.306593,1.645163,0.774225,1,0,,38.990752,-76.937877,-4.576000,,,
2026-09-11T16:37:29.916,2.941004,1.225447,3.768340,11.346730,0.000000,-76.573744,26.344178,1.098178,0.259696,0.546728,2.159981,0.285026,2.713837,0.089899,0.009871,0.548211,1.193960,0.926532,10.323461,1.680714,0.773433,1,0,,38.990752,-76.937877,-4.576000,,,
2026-09-11T16:37:29.948,2.974421,1.226234,3.809173,11.354022,0.000000,-66.787672,22.977410,1.128943,0.231080,0.486484,2.177245,0.257299,2.739980,-0.005651,0.008245,0.487967,-0.025399,1.371166,10.380437,1.633403,0.804748,1,0,,38.990752,-76.937877,-4.576000,,,
2026-09-11T16:37:29.981,3.007841,1.226771,3.850005,11.358986,0.000000,-63.637342,21.893581,1.138293,0.220216,0.463613,2.193120,0.229298,2.766589,-0.039894,0.004936,0.465097,0.984097,-0.143962,11.180464,1.648377,0.739020,1,0,,38.990752,-76.937877,-4.576000,,,
2026-09-11T16:37:30.016,3.041255,1.188177,3.889744,11.001636,0.000000,-54.625119,18.793046,1.124833,0.185667,0.390878,2.207396,0.201556,2.793164,-0.075159,0.001981,0.392361,0.883971,-1.195627,9.429290,1.656109,0.611662,1,0,,38.990752,-76.937877,-4.576000,,,
2026-09-11T16:37:30.049,3.074673,1.179091,3.930303,10.917509,0.000000,-47.821149,16.452230,1.130815,0.165545,0.348517,2.219751,0.174266,2.819815,-0.101250,-0.005843,0.350000,0.568197,-1.268098,10.076823,1.641293,0.483969,1,1,3.083144,38.990757,-76.937864,-4.641000,2.826994,-0.464424,4.696185
2026-09-11T16:37:30.082,3.108094,1.198884,3.970224,11.100781,0.000000,-40.099819,13.795809,1.164299,0.146175,0.307737,2.230717,0.146784,2.847072,-0.072384,0.002142,0.309221,1.099718,1.343609,9.003191,1.657696,0.529064,1,0,,38.990757,-76.937864,-4.641000,,,
2026-09-11T16:37:30.116,3.141510,1.189243,4.009689,11.011510,0.000000,-39.467418,13.578240,1.156004,0.131115,0.276031,2.240471,0.119222,2.874727,-0.045713,0.001801,0.277515,-0.047268,1.337431,9.916485,1.595853,0.575792,1,0,,38.990757,-76.937864,-4.641000,,,
2026-09-11T16:37:30.149,3.174931,1.189162,4.049610,11.010760,0.000000,-36.977642,12.721666,1.159970,0.122779,0.258482,2.249403,0.091749,2.902314,-0.035265,0.009207,0.259966,0.832290,0.818953,9.980620,1.587737,0.589692,1,0,,38.990757,-76.937864,-4.641000,,,
2026-09-11T16:37:30.182,3.208344,1.199244,4.089805,11.104115,0.000000,-34.752910,11.956276,1.173228,0.122625,0.258157,2.258034,0.063969,2.929964,-0.034091,-0.012819,0.259641,0.263210,0.725398,10.033968,1.542297,0.597183,1,0,,38.990757,-76.937864,-4.641000,,,
2026-09-11T16:37:30.215,3.241762,1.218848,4.130455,11.285629,0.000000,-31.549022,10.854021,1.197043,0.108265,0.227927,2.266156,0.035746,2.958015,-0.004888,-0.012841,0.229411,1.321544,0.613308,8.825887,1.566538,0.599280,1,0,,38.990757,-76.937864,-4.641000,,,
2026-09-11T16:37:30.249,3.275174,1.238663,4.171561,11.469104,0.000000,-29.683406,10.212181,1.219040,0.101767,0.214247,2.273543,0.007086,2.986653,0.012179,0.003674,0.215731,1.346551,-0.138568,9.903834,1.591886,0.553449,1,0,,38.990757,-76.937864,-4.641000,,,
2026-09-11T16:37:30.282,3.308587,1.238758,4.213396,11.469984,0.000000,-26.700618,9.185993,1.222872,0.092109,0.193914,2.280362,-0.021852,3.015592,-0.006447,0.007563,0.195398,0.250070,0.912999,9.174317,1.547945,0.577738,1,0,,38.990757,-76.937864,-4.641000,,,
2026-09-11T16:37:30.316,3.342006,1.277732,4.256324,11.830852,0.000000,-22.704339,7.811126,1.265877,0.079374,0.167104,2.286394,-0.051210,3.045184,-0.064128,0.039290,0.168588,1.889938,-2.212184,9.758892,1.615765,0.401130,1,0,,38.990757,-76.937864,-4.641000,,,
2026-09-11T16:37:30.349,3.375422,1.287656,4.298980,11.922745,0.000000,-15.611291,5.370857,1.282003,0.068637,0.144499,2.291601,-0.081086,3.075611,-0.062338,0.011191,0.145982,1.283396,-1.078339,9.174121,1.647044,0.301585,1,0,,38.990757,-76.937864,-4.641000,,,
2026-09-11T16:37:30.383,3.408843,1.317078,4.343458,12.195164,0.000000,-13.179192,4.534126,1.312956,0.044997,0.094731,2.295598,-0.111195,3.106875,-0.067643,-0.032456,0.096215,1.275061,-1.036171,11.253818,1.679106,0.209804,1,0,,38.990757,-76.937864,-4.641000,,,
2026-09-11T16:37:30.416,3.442262,1.327259,4.387389,12.289437,0.000000,-6.347070,2.183625,1.326295,0.018401,0.038738,2.297829,-0.141263,3.139154,-0.083947,0.169571,0.040222,-0.311557,-0.390501,3.960710,1.612394,0.165559,1,0,,38.990757,-76.937864,-4.641000,,,
2026-09-11T16:37:30.449,3.475675,1.347410,4.432141,12.476023,0.000000,-0.101342,0.034865,1.347410,0.004370,0.009201,2.298629,-0.171250,3.172264,-0.019663,-0.145977,0.010685,-1.978492,0.510534,9.430565,1.444930,0.182639,1,0,,38.990757,-76.937864,-4.641000,,,
2026-09-11T16:37:30.482,3.509093,1.357731,4.476983,12.571579,0.000000,5.965858,-2.052474,1.356859,-0.021088,-0.044396,2.298041,-0.201091,3.206195,0.006572,-0.016759,-0.042913,2.354479,1.119331,14.244454,1.566981,0.243633,1,0,,38.990757,-76.937864,-4.641000,,,
2026-09-11T16:37:30.516,3.542515,1.348672,4.521644,12.487706,0.000000,8.244147,-2.836289,1.347020,-0.038088,-0.080186,2.295960,-0.230355,3.240635,0.089274,-0.002728,-0.078702,-0.312734,-0.656947,6.311364,1.519689,0.192081,1,0,,38.990757,-76.937864,-4.641000,,,
2026-09-11T16:37:30.550,3.575930,1.319754,4.566213,12.219941,0.000000,8.224921,-2.829675,1.318144,-0.037381,-0.078696,2.293305,-0.258901,3.274834,0.118863,-0.038875,-0.077213,-0.073256,-1.265646,10.392892,1.492677,0.101442,1,0,,38.990757,-76.937864,-4.641000,,,
2026-09-11T16:37:30.583,3.609349,1.310741,4.610418,12.136494,0.000000,9.510322,-3.271900,1.308605,-0.044116,-0.092876,2.290438,-0.286854,3.308699,0.052369,-0.001246,-0.091393,-0.302927,-0.186817,10.002783,1.456728,0.082772,1,0,,38.990757,-76.937864,-4.641000,,,
2026-09-11T16:37:30.616,3.642763,1.291933,4.653985,11.962342,0.000000,11.119819,-3.825626,1.289054,-0.060672,-0.127731,2.286752,-0.314081,3.342540,-0.030175,0.009153,-0.126248,-0.293611,0.338427,8.850110,1.424134,0.101088,1,0,,38.990757,-76.937864,-4.641000,,,
2026-09-11T16:37:30.650,3.676181,1.282185,4.696549,11.872083,0.000000,12.556968,-4.320058,1.278542,-0.053473,-0.112575,2.282737,-0.340733,3.376213,-0.032586,0.039813,-0.111092,-0.053054,0.121897,11.045917,1.406916,0.103850,1,0,,38.990757,-76.937864,-4.641000,,,
2026-09-11T16:37:30.683,3.709598,1.243393,4.738019,11.512903,0.000000,15.000053,-5.160569,1.238353,-0.051483,-0.108386,2.279045,-0.366819,3.409245,-0.036636,0.049113,-0.106902,0.032852,-0.753151,9.073407,1.395967,0.049325,1,0,,38.990757,-76.937864,-4.641000,,,
2026-09-11T16:37:30.717,3.743012,1.223952,4.778852,11.332889,0.000000,19.629417,-6.753240,1.215460,-0.071180,-0.149853,2.274731,-0.391860,3.441767,-0.048873,0.025539,-0.148370,-0.439338,-0.342939,8.721446,1.355645,0.025055,1,0,,38.990757,-76.937864,-4.641000,,,
2026-09-11T16:37:30.750,3.776431,1.185299,4.818499,10.974988,0.000000,20.478803,-7.045460,1.176349,-0.071151,-0.149792,2.269724,-0.415835,3.473832,0.011640,-0.052018,-0.148309,-1.167874,1.319485,11.278923,1.265898,0.108251,1,0,,38.990757,-76.937864,-4.641000,,,
2026-09-11T16:37:30.784,3.809848,1.176136,4.857873,10.890144,0.000000,20.949155,-7.207278,1.166843,-0.082468,-0.173617,2.264320,-0.438974,3.505517,0.061811,0.007258,-0.172134,0.716474,0.832487,18.640186,1.292816,0.160715,1,0,,38.990757,-76.937864,-4.641000,,,
2026-09-11T16:37:30.817,3.843265,1.166899,4.897065,10.804620,0.000000,20.949155,-7.207278,1.157679,-0.069277,-0.145846,2.258982,-0.461769,3.537066,0.026392,0.098028,-0.144363,2.266513,-1.716752,1.744211,1.414779,0.045443,1,0,,38.990757,-76.937864,-4.641000,,,
2026-09-11T16:37:30.850,3.876678,1.147647,4.935710,10.626364,0.000000,20.870190,-7.180111,1.138648,-0.077887,-0.163972,2.253806,-0.484156,3.568317,0.005283,0.032335,-0.162489,-1.144044,2.736350,10.702684,1.312561,0.220763,1,0,,38.990757,-76.937864,-4.641000,,,
2026-09-11T16:37:30.884,3.910099,1.177169,4.975358,10.899717,0.000000,20.328427,-6.993725,1.168411,-0.053755,-0.113169,2.249175,-0.506708,3.599663,-0.000796,0.078033,-0.111686,1.537389,0.630666,10.004352,1.382600,0.254372,1,0,,38.990757,-76.937864,-4.641000,,,
2026-09-11T16:37:30.917,3.943517,1.196898,5.015188,11.082385,0.000000,15.547314,-5.348847,1.191686,-0.041438,-0.087238,2.245827,-0.530163,3.631404,0.002458,0.055659,-0.085754,0.628312,0.165046,9.212956,1.384708,0.255641,1,0,,38.990757,-76.937864,-4.641000,,,
2026-09-11T16:37:30.951,3.976938,1.197271,5.054926,11.085846,0.000000,10.418759,-3.584435,1.194929,-0.033092,-0.069668,2.243205,-0.554072,3.663350,-0.020907,0.037089,-0.068184,1.206316,0.877597,9.833226,1.418993,0.301678,1,0,,38.990757,-76.937864,-4.641000,,,
2026-09-11T16:37:30.984,4.010355,1.207534,5.095576,11.180869,0.000000,9.852277,-3.389545,1.205421,-0.017995,-0.037883,2.241408,-0.578356,3.695279,0.011137,0.049838,-0.036400,1.203668,0.004217,9.355740,1.449528,0.288242,1,0,,38.990757,-76.937864,-4.641000,,,
2026-09-11T16:37:31.017,4.043771,1.237323,5.137138,11.456693,0.000000,7.874738,-2.709199,1.235940,-0.018725,-0.039421,2.240116,-0.603204,3.727633,0.062104,0.003634,-0.037937,0.921629,0.896034,9.534712,1.456823,0.332869,1,0,,38.990757,-76.937864,-4.641000,,,
2026-09-11T16:37:31.051,4.077186,1.266930,5.179429,11.730833,0.000000,7.742902,-2.663842,1.265561,-0.015165,-0.031925,2.238924,-0.628671,3.760777,0.058287,-0.005835,-0.030442,-0.096596,0.262426,9.621206,1.396963,0.335458,1,1,4.077842,38.990763,-76.937853,-4.757000,3.830831,0.190885,3.018883
2026-09-11T16:37:31.085,4.110603,1.277292,5.221173,11.826773,0.000000,7.914563,-2.722900,1.275849,-0.023879,-0.050272,2.237551,-0.654442,3.794531,0.048237,-0.011534,-0.048789,0.834546,-0.504650,7.973885,1.393809,0.289910,1,0,,38.990763,-76.937853,-4.757000,,,
2026-09-11T16:37:31.118,4.144020,1.268016,5.264375,11.740886,0.000000,8.768750,-3.016772,1.266258,-0.036381,-0.076591,2.235431,-0.679883,3.828559,0.006323,0.023143,-0.075108,0.897407,-0.564569,9.386435,1.393209,0.243114,1,0,,38.990763,-76.937853,-4.757000,,,
2026-09-11T16:37:31.151,4.177438,1.287993,5.307759,11.925864,0.000000,10.551968,-3.630264,1.285409,-0.045718,-0.096247,2.232543,-0.705050,3.863002,0.024596,0.005542,-0.094764,1.275649,-2.556790,8.499129,1.423817,0.069638,1,0,,38.990763,-76.937853,-4.757000,,,
2026-09-11T16:37:31.185,4.210852,1.346691,5.353787,12.469364,0.000000,11.530438,-3.966894,1.343465,-0.033858,-0.071281,2.229744,-0.730940,3.898506,0.016146,0.041320,-0.069797,-3.085368,1.223380,17.706201,1.180349,0.140907,1,0,,38.990763,-76.937853,-4.757000,,,
2026-09-11T16:37:31.218,4.244268,1.307959,5.396807,12.110733,0.000000,13.763409,-4.735118,1.303495,-0.085220,-0.179411,2.225555,-0.756369,3.934742,0.032117,0.077164,-0.177928,0.139058,1.415198,7.181018,1.154903,0.232741,1,0,,38.990763,-76.937853,-4.757000,,,
2026-09-11T16:37:31.251,4.277684,1.337050,5.441376,12.380092,0.000000,16.003934,-5.505941,1.330881,-0.078976,-0.166265,2.219780,-0.780890,3.971397,-0.058168,0.070466,-0.164781,-0.108854,-1.957604,11.589499,1.119098,0.104478,1,0,,38.990763,-76.937853,-4.757000,,,
2026-09-11T16:37:31.285,4.311099,1.336890,5.486036,12.378609,0.000000,20.710202,-7.125070,1.326566,-0.086216,-0.181507,2.213969,-0.805418,4.008509,-0.178753,0.157022,-0.180024,-1.100600,-4.113694,14.249847,1.022232,-0.160604,1,0,,38.990763,-76.937853,-4.757000,,,
2026-09-11T16:37:31.318,4.344512,1.346674,5.531061,12.469201,0.000000,26.618100,-9.157603,1.329509,-0.095799,-0.201683,2.207568,-0.829477,4.045917,-0.142347,0.062769,-0.200199,0.120622,-1.214946,5.678345,1.002771,-0.233401,1,0,,38.990763,-76.937853,-4.757000,,,
2026-09-11T16:37:31.352,4.377930,1.395506,5.577545,12.921354,0.000000,35.164777,-12.097974,1.364513,-0.134616,-0.283401,2.199463,-0.852987,4.084492,-0.067867,-0.198994,-0.281918,1.091872,-1.838355,15.051737,1.040233,-0.338066,1,0,,38.990763,-76.937853,-4.757000,,,
2026-09-11T16:37:31.385,4.411342,1.395987,5.623846,12.925802,0.000000,35.574704,-12.239004,1.364258,-0.168233,-0.354175,2.188811,-0.875488,4.124457,-0.015634,-0.003369,-0.352692,-1.275943,0.837488,11.026597,0.918603,-0.262197,1,0,,38.990763,-76.937853,-4.757000,,,
2026-09-11T16:37:31.418,4.444756,1.347443,5.668142,12.476320,0.000000,37.252866,-12.816353,1.313872,-0.148251,-0.312107,2.177680,-0.896888,4.164106,-0.025519,-0.004076,-0.310624,-2.425185,2.980633,7.103937,0.725204,-0.053227,1,0,,38.990763,-76.937853,-4.757000,,,
2026-09-11T16:37:31.452,4.478185,1.289666,5.710979,11.941352,0.000000,38.225842,-13.151093,1.255843,-0.142689,-0.300397,2.167442,-0.917199,4.202262,0.043076,0.024871,-0.298914,-0.364415,-1.268882,10.514298,0.666931,-0.123680,1,0,,38.990763,-76.937853,-4.757000,,,
2026-09-11T16:37:31.485,4.511602,1.260963,5.753270,11.675584,0.000000,38.640576,-13.293776,1.227174,-0.168689,-0.355136,2.156489,-0.936002,4.239605,0.054996,0.101798,-0.353652,-3.099196,-1.306246,11.909000,0.432275,-0.191954,1,0,,38.990763,-76.937853,-4.757000,,,
2026-09-11T16:37:31.519,4.545020,1.251875,5.795287,11.591436,0.000000,41.577359,-14.304137,1.213064,-0.176760,-0.372126,2.144337,-0.953505,4.276878,-0.022419,0.065017,-0.370642,0.864848,1.392152,7.787657,0.461277,-0.083853,1,0,,38.990763,-76.937853,-4.757000,,,
2026-09-11T16:37:31.552,4.578450,1.291308,5.838763,11.956552,0.000000,44.946729,-15.463324,1.244564,-0.165877,-0.349215,2.132280,-0.970755,4.314598,-0.081778,0.052146,-0.347732,0.573689,-0.908194,8.714680,0.474088,-0.126906,1,0,,38.990763,-76.937853,-4.757000,,,
2026-09-11T16:37:31.587,4.611870,1.350101,5.883606,12.500932,0.000000,47.492123,-16.339033,1.295575,-0.183998,-0.387363,2.119972,-0.988159,4.353748,-0.190647,0.032657,-0.385880,1.573967,-1.501006,8.698989,0.557732,-0.203479,1,0,,38.990763,-76.937853,-4.757000,,,
2026-09-11T16:37:31.619,4.645290,1.399074,5.930180,12.954389,0.000000,48.151303,-16.565815,1.341002,-0.201554,-0.424324,2.106408,-1.005377,4.394808,-0.215852,-0.003270,-0.422841,0.272527,-0.765507,11.652556,0.561720,-0.227261,1,0,,38.990763,-76.937853,-4.757000,,,
2026-09-11T16:37:31.652,4.678713,1.448123,5.978669,13.408543,0.000000,48.084698,-16.542901,1.388180,-0.199598,-0.420205,2.092295,-1.022583,4.437575,-0.165231,-0.016049,-0.418722,0.526519,-0.078355,9.973657,0.579636,-0.205385,1,0,,38.990763,-76.937853,-4.757000,,,
2026-09-11T16:37:31.686,4.712129,1.458463,6.027248,13.504283,0.000000,47.952863,-16.497544,1.398420,-0.187836,-0.395444,2.078667,-1.039867,4.481290,-0.116386,0.013138,-0.393960,0.122289,-0.223788,7.940150,0.563757,-0.195128,1,0,,38.990763,-76.937853,-4.757000,,,
2026-09-11T16:37:31.719,4.745547,1.468446,6.076284,13.596726,0.000000,46.053601,-15.844129,1.412657,-0.171410,-0.360862,2.066030,-1.057185,4.525362,-0.043689,0.027373,-0.359379,-0.571826,0.608307,10.437414,0.497887,-0.133937,1,0,,38.990763,-76.937853,-4.757000,,,
2026-09-11T16:37:31.752,4.778964,1.439275,6.124316,13.326621,0.000000,45.439740,-15.632938,1.386033,-0.173231,-0.364698,2.053907,-1.074077,4.569342,-0.010554,0.031753,-0.363214,-0.660968,-1.381953,8.683298,0.426445,-0.202486,1,0,,38.990763,-76.937853,-4.757000,,,
2026-09-11T16:37:31.786,4.812384,1.419551,6.171255,13.143990,0.000000,45.470639,-15.643568,1.366968,-0.179015,-0.376874,2.041515,-1.089966,4.612913,-0.004460,0.067626,-0.375390,-0.746580,-0.292729,9.137346,0.351889,-0.199168,1,0,,38.990763,-76.937853,-4.757000,,,
2026-09-11T16:37:31.820,4.845809,1.390638,6.217921,12.876277,0.000000,45.689679,-15.718926,1.338631,-0.182087,-0.383341,2.028810,-1.104823,4.656041,0.038709,-0.010805,-0.381858,-1.400978,0.773058,8.418225,0.239040,-0.127039,1,0,,38.990763,-76.937853,-4.757000,,,
2026-09-11T16:37:31.853,4.879221,1.362204,6.263493,12.612996,0.000000,46.895428,-16.133748,1.308554,-0.186308,-0.392227,2.015854,-1.118585,4.698516,0.057545,0.028049,-0.390743,-0.575454,-0.933103,11.373655,0.185753,-0.166115,1,0,,38.990763,-76.937853,-4.757000,,,
2026-09-11T16:37:31.886,4.912637,1.343278,6.308427,12.437763,0.000000,48.024274,-16.522113,1.287814,-0.190437,-0.400920,2.002602,-1.131303,4.740463,0.181856,0.042128,-0.399436,-1.649969,2.608765,11.960092,0.067452,0.024622,1,0,,38.990763,-76.937853,-4.757000,,,
2026-09-11T16:37:31.920,4.946052,1.353268,6.353999,12.530259,0.000000,48.535825,-16.698105,1.296203,-0.205212,-0.432026,1.988685,-1.143074,4.782520,0.042910,-0.070576,-0.430542,-0.535835,-2.085384,3.400750,0.023634,-0.087673,1,0,,38.990763,-76.937853,-4.757000,,,
2026-09-11T16:37:31.953,4.979466,1.353474,6.398842,12.532164,0.000000,49.381772,-16.989142,1.294408,-0.218459,-0.459914,1.973784,-1.153852,4.825028,0.043871,-0.035816,-0.458431,-0.509848,-1.469527,9.640918,-0.016795,-0.156584,1,0,,38.990763,-76.937853,-4.757000,,,
2026-09-11T16:37:31.987,5.012881,1.353905,6.444049,12.536157,0.000000,51.163617,-17.602162,1.290514,-0.205194,-0.431987,1.958882,-1.163962,4.867608,0.083047,-0.062642,-0.430504,-2.309662,0.081493,14.290153,-0.170412,-0.126825,1,0,,38.990763,-76.937853,-4.757000,,,
2026-09-11T16:37:32.020,5.046294,1.344639,6.489256,12.450363,0.000000,59.419843,-20.442606,1.259957,-0.217660,-0.458232,1.944010,-1.173236,4.909789,-0.095495,-0.098310,-0.456748,0.012454,1.643595,5.520654,-0.173091,0.004962,1,0,,38.990763,-76.937853,-4.757000,,,
2026-09-11T16:37:32.053,5.079713,1.374268,6.535010,12.724704,0.000000,61.218167,-21.061296,1.282462,-0.245234,-0.516281,1.927726,-1.181173,4.952229,-0.058678,-0.039794,-0.514798,0.643512,0.478957,10.138507,-0.139295,0.065430,1,1,5.071673,38.990766,-76.937839,-4.771000,5.046989,0.557457,4.092484
2026-09-11T16:37:32.087,5.113132,1.384529,6.580856,12.819710,0.000000,61.185895,-21.050193,1.292134,-0.241649,-0.508736,1.910598,-1.188211,4.995442,-0.063730,-0.002277,-0.507252,0.877205,-1.531406,10.035734,-0.095769,-0.005183,1,0,,38.990766,-76.937839,-4.771000,,,
2026-09-11T16:37:32.120,5.146548,1.394971,6.627157,12.916400,0.000000,60.530148,-20.824592,1.303842,-0.240300,-0.505895,1.893646,-1.194704,5.039075,-0.021798,-0.044422,-0.504412,0.696664,-0.116699,11.408566,-0.068332,0.016685,1,0,,38.990766,-76.937839,-4.771000,,,
2026-09-11T16:37:32.154,5.179961,1.405216,6.673822,13.011260,0.000000,57.009030,-19.613198,1.323686,-0.213823,-0.450154,1.877674,-1.201083,5.083166,0.004963,-0.018264,-0.448670,0.201919,0.093261,10.174400,-0.074767,0.047770,1,0,,38.990766,-76.937839,-4.771000,,,
2026-09-11T16:37:32.187,5.213374,1.405495,6.720944,13.013845,0.000000,49.119473,-16.898901,1.344805,-0.190964,-0.402030,1.863437,-1.207784,5.127758,0.078549,-0.031990,-0.400546,0.020006,0.330092,10.861061,-0.094853,0.090263,1,0,,38.990766,-76.937839,-4.771000,,,
2026-09-11T16:37:32.220,5.246787,1.376770,6.766424,12.747874,0.000000,43.872128,-15.093622,1.329274,-0.172636,-0.363445,1.850649,-1.214573,5.172330,0.091965,-0.018317,-0.361962,-0.043247,1.317327,10.471541,-0.121940,0.192444,1,0,,38.990766,-76.937839,-4.771000,,,
2026-09-11T16:37:32.254,5.280202,1.318522,6.810174,12.208533,0.000000,35.576077,-12.239476,1.288552,-0.135126,-0.284476,1.839823,-1.221481,5.215826,0.110346,-0.012335,-0.282992,-0.323031,0.310773,8.812844,-0.171093,0.220824,1,0,,38.990766,-76.937839,-4.771000,,,
2026-09-11T16:37:32.287,5.313625,1.328254,6.854378,12.298651,0.000000,34.704037,-11.939462,1.299520,-0.131985,-0.277864,1.830426,-1.228471,5.258741,0.087597,-0.033694,-0.276380,1.174739,-1.976825,10.739263,-0.123157,0.100472,1,0,,38.990766,-76.937839,-4.771000,,,
2026-09-11T16:37:32.320,5.347040,1.338155,6.899039,12.390323,0.000000,34.694424,-11.936155,1.309222,-0.143872,-0.302888,1.820723,-1.234995,5.302080,0.025061,-0.006484,-0.301404,1.341256,1.637220,8.949745,-0.059506,0.217646,1,0,,38.990766,-76.937839,-4.771000,,,
2026-09-11T16:37:32.354,5.380455,1.348040,6.943973,12.481849,0.000000,34.704037,-11.939462,1.318877,-0.142484,-0.299966,1.810651,-1.240998,5.345839,-0.029670,0.007901,-0.298482,0.749326,-0.972525,10.126739,-0.032461,0.164582,1,0,,38.990766,-76.937839,-4.771000,,,
2026-09-11T16:37:32.387,5.413871,1.348226,6.989362,12.483570,0.000000,34.660092,-11.924344,1.319133,-0.131434,-0.276702,1.801016,-1.246812,5.389768,-0.063190,0.007977,-0.275219,0.319991,0.229868,9.248358,-0.033465,0.187934,1,0,,38.990766,-76.937839,-4.771000,,,
2026-09-11T16:37:32.421,5.447285,1.358310,7.035390,12.576946,0.000000,33.715268,-11.599289,1.330570,-0.119961,-0.252550,1.792174,-1.252629,5.433855,-0.050097,0.014999,-0.251067,0.069627,0.914666,10.164103,-0.048633,0.253466,1,0,,38.990766,-76.937839,-4.771000,,,
2026-09-11T16:37:32.455,5.480700,1.378013,7.081600,12.759377,0.000000,29.846707,-10.268363,1.355942,-0.112668,-0.237195,1.783991,-1.258508,5.478522,0.052367,-0.031778,-0.235711,1.131884,2.001145,10.716315,0.005248,0.387655,1,0,,38.990766,-76.937839,-4.771000,,,
2026-09-11T16:37:32.488,5.514119,1.388109,7.128265,12.852863,0.000000,24.279385,-8.353000,1.373384,-0.093111,-0.196022,1.776752,-1.264632,5.523846,0.123568,-0.004928,-0.194539,0.372162,0.102872,9.749772,0.005190,0.394120,1,0,,38.990766,-76.937839,-4.771000,,,
2026-09-11T16:37:32.521,5.547533,1.398287,7.175387,12.947099,0.000000,20.676556,-7.113494,1.387524,-0.088053,-0.185376,1.770380,-1.270956,5.569638,0.131283,-0.022975,-0.183892,0.886913,0.410212,8.691438,0.037479,0.419626,1,0,,38.990766,-76.937839,-4.771000,,,
2026-09-11T16:37:32.555,5.580950,1.379468,7.221870,12.772853,0.000000,18.088589,-6.223139,1.371339,-0.061072,-0.128573,1.765135,-1.277534,5.615332,0.119421,-0.002812,-0.127089,-0.821895,0.742560,9.625227,-0.039547,0.461127,1,0,,38.990766,-76.937839,-4.771000,,,
2026-09-11T16:37:32.588,5.614365,1.341422,7.267533,12.420571,0.000000,16.598569,-5.710517,1.334765,-0.053814,-0.113293,1.761094,-1.284293,5.660077,0.065766,0.024644,-0.111810,0.071294,0.312048,8.028312,-0.057225,0.472679,1,0,,38.990766,-76.937839,-4.771000,,,
2026-09-11T16:37:32.621,5.647773,1.361496,7.313287,12.606446,0.000000,15.661298,-5.388061,1.355480,-0.047305,-0.099590,1.757538,-1.291054,5.704536,0.065583,0.035086,-0.098106,-0.017946,-0.012454,10.716315,-0.079926,0.462053,1,0,,38.990766,-76.937839,-4.771000,,,
2026-09-11T16:37:32.655,5.681188,1.371735,7.358950,12.701252,0.000000,15.493069,-5.330184,1.365804,-0.048917,-0.102982,1.754153,-1.297839,5.749521,0.037733,0.010405,-0.101499,0.378635,-1.564063,9.635916,-0.075427,0.351493,1,0,,38.990766,-76.937839,-4.771000,,,
2026-09-11T16:37:32.688,5.714603,1.372020,7.404431,12.703891,0.000000,16.799069,-5.779496,1.365046,-0.075498,-0.158944,1.749777,-1.304015,5.794774,0.060518,-0.017254,-0.157460,0.939281,-0.309694,10.012688,-0.029518,0.328276,1,0,,38.990766,-76.937839,-4.771000,,,
2026-09-11T16:37:32.722,5.748018,1.382180,7.450641,12.797963,0.000000,22.814771,-7.849118,1.369231,-0.094617,-0.199193,1.743794,-1.309215,5.840247,0.030408,0.016052,-0.197710,0.076002,-0.920354,11.224790,-0.033630,0.269407,1,0,,38.990766,-76.937839,-4.771000,,,
2026-09-11T16:37:32.756,5.781434,1.391907,7.496760,12.888026,0.000000,27.100125,-9.323438,1.373519,-0.119948,-0.252523,1.736246,-1.313399,5.886021,0.015036,-0.089852,-0.251039,-0.488862,0.920060,9.704857,-0.069817,0.335092,1,0,,38.990766,-76.937839,-4.771000,,,
2026-09-11T16:37:32.789,5.814855,1.382281,7.542970,12.798901,0.000000,33.492795,-11.522751,1.354422,-0.146405,-0.308221,1.726876,-1.316303,5.931728,0.044467,0.132683,-0.306737,2.082834,-2.124415,9.615617,0.061294,0.207571,1,0,,38.990766,-76.937839,-4.771000,,,
2026-09-11T16:37:32.822,5.848268,1.401895,7.590000,12.980508,0.000000,36.196118,-12.452793,1.368914,-0.150971,-0.317833,1.716417,-1.318227,5.977453,0.032685,0.158343,-0.316349,-0.669206,-0.033539,1.762157,0.009992,0.217935,1,0,,38.990766,-76.937839,-4.771000,,,
2026-09-11T16:37:32.856,5.881685,1.402233,7.637121,12.983638,0.000000,39.421979,-13.562607,1.363131,-0.173747,-0.365783,1.704995,-1.319221,6.023409,-0.016972,0.066793,-0.364300,1.413138,0.495236,8.618476,0.094353,0.266518,1,0,,38.990766,-76.937839,-4.771000,,,
2026-09-11T16:37:32.889,5.915098,1.412410,7.684243,13.077874,0.000000,40.773297,-14.027510,1.370292,-0.177852,-0.374426,1.692628,-1.319224,6.069451,0.004576,0.010442,-0.372942,-0.832192,-0.273115,10.732300,0.035368,0.265773,1,0,,38.990766,-76.937839,-4.771000,,,
2026-09-11T16:37:32.922,5.948515,1.403202,7.731090,12.992613,0.000000,43.852902,-15.087008,1.354836,-0.188642,-0.397141,1.679736,-1.318385,6.115384,-0.039001,-0.000358,-0.395658,-0.579377,-0.042757,9.975521,-0.003980,0.281562,1,0,,38.990766,-76.937839,-4.771000,,,
2026-09-11T16:37:32.956,5.981930,1.384042,7.777118,12.815200,0.000000,48.020840,-16.520931,1.326903,-0.200842,-0.422826,1.666037,-1.316481,6.160616,-0.028241,0.001550,-0.421342,-0.243499,-0.198290,10.414466,-0.019648,0.288597,1,0,,38.990766,-76.937839,-4.771000,,,
2026-09-11T16:37:32.989,6.015351,1.355429,7.822690,12.550272,0.000000,48.129330,-16.558256,1.299220,-0.206445,-0.434621,1.651709,-1.313565,6.204926,-0.004518,-0.020417,-0.433137,-0.587516,1.280356,8.549241,-0.058092,0.391498,1,0,,38.990766,-76.937839,-4.771000,,,
2026-09-11T16:37:33.023,6.048768,1.346142,7.867715,12.464278,0.000000,48.362103,-16.638338,1.289781,-0.191499,-0.403156,1.637711,-1.310130,6.248558,0.030863,-0.023659,-0.401673,0.288414,0.626939,9.784683,-0.042207,0.448070,1,0,,38.990766,-76.937839,-4.771000,,,
2026-09-11T16:37:33.056,6.082183,1.346658,7.912649,12.469059,0.000000,48.387509,-16.647079,1.290217,-0.193330,-0.407010,1.624175,-1.306303,6.291971,0.007718,-0.008457,-0.405527,0.033441,0.135136,9.469399,-0.046822,0.472516,1,1,6.071549,38.990765,-76.937823,-4.865000,6.378525,0.437552,3.100192
2026-09-11T16:37:33.090,6.115600,1.337456,7.956945,12.383851,0.000000,48.502866,-16.686766,1.281134,-0.196835,-0.414390,1.610450,-1.301790,6.335189,-0.037533,-0.002004,-0.412906,0.004315,0.013925,9.519610,-0.057250,0.489221,1,0,,38.990765,-76.937823,-4.865000,,,
2026-09-11T16:37:33.123,6.149015,1.328252,8.000876,12.298627,0.000000,49.867917,-17.156393,1.269149,-0.201462,-0.424130,1.596441,-1.296531,6.377991,-0.120212,0.033221,-0.422646,0.448458,0.367161,9.789194,-0.043067,0.529080,1,0,,38.990765,-76.937823,-4.865000,,,
2026-09-11T16:37:33.156,6.182434,1.328873,8.044443,12.304379,0.000000,50.897885,-17.510740,1.267294,-0.199945,-0.420937,1.582320,-1.290613,6.420491,-0.195177,0.034455,-0.419454,0.965465,-0.724613,9.351327,-0.000077,0.497519,1,0,,38.990765,-76.937823,-4.865000,,,
2026-09-11T16:37:33.190,6.215852,1.299826,8.088465,12.035424,0.000000,51.566678,-17.740830,1.238012,-0.203170,-0.427726,1.568140,-1.284067,6.462379,-0.163967,0.027278,-0.426242,-0.241734,0.305575,10.443592,-0.040382,0.532737,1,0,,38.990765,-76.937823,-4.865000,,,
2026-09-11T16:37:33.223,6.249267,1.310268,8.132579,12.132115,0.000000,51.798764,-17.820676,1.247400,-0.198749,-0.418419,1.554003,-1.276947,6.503836,-0.118405,0.023425,-0.416936,-0.342252,-0.417567,11.206451,-0.090777,0.520268,1,0,,38.990765,-76.937823,-4.865000,,,
2026-09-11T16:37:33.257,6.282685,1.320376,8.176875,12.225708,0.000000,51.798764,-17.820676,1.257023,-0.205377,-0.432372,1.539787,-1.269195,6.545508,-0.057781,0.037026,-0.430888,1.074319,-0.155043,10.165966,-0.051764,0.526324,1,0,,38.990765,-76.937823,-4.865000,,,
2026-09-11T16:37:33.290,6.316102,1.339925,8.221718,12.406709,0.000000,51.732159,-17.797761,1.275798,-0.206092,-0.433878,1.525313,-1.260705,6.587532,0.040491,0.010494,-0.432395,0.677836,-3.623851,9.656020,-0.040664,0.308453,1,0,,38.990765,-76.937823,-4.865000,,,
2026-09-11T16:37:33.323,6.349518,1.378889,8.267836,12.767487,0.000000,52.225171,-17.967375,1.311643,-0.232944,-0.490408,1.509870,-1.251077,6.630307,0.161957,0.040450,-0.488925,1.898469,3.692890,10.541953,0.049121,0.572358,1,0,,38.990765,-76.937823,-4.865000,,,
2026-09-11T16:37:33.357,6.382938,1.427796,8.315596,13.220337,0.000000,56.599103,-19.472168,1.346131,-0.243831,-0.513328,1.493098,-1.240049,6.674056,0.094186,-0.047180,-0.511844,1.510322,1.689490,8.251610,0.114701,0.706791,1,0,,38.990765,-76.937823,-4.865000,,,
2026-09-11T16:37:33.390,6.416353,1.476691,8.365360,13.673061,0.000000,60.972348,-20.976725,1.378824,-0.286371,-0.602886,1.474449,-1.227263,6.718633,-0.043292,-0.012571,-0.601402,2.032624,4.446237,6.162891,0.214910,1.027282,1,0,,38.990765,-76.937823,-4.865000,,,
2026-09-11T16:37:33.423,6.449769,1.525484,8.416765,14.124853,0.000000,65.921689,-22.679480,1.407528,-0.309766,-0.652138,1.453480,-1.212392,6.763852,-0.152116,-0.004493,-0.650655,0.295769,-5.987156,7.217400,0.202707,0.674414,1,0,,38.990765,-76.937823,-4.865000,,,
2026-09-11T16:37:33.457,6.483183,1.554819,8.468991,14.396468,0.000000,72.944012,-25.095417,1.408048,-0.324912,-0.684025,1.431157,-1.195851,6.809140,-0.198443,-0.002650,-0.682542,1.290555,-1.134433,7.931226,0.256855,0.642532,1,0,,38.990765,-76.937823,-4.865000,,,
2026-09-11T16:37:33.490,6.516601,1.574456,8.521672,14.578295,0.000000,75.728360,-26.053335,1.414468,-0.336090,-0.707558,1.407905,-1.177826,6.854093,-0.149936,0.153102,-0.706074,-1.608291,-5.494078,15.290627,0.125036,0.331252,1,0,,38.990765,-76.937823,-4.865000,,,
2026-09-11T16:37:33.524,6.550015,1.575012,8.574717,14.583443,0.000000,75.806638,-26.080265,1.414643,-0.332664,-0.700345,1.384383,-1.158611,6.898696,-0.059471,0.008065,-0.698861,2.955234,-0.305575,4.392202,0.291215,0.358601,1,0,,38.990765,-76.937823,-4.865000,,,
2026-09-11T16:37:33.557,6.583438,1.595087,8.628037,14.769322,0.000000,75.571805,-25.999474,1.433661,-0.336524,-0.708472,1.360839,-1.138272,6.943158,0.054104,-0.059341,-0.706988,-0.643120,-0.045993,11.667854,0.227352,0.404075,1,0,,38.990765,-76.937823,-4.865000,,,
2026-09-11T16:37:33.591,6.616852,1.566635,8.679624,14.505881,0.000000,75.374738,-25.931676,1.408900,-0.335119,-0.705513,1.337216,-1.116886,6.987016,0.117281,-0.063473,-0.704029,-0.996650,-2.396255,8.078816,0.149898,0.295531,1,0,,38.990765,-76.937823,-4.865000,,,
2026-09-11T16:37:33.624,6.650265,1.537909,8.730664,14.239895,0.000000,75.353452,-25.924353,1.383152,-0.327684,-0.689860,1.313904,-1.094826,7.029577,0.116780,-0.075355,-0.688377,-1.693805,-1.256624,10.782412,0.032761,0.259366,1,0,,38.990765,-76.937823,-4.865000,,,
2026-09-11T16:37:33.658,6.683805,1.528550,8.781887,14.153243,0.000000,76.296902,-26.248934,1.370928,-0.340099,-0.715998,1.290328,-1.071773,7.071127,0.091323,0.130618,-0.714514,0.227514,-2.480298,10.236672,0.044916,0.145768,1,0,,38.990765,-76.937823,-4.865000,,,
2026-09-11T16:37:33.691,6.717223,1.500099,8.832108,13.889802,0.000000,78.904095,-27.145904,1.334859,-0.361564,-0.761188,1.265646,-1.047509,7.111025,0.055590,0.109442,-0.759705,-1.507772,-2.167172,5.995884,-0.052281,0.056338,1,0,,38.990765,-76.937823,-4.865000,,,
2026-09-11T16:37:33.725,6.750635,1.510168,8.882966,13.983034,0.000000,83.880215,-28.857872,1.322634,-0.377631,-0.795013,1.239648,-1.021897,7.149325,-0.123767,0.085556,-0.793529,0.594185,-0.925257,15.157060,-0.012719,0.050563,1,0,,38.990765,-76.937823,-4.865000,,,
2026-09-11T16:37:33.758,6.784051,1.510176,8.933642,13.983108,0.000000,84.730969,-29.150563,1.318901,-0.358728,-0.755218,1.213747,-0.995428,7.186723,-0.101202,-0.014705,-0.753734,0.361081,0.864260,8.305742,0.009826,0.157067,1,0,,38.990765,-76.937823,-4.865000,,,
2026-09-11T16:37:33.791,6.817466,1.510336,8.983953,13.984593,0.000000,81.566220,-28.061773,1.332782,-0.343121,-0.722359,1.189060,-0.968495,7.223804,-0.115127,-0.008240,-0.720876,-1.114134,-0.560058,9.655235,-0.064578,0.168065,1,0,,38.990765,-76.937823,-4.865000,,,
2026-09-11T16:37:33.825,6.850879,1.452546,9.032533,13.449496,0.000000,76.807767,-26.424690,1.300784,-0.309567,-0.651720,1.166103,-0.941570,7.260271,-0.120876,0.001341,-0.650237,0.100518,1.252407,10.319636,-0.061171,0.288782,1,0,,38.990765,-76.937823,-4.865000,,,
2026-09-11T16:37:33.858,6.884294,1.395052,9.079290,12.917146,0.000000,70.912228,-24.396409,1.270487,-0.265587,-0.559131,1.145873,-0.915466,7.295722,0.025683,-0.031666,-0.557648,-1.363517,1.146005,8.772539,-0.158291,0.392399,1,0,,38.990765,-76.937823,-4.865000,,,
2026-09-11T16:37:33.891,6.917711,1.385764,9.125135,12.831152,0.000000,59.967099,-20.630883,1.296895,-0.258314,-0.543819,1.127445,-0.889477,7.330955,0.076720,0.024916,-0.542335,0.160731,3.640817,9.222076,-0.163276,0.656032,1,0,,38.990765,-76.937823,-4.865000,,,
2026-09-11T16:37:33.925,6.951124,1.357041,9.169886,12.565197,0.000000,57.868710,-19.908960,1.275938,-0.212051,-0.446422,1.110901,-0.863649,7.366205,0.150219,-0.007143,-0.444939,0.939379,0.838272,9.394379,-0.123728,0.726566,1,0,,38.990765,-76.937823,-4.865000,,,
2026-09-11T16:37:33.958,6.984539,1.347702,9.214547,12.478723,0.000000,53.866254,-18.531968,1.277819,-0.204220,-0.429938,1.096259,-0.838222,7.401167,0.113547,0.027097,-0.428454,0.243107,1.178563,8.953668,-0.136544,0.817043,1,0,,38.990765,-76.937823,-4.865000,,,
2026-09-11T16:37:33.992,7.017955,1.348236,9.259572,12.483667,0.000000,49.856244,-17.152377,1.288272,-0.189014,-0.397925,1.082428,-0.812544,7.436124,0.124767,0.013379,-0.396441,-0.160633,1.418532,10.415643,-0.182387,0.919681,1,0,,38.990765,-76.937823,-4.865000,,,
2026-09-11T16:37:34.026,7.051371,1.368120,9.304506,12.667781,0.000000,49.710675,-17.102296,1.307624,-0.188708,-0.397279,1.069141,-0.786385,7.471291,0.065873,0.073259,-0.395795,0.780805,-2.591603,9.018980,-0.170274,0.762022,1,0,,38.990765,-76.937823,-4.865000,,,
2026-09-11T16:37:34.059,7.084788,1.387843,9.350898,12.850396,0.000000,49.689389,-17.094973,1.326526,-0.192972,-0.406258,1.055715,-0.759390,7.506631,0.004825,0.007937,-0.404774,-0.008630,-0.153670,9.341521,-0.215702,0.765192,1,1,7.074366,38.990758,-76.937811,-4.925000,7.466484,-0.259825,3.467548
2026-09-11T16:37:34.092,7.118185,1.388304,9.396743,12.854665,0.000000,49.689389,-17.094973,1.326967,-0.187796,-0.395361,1.042329,-0.731794,7.541875,-0.005049,0.056929,-0.393877,0.997434,-2.162072,7.945152,-0.204887,0.637470,1,0,,38.990758,-76.937811,-4.925000,,,
2026-09-11T16:37:34.126,7.151600,1.427638,9.444320,13.218867,0.000000,49.474469,-17.021033,1.365103,-0.189165,-0.398243,1.029070,-0.703438,7.577351,-0.016573,-0.004052,-0.396760,0.828956,-0.802086,8.316824,-0.210393,0.600356,1,0,,38.990758,-76.937811,-4.925000,,,
2026-09-11T16:37:34.159,7.185017,1.466910,9.493720,13.582500,0.000000,48.033887,-16.525420,1.406317,-0.203707,-0.428858,1.015251,-0.673685,7.613433,-0.048434,-0.083293,-0.427374,-0.896622,0.591635,11.208609,-0.331370,0.657715,1,0,,38.990758,-76.937811,-4.925000,,,
2026-09-11T16:37:34.193,7.218429,1.467570,9.542300,13.588615,0.000000,47.474271,-16.332891,1.408345,-0.180062,-0.379078,1.001753,-0.643191,7.649799,-0.024067,-0.086959,-0.377594,1.068533,0.605365,8.166292,-0.324944,0.710841,1,0,,38.990758,-76.937811,-4.925000,,,
2026-09-11T16:37:34.226,7.251846,1.525628,9.592520,14.126183,0.000000,47.316342,-16.278558,1.464466,-0.190413,-0.400870,0.988722,-0.611867,7.686691,-0.026002,-0.085944,-0.399387,2.468040,-0.318226,6.761685,-0.224868,0.707043,1,0,,38.990758,-76.937811,-4.925000,,,
2026-09-11T16:37:34.259,7.285260,1.564350,9.645475,14.484725,0.000000,47.363721,-16.294858,1.501511,-0.201720,-0.424674,0.974929,-0.578891,7.724251,-0.040857,-0.032728,-0.423190,0.504552,-0.539464,9.667200,-0.247720,0.692241,1,0,,38.990758,-76.937811,-4.925000,,,
2026-09-11T16:37:34.293,7.318673,1.593613,9.698520,14.755679,0.000000,47.796994,-16.443920,1.528430,-0.235168,-0.495091,0.959563,-0.544152,7.761778,-0.019253,0.040883,-0.493607,0.686662,-1.513166,10.655514,-0.250585,0.622289,1,0,,38.990758,-76.937811,-4.925000,,,
2026-09-11T16:37:34.327,7.352089,1.652320,9.754118,15.299255,0.000000,49.074155,-16.883310,1.581102,-0.250701,-0.527791,0.942473,-0.507363,7.799346,0.037054,-0.010666,-0.526308,1.813740,-0.056682,9.962184,-0.173204,0.652417,1,0,,38.990758,-76.937811,-4.925000,,,
2026-09-11T16:37:34.359,7.385505,1.691567,9.810719,15.662654,0.000000,51.560498,-17.738703,1.611143,-0.267721,-0.563623,0.924238,-0.468659,7.837047,0.050045,0.040553,-0.562139,1.330762,-2.180705,6.823565,-0.120340,0.549491,1,0,,38.990758,-76.937811,-4.925000,,,
2026-09-11T16:37:34.392,7.418917,1.769602,9.870235,16.385199,0.000000,59.045621,-20.313860,1.659541,-0.292063,-0.614869,0.904550,-0.427904,7.874615,-0.015265,-0.064748,-0.613385,1.277218,-2.070968,9.720057,-0.063524,0.462095,1,0,,38.990758,-76.937811,-4.925000,,,
2026-09-11T16:37:34.426,7.452331,1.798969,9.930573,16.657124,0.000000,61.795636,-21.259967,1.676540,-0.334280,-0.703747,0.882520,-0.384827,7.911482,-0.125461,0.001696,-0.702264,-0.630666,-1.645458,9.027904,-0.127445,0.413522,1,0,,38.990758,-76.937811,-4.925000,,,
2026-09-11T16:37:34.459,7.485743,1.818945,9.991548,16.842087,0.000000,70.693875,-24.321287,1.657515,-0.376925,-0.793527,0.857506,-0.339843,7.946386,-0.208885,-0.019722,-0.792043,-0.324894,-2.159228,10.113500,-0.166525,0.341007,1,0,,38.990758,-76.937811,-4.925000,,,
2026-09-11T16:37:34.493,7.519156,1.829169,10.052796,16.936750,0.000000,76.412946,-26.288857,1.639983,-0.395848,-0.833363,0.830326,-0.293595,7.978970,-0.178904,-0.024435,-0.831880,-1.430398,-0.855238,8.442839,-0.269580,0.357008,1,0,,38.990758,-76.937811,-4.925000,,,
2026-09-11T16:37:34.526,7.552571,1.791020,10.112131,16.583520,0.000000,76.337415,-26.262872,1.606139,-0.393882,-0.829224,0.802548,-0.246849,8.009458,-0.102674,-0.038504,-0.827741,-1.933283,-0.364023,12.305679,-0.400902,0.402366,1,0,,38.990758,-76.937811,-4.925000,,,
2026-09-11T16:37:34.560,7.585987,1.733614,10.169734,16.051983,0.000000,76.244717,-26.230981,1.555086,-0.373141,-0.785560,0.775569,-0.200552,8.037922,-0.017286,-0.025396,-0.784077,-1.330468,0.385107,7.287028,-0.488998,0.488575,1,0,,38.990758,-76.937811,-4.925000,,,
2026-09-11T16:37:34.593,7.619397,1.685462,10.225332,15.606129,0.000000,76.062070,-26.168143,1.512708,-0.362604,-0.763377,0.749694,-0.155017,8.064445,0.013178,-0.008966,-0.761893,-1.041859,-2.579541,11.539681,-0.551394,0.377647,1,0,,38.990758,-76.937811,-4.925000,,,
2026-09-11T16:37:34.627,7.652812,1.637201,10.280109,15.159268,0.000000,74.511624,-25.634733,1.476052,-0.358625,-0.755000,0.724326,-0.109952,8.089086,0.112977,0.042381,-0.753517,-1.080203,0.970564,12.850046,-0.609869,0.495079,1,0,,38.990758,-76.937811,-4.925000,,,
2026-09-11T16:37:34.660,7.686182,1.607841,10.333884,14.887417,0.000000,69.978391,-24.075134,1.467977,-0.317085,-0.667547,0.700590,-0.065406,8.112670,0.068754,0.054330,-0.666064,0.661262,0.731282,9.589629,-0.554308,0.586905,1,0,,38.990758,-76.937811,-4.925000,,,
2026-09-11T16:37:34.693,7.719594,1.578875,10.387112,14.619209,0.000000,62.939587,-21.653528,1.467457,-0.284096,-0.598097,0.679446,-0.021190,8.136143,-0.010511,0.010745,-0.596613,0.079532,-0.834938,10.351213,-0.539598,0.569848,1,0,,38.990758,-76.937811,-4.925000,,,
2026-09-11T16:37:34.727,7.753007,1.559946,10.439611,14.443943,0.000000,60.289822,-20.741911,1.458838,-0.281736,-0.593128,0.659545,0.023008,8.159070,-0.044972,-0.004473,-0.591644,0.608110,-1.601328,9.547460,-0.487468,0.502577,1,0,,38.990758,-76.937811,-4.925000,,,
2026-09-11T16:37:34.760,7.786413,1.531318,10.491016,14.178872,0.000000,54.437543,-18.728512,1.450236,-0.240826,-0.507002,0.641170,0.066966,8.181547,-0.003897,0.003056,-0.505519,0.184757,1.044899,9.917563,-0.469609,0.598878,1,0,,38.990758,-76.937811,-4.925000,,,
2026-09-11T16:37:34.793,7.819822,1.531738,10.541692,14.182760,0.000000,45.743237,-15.737352,1.474321,-0.196443,-0.413564,0.625792,0.110669,8.204579,0.004815,-0.042104,-0.412080,-0.921923,-1.559159,5.870359,-0.539502,0.517486,1,0,,38.990758,-76.937811,-4.925000,,,
2026-09-11T16:37:34.827,7.853229,1.522275,10.592641,14.095137,0.000000,35.930386,-12.361371,1.486984,-0.148203,-0.312006,0.613673,0.154283,8.228624,0.073844,0.043262,-0.310523,-0.199075,1.831294,9.295724,-0.568334,0.646960,1,0,,38.990758,-76.937811,-4.925000,,,
2026-09-11T16:37:34.860,7.886644,1.493283,10.642497,13.826694,0.000000,33.314267,-11.461330,1.463505,-0.142044,-0.299039,0.603464,0.197499,8.252828,0.037061,-0.106396,-0.297555,-0.754818,0.270664,12.251938,-0.637699,0.672315,1,0,,38.990758,-76.937811,-4.925000,,,
2026-09-11T16:37:34.893,7.920054,1.503434,10.692535,13.920681,0.000000,31.230298,-10.744369,1.477076,-0.116969,-0.246251,0.594355,0.240512,8.276947,0.060612,-0.007207,-0.244767,1.305265,-0.269977,8.994561,-0.577084,0.657613,1,0,,38.990758,-76.937811,-4.925000,,,
2026-09-11T16:37:34.928,7.953476,1.542780,10.745216,14.284995,0.000000,30.682355,-10.555856,1.516671,-0.125278,-0.263742,0.585832,0.284333,8.301418,0.027907,-0.075198,-0.262259,0.028047,-0.934378,9.790371,-0.603437,0.602405,1,0,,38.990758,-76.937811,-4.925000,,,
2026-09-11T16:37:34.960,7.986885,1.543229,10.796803,14.289157,0.000000,31.226178,-10.742951,1.516181,-0.142936,-0.300917,0.576400,0.329138,8.325484,-0.003959,0.065406,-0.299434,-3.919522,1.962507,14.595336,-0.892788,0.738944,1,0,,38.990758,-76.937811,-4.925000,,,
2026-09-11T16:37:34.994,8.020294,1.456823,10.844016,13.489098,0.000000,33.345166,-11.471961,1.427718,-0.136913,-0.288239,0.566558,0.373024,8.348156,0.077602,-0.015904,-0.286755,3.539907,-2.382624,2.810586,-0.701651,0.589878,1,0,,38.990758,-76.937811,-4.925000,,,
2026-09-11T16:37:35.027,8.053781,1.593233,10.897882,14.752155,0.000000,32.807523,-11.286992,1.562418,-0.114205,-0.240432,0.557706,0.417633,8.371276,0.008123,-0.233493,-0.238948,2.101859,0.722946,14.160018,-0.604674,0.641238,1,0,,38.990758,-76.937811,-4.925000,,,
2026-09-11T16:37:35.061,8.087190,1.622658,10.952203,15.024614,0.000000,33.392545,-11.488261,1.590149,-0.158555,-0.333799,0.548114,0.464838,8.395050,0.003591,-0.086582,-0.332316,-0.505729,1.326448,7.262511,-0.676705,0.741005,1,1,8.077608,38.990746,-76.937803,-5.031000,8.146800,-1.595277,3.331764
2026-09-11T16:37:35.094,8.120600,1.603482,11.005978,14.847057,0.000000,34.441052,-11.848986,1.569315,-0.162989,-0.343135,0.536806,0.512812,8.417698,-0.071084,-0.005205,-0.341652,-1.112466,-0.532501,8.223857,-0.788625,0.719862,1,0,,38.990746,-76.937803,-5.031000,,,
2026-09-11T16:37:35.127,8.154010,1.622853,11.060118,15.026412,0.000000,35.132504,-12.086871,1.586876,-0.170845,-0.359674,0.525065,0.561101,8.439583,-0.148957,-0.090059,-0.358190,2.930717,-0.281059,18.868387,-0.638757,0.717314,1,0,,38.990746,-76.937803,-5.031000,,,
2026-09-11T16:37:35.161,8.187419,1.623286,11.113893,15.030426,0.000000,34.980756,-12.034664,1.587609,-0.170785,-0.359546,0.513051,0.609974,8.460933,-0.052235,-0.026519,-0.358063,2.585425,-2.601116,11.676288,-0.508333,0.564659,1,0,,38.990746,-76.937803,-5.031000,,,
2026-09-11T16:37:35.195,8.220836,1.672254,11.170219,15.483831,0.000000,35.205289,-12.111911,1.635029,-0.187460,-0.394652,0.500450,0.659957,8.481827,0.000835,-0.015235,-0.393169,1.915435,-0.196918,11.420138,-0.419800,0.574100,1,0,,38.990746,-76.937803,-5.031000,,,
2026-09-11T16:37:35.228,8.254249,1.740479,11.228460,16.115546,0.000000,35.293866,-12.142385,1.701541,-0.179272,-0.377414,0.487551,0.711945,8.502857,-0.038679,-0.036056,-0.375930,1.604270,-2.335650,9.795863,-0.358709,0.444817,1,0,,38.990746,-76.937803,-5.031000,,,
2026-09-11T16:37:35.261,8.287658,1.740845,11.286701,16.118936,0.000000,36.352673,-12.506654,1.699536,-0.213593,-0.449669,0.473735,0.765350,8.523304,0.025291,-0.051104,-0.448185,-0.906625,-0.566726,10.535775,-0.456771,0.439350,1,0,,38.990746,-76.937803,-5.031000,,,
2026-09-11T16:37:35.295,8.321068,1.751043,11.345489,16.213359,0.000000,38.066541,-13.096287,1.705499,-0.220760,-0.464758,0.458460,0.819422,8.542383,0.017441,0.028485,-0.463274,-1.047448,-4.213035,9.557954,-0.551635,0.199845,1,0,,38.990746,-76.937803,-5.031000,,,
2026-09-11T16:37:35.328,8.354475,1.771086,11.403821,16.398944,0.000000,39.846326,-13.708598,1.720634,-0.217529,-0.457956,0.443047,0.874123,8.560722,0.018982,-0.056989,-0.456472,1.134139,-1.023226,9.612086,-0.502729,0.169094,1,0,,38.990746,-76.937803,-5.031000,,,
2026-09-11T16:37:35.361,8.387883,1.771652,11.463338,16.404183,0.000000,41.500455,-14.277679,1.716929,-0.228956,-0.482013,0.427346,0.929332,8.578166,0.012916,-0.004852,-0.480530,1.438243,-1.747741,8.104020,-0.434906,0.094373,1,0,,38.990746,-76.937803,-5.031000,,,
2026-09-11T16:37:35.395,8.421290,1.791853,11.523128,16.591234,0.000000,45.206281,-15.552619,1.726244,-0.248535,-0.523232,0.410555,0.985113,8.594274,-0.092738,0.024291,-0.521748,0.507298,-2.367620,11.444655,-0.426897,-0.014726,1,0,,38.990746,-76.937803,-5.031000,,,
2026-09-11T16:37:35.429,8.454699,1.772861,11.583465,16.415381,0.000000,48.065472,-16.536286,1.699535,-0.260923,-0.549311,0.392638,1.041107,8.608812,-0.055752,0.050033,-0.547828,0.099832,-1.108348,5.879381,-0.438294,-0.039188,1,0,,38.990746,-76.937803,-5.031000,,,
2026-09-11T16:37:35.462,8.488110,1.802548,11.642982,16.690258,0.000000,50.303937,-17.306400,1.720942,-0.284844,-0.599671,0.373444,1.097509,8.621706,-0.099367,0.079825,-0.598187,-0.756485,-1.274865,9.264735,-0.492992,-0.067785,1,0,,38.990746,-76.937803,-5.031000,,,
2026-09-11T16:37:35.495,8.521518,1.792995,11.702864,16.601803,0.000000,51.338712,-17.662401,1.708474,-0.267897,-0.563993,0.354006,1.154330,8.633459,-0.218489,-0.232384,-0.562509,-6.112093,-4.256773,-3.438506,-0.885035,-0.293388,1,0,,38.990746,-76.937803,-5.031000,,,
2026-09-11T16:37:35.529,8.554954,1.783124,11.762472,16.510408,0.000000,49.263669,-16.948510,1.705678,-0.264331,-0.556487,0.335274,1.211056,8.644369,0.056223,0.018923,-0.555003,2.196101,-1.273688,11.632648,-0.729559,-0.324472,1,0,,38.990746,-76.937803,-5.031000,,,
2026-09-11T16:37:35.562,8.588364,1.773696,11.820986,16.423110,0.000000,49.133893,-16.903862,1.697062,-0.263388,-0.554502,0.316715,1.267725,8.654222,-0.043950,0.041981,-0.553018,-1.646929,1.310855,6.388836,-0.821249,-0.188518,1,0,,38.990746,-76.937803,-5.031000,,,
2026-09-11T16:37:35.595,8.621777,1.764339,11.879500,16.336476,0.000000,49.214230,-16.931501,1.687862,-0.253592,-0.533879,0.298532,1.324235,8.663115,0.002720,-0.005863,-0.532395,0.970074,7.577991,8.442839,-0.742470,0.348901,1,0,,38.990746,-76.937803,-5.031000,,,
2026-09-11T16:37:35.630,8.655192,1.774151,11.939473,16.427326,0.000000,49.248563,-16.943313,1.697142,-0.255169,-0.537199,0.280637,1.380860,8.671117,0.015827,-0.114885,-0.535715,1.636338,0.449341,10.316988,-0.621481,0.419798,1,0,,38.990746,-76.937803,-5.031000,,,
2026-09-11T16:37:35.662,8.688605,1.764714,11.997623,16.339941,0.000000,49.218350,-16.932919,1.688207,-0.247446,-0.520939,0.262960,1.437593,8.678213,0.029038,-0.040674,-0.519455,-1.323407,-0.684406,8.424991,-0.691762,0.414448,1,0,,38.990746,-76.937803,-5.031000,,,
2026-09-11T16:37:35.696,8.722021,1.706674,12.054770,15.802539,0.000000,48.024960,-16.522349,1.636204,-0.228114,-0.480241,0.246232,1.493348,8.684520,0.022874,0.090292,-0.478757,-0.711472,-0.205842,9.867942,-0.719819,0.434068,1,0,,38.990746,-76.937803,-5.031000,,,
2026-09-11T16:37:35.730,8.755432,1.678213,12.110823,15.539006,0.000000,45.241986,-15.564903,1.616668,-0.192977,-0.406268,0.231422,1.547812,8.690544,0.081682,0.012896,-0.404784,-1.095599,0.298122,11.130548,-0.776505,0.477735,1,0,,38.990746,-76.937803,-5.031000,,,
2026-09-11T16:37:35.762,8.788845,1.620901,12.164234,15.008344,0.000000,42.125302,-14.492650,1.569324,-0.187035,-0.393758,0.218056,1.601114,8.696221,0.067704,0.042487,-0.392274,0.262034,-0.624586,9.156175,-0.749900,0.458690,1,0,,38.990746,-76.937803,-5.031000,,,
2026-09-11T16:37:35.796,8.822258,1.572759,12.216915,14.562581,0.000000,37.351056,-12.850134,1.533369,-0.167797,-0.353257,0.205576,1.653037,8.701327,0.030067,0.052842,-0.351774,-0.432571,0.391187,12.488475,-0.767700,0.500659,1,0,,38.990746,-76.937803,-5.031000,,,
2026-09-11T16:37:35.830,8.855670,1.573499,12.270234,14.569434,0.000000,34.537869,-11.882294,1.539783,-0.153436,-0.323023,0.194279,1.704420,8.706263,0.009021,-0.006353,-0.321540,0.926434,0.539856,8.020369,-0.700511,0.548917,1,0,,38.990746,-76.937803,-5.031000,,,
2026-09-11T16:37:35.863,8.889080,1.574057,12.322550,14.574602,0.000000,33.494168,-11.523223,1.542330,-0.141834,-0.298599,0.183894,1.755917,8.711096,0.017777,-0.001957,-0.297115,0.039423,0.694507,11.714142,-0.698924,0.604265,1,0,,38.990746,-76.937803,-5.031000,,,
2026-09-11T16:37:35.896,8.922488,1.574322,12.374867,14.577057,0.000000,31.721936,-10.913510,1.545849,-0.120003,-0.252638,0.174686,1.807456,8.715992,-0.037695,-0.008668,-0.251155,-4.629916,-3.125379,10.096829,-1.006227,0.407284,1,0,,38.990746,-76.937803,-5.031000,,,
2026-09-11T16:37:35.930,8.955896,1.525737,12.425725,14.127190,0.000000,30.153638,-10.373958,1.500796,-0.103328,-0.217533,0.166833,1.858241,8.720967,-0.061154,-0.046889,-0.216050,0.945753,-1.457072,6.077966,-0.957216,0.316301,1,0,,38.990746,-76.937803,-5.031000,,,
2026-09-11T16:37:35.963,8.989304,1.535446,12.476675,14.217089,0.000000,29.299451,-10.080086,1.511745,-0.122874,-0.258682,0.158878,1.908508,8.725396,-0.070596,-0.036261,-0.257199,1.389798,-3.027705,11.104658,-0.889065,0.128890,1,0,,38.990746,-76.937803,-5.031000,,,
2026-09-11T16:37:35.996,9.022712,1.594221,12.530085,14.761305,0.000000,27.060986,-9.309972,1.573221,-0.114084,-0.240177,0.150545,1.960035,8.729422,-0.044141,-0.036051,-0.238693,2.271907,-0.127977,9.674457,-0.775172,0.130311,1,0,,38.990746,-76.937803,-5.031000,,,
2026-09-11T16:37:36.031,9.056120,1.594923,12.584224,14.767802,0.000000,25.351239,-8.721757,1.576480,-0.119307,-0.251172,0.142338,2.012652,8.733242,0.035603,0.112440,-0.249689,-4.974423,0.027851,19.009701,-1.142739,0.142970,1,0,,38.990746,-76.937803,-5.031000,,,
2026-09-11T16:37:36.063,9.089528,1.566111,12.635812,14.501029,0.000000,24.638501,-8.476549,1.549003,-0.120754,-0.254220,0.133896,2.064914,8.736460,-0.037442,0.031749,-0.252736,-1.470409,0.290669,8.846579,-1.285928,0.172351,1,1,9.079883,38.990732,-76.937802,-5.140000,8.250943,-3.200005,3.392896
2026-09-11T16:37:36.097,9.122945,1.624843,12.690589,15.044842,0.000000,24.640561,-8.477257,1.607091,-0.112952,-0.237794,0.125675,2.117710,8.739409,-0.064240,0.029330,-0.236311,3.154211,0.787474,8.651623,-1.129592,0.232815,1,0,,38.990732,-76.937802,-5.140000,,,
2026-09-11T16:37:36.130,9.156355,1.683373,12.747645,15.586786,0.000000,24.683133,-8.491904,1.664918,-0.129909,-0.273492,0.117134,2.172456,8.741997,-0.050343,0.004715,-0.272009,0.857101,0.143667,11.114759,-1.124471,0.255675,1,0,,38.990732,-76.937802,-5.140000,,,
2026-09-11T16:37:36.163,9.189762,1.732466,12.804063,16.041348,0.000000,24.669400,-8.487179,1.713493,-0.127903,-0.269269,0.108068,2.229016,8.744055,-0.009049,0.001570,-0.267786,0.395208,-0.464835,11.433279,-1.151480,0.239302,1,0,,38.990732,-76.937802,-5.140000,,,
2026-09-11T16:37:36.197,9.223174,1.742647,12.862486,16.135624,0.000000,24.442120,-8.408986,1.723913,-0.132393,-0.278722,0.098913,2.286580,8.745661,-0.024309,-0.002989,-0.277239,1.336646,-1.008418,8.457647,-1.118852,0.189173,1,0,,38.990732,-76.937802,-5.140000,,,
2026-09-11T16:37:36.231,9.256582,1.801457,12.923370,16.680154,0.000000,24.486066,-8.424105,1.782020,-0.142490,-0.299979,0.089246,2.345316,8.746587,-0.031130,-0.007656,-0.298495,1.294576,-2.793228,11.429651,-1.084647,0.027630,1,0,,38.990732,-76.937802,-5.140000,,,
2026-09-11T16:37:36.264,9.289990,1.840721,12.984437,17.043717,0.000000,24.596616,-8.462138,1.820682,-0.148988,-0.313659,0.078996,2.405690,8.746788,0.026442,-0.050530,-0.312175,1.250642,-0.887306,9.397223,-1.049818,-0.006452,1,0,,38.990732,-76.937802,-5.140000,,,
2026-09-11T16:37:36.297,9.323399,1.899479,13.048055,17.587771,0.000000,25.744000,-8.856881,1.876830,-0.155933,-0.328280,0.068273,2.467661,8.746247,-0.001845,-0.057647,-0.326796,0.860632,-1.335077,9.764187,-1.041374,-0.066210,1,0,,38.990732,-76.937802,-5.140000,,,
2026-09-11T16:37:36.330,9.356807,1.919127,13.111947,17.769691,0.000000,29.319363,-10.086937,1.889463,-0.173936,-0.366180,0.056673,2.530793,8.744674,0.021386,-0.018049,-0.364696,1.477470,-0.057173,9.816065,-0.991762,-0.037732,1,0,,38.990732,-76.937802,-5.140000,,,
2026-09-11T16:37:36.364,9.390182,1.948293,13.176932,18.039749,0.000000,35.260907,-12.131046,1.904787,-0.200087,-0.421236,0.043533,2.594338,8.741610,-0.098494,-0.020750,-0.419752,0.133174,-3.362112,8.884727,-1.022665,-0.216048,1,0,,38.990732,-76.937802,-5.140000,,,
2026-09-11T16:37:36.397,9.423589,1.958530,13.243103,18.134539,0.000000,37.611981,-12.939902,1.908794,-0.226936,-0.477760,0.028516,2.658249,8.736775,-0.120148,-0.053007,-0.476276,0.005394,-2.910614,10.249224,-1.051113,-0.356258,1,0,,38.990732,-76.937802,-5.140000,,,
2026-09-11T16:37:36.432,9.457000,1.958900,13.309456,18.137967,0.000000,41.865063,-14.403118,1.897331,-0.251101,-0.528633,0.011704,2.721973,8.730072,-0.120709,-0.029888,-0.527150,0.225847,0.007159,9.840385,-1.056557,-0.300281,1,0,,38.990732,-76.937802,-5.140000,,,
2026-09-11T16:37:36.464,9.490410,1.968964,13.374806,18.231145,0.000000,44.580746,-15.337413,1.898839,-0.262840,-0.553347,-0.006370,2.785407,8.721655,-0.094933,0.000158,-0.551863,-0.172597,-1.931910,7.940837,-1.079049,-0.367277,1,0,,38.990732,-76.937802,-5.140000,,,
2026-09-11T16:37:36.497,9.523817,1.969166,13.440156,18.233014,0.000000,45.075131,-15.507499,1.897479,-0.255735,-0.538389,-0.024606,2.848675,8.712013,-0.029404,-0.017275,-0.536905,-0.154455,-0.343625,11.423375,-1.088946,-0.332672,1,0,,38.990732,-76.937802,-5.140000,,,
2026-09-11T16:37:36.531,9.557225,1.959799,13.506235,18.146288,0.000000,39.842206,-13.707181,1.903983,-0.232127,-0.488688,-0.041763,2.911871,8.701761,-0.012329,-0.033232,-0.487205,0.476701,0.919373,9.216780,-1.049379,-0.222642,1,0,,38.990732,-76.937802,-5.140000,,,
2026-09-11T16:37:36.564,9.590632,1.921464,13.570036,17.791335,0.000000,32.372876,-11.137457,1.885276,-0.183888,-0.387133,-0.056392,2.974752,8.691717,0.063472,-0.008759,-0.385650,0.273802,2.515700,10.004254,-1.020216,-0.023541,1,0,,38.990732,-76.937802,-5.140000,,,
2026-09-11T16:37:36.598,9.624039,1.941389,13.634930,17.975820,0.000000,28.433591,-9.782199,1.913162,-0.154891,-0.326087,-0.068305,3.037725,8.682113,0.014748,-0.041804,-0.324604,0.174068,-0.451989,13.760397,-0.997907,-0.025479,1,0,,38.990732,-76.937802,-5.140000,,,
2026-09-11T16:37:36.632,9.657450,1.912838,13.699733,17.711464,0.000000,23.791867,-8.185275,1.893352,-0.109384,-0.230281,-0.077600,3.100827,8.673077,-0.027537,-0.051930,-0.228798,-0.493373,-0.703039,9.242376,-1.020920,-0.055792,1,0,,38.990732,-76.937802,-5.140000,,,
2026-09-11T16:37:36.664,9.690860,1.874207,13.761529,17.353767,0.000000,21.476498,-7.388704,1.858644,-0.090620,-0.190779,-0.084633,3.163028,8.664670,-0.106157,-0.125895,-0.189295,-0.707158,-1.167384,11.301968,-1.059297,-0.121075,1,0,,38.990732,-76.937802,-5.140000,,,
2026-09-11T16:37:36.698,9.724269,1.835591,13.823507,16.996215,0.000000,20.475369,-7.044278,1.821736,-0.103601,-0.218108,-0.091464,3.223983,8.656034,0.079505,-0.042109,-0.216625,-0.946244,2.429500,14.860409,-1.114071,0.049832,1,0,,38.990732,-76.937802,-5.140000,,,
2026-09-11T16:37:36.732,9.757680,1.806603,13.883388,16.727808,0.000000,20.528241,-7.062468,1.792896,-0.096238,-0.202606,-0.098492,3.283778,8.646986,0.064652,-0.000517,-0.201123,-0.353824,-0.265270,10.726710,-1.129664,0.042301,1,0,,38.990732,-76.937802,-5.140000,,,
2026-09-11T16:37:36.766,9.791089,1.758634,13.941447,16.283652,0.000000,20.440350,-7.032231,1.745405,-0.094728,-0.199427,-0.105208,3.342253,8.637806,0.110436,0.028630,-0.197944,0.007355,0.118072,11.663932,-1.120885,0.058673,1,0,,38.990732,-76.937802,-5.140000,,,
2026-09-11T16:37:36.798,9.824504,1.768935,14.000599,16.379025,0.000000,20.509702,-7.056090,1.755537,-0.094651,-0.199265,-0.111869,3.400058,8.628324,0.095740,-0.010035,-0.197781,0.197506,-0.675188,11.051702,-1.101224,0.023648,1,0,,38.990732,-76.937802,-5.140000,,,
2026-09-11T16:37:36.832,9.857916,1.778816,14.061027,16.470518,0.000000,20.593472,-7.084910,1.765234,-0.108369,-0.228145,-0.119009,3.458092,8.618180,0.057967,0.030299,-0.226661,1.281141,-0.289590,9.254536,-1.010054,0.017388,1,0,,38.990732,-76.937802,-5.140000,,,
2026-09-11T16:37:36.865,9.891330,1.798720,14.120544,16.654818,0.000000,20.789166,-7.152236,1.784724,-0.107690,-0.226715,-0.126609,3.516513,8.607330,-0.036435,0.003795,-0.225232,0.246441,-0.300378,4.895676,-0.986395,0.010621,1,0,,38.990732,-76.937802,-5.140000,,,
2026-09-11T16:37:36.898,9.924743,1.828462,14.181337,16.930206,0.000000,20.923062,-7.198301,1.814051,-0.111699,-0.235157,-0.134325,3.575646,8.595873,-0.094975,-0.018857,-0.233673,1.239463,1.910630,10.522241,-0.902879,0.148412,1,0,,38.990732,-76.937802,-5.140000,,,
2026-09-11T16:37:36.932,9.958151,1.819241,14.242950,16.844820,0.000000,20.838605,-7.169245,1.805017,-0.118912,-0.250340,-0.142435,3.634990,8.583719,-0.060722,0.008297,-0.248857,0.329602,5.574983,10.791140,-0.884292,0.523412,1,0,,38.990732,-76.937802,-5.140000,,,
2026-09-11T16:37:36.965,9.991561,1.839133,14.303926,17.029011,0.000000,20.568066,-7.076170,1.825125,-0.094647,-0.199256,-0.149945,3.694466,8.571355,-0.143095,-0.015968,-0.197773,1.352043,0.898976,10.656593,-0.804998,0.586004,1,0,,38.990732,-76.937802,-5.140000,,,
2026-09-11T16:37:36.998,10.024971,1.810316,14.364445,16.762183,0.000000,16.694699,-5.743589,1.801227,-0.093658,-0.197175,-0.156567,3.753853,8.559000,-0.010375,-0.017389,-0.195692,0.095615,1.726755,8.442055,-0.811873,0.700925,1,0,,38.990732,-76.937802,-5.140000,,,
2026-09-11T16:37:37.032,10.058385,1.820769,14.426149,16.858970,0.000000,10.313016,-3.548056,1.817279,-0.076896,-0.161886,-0.162566,3.813087,8.546580,-0.013493,-0.002826,-0.160403,-0.288217,2.818137,8.614652,-0.846471,0.881295,1,0,,38.990732,-76.937802,-5.140000,,,
2026-09-11T16:37:37.065,10.091797,1.811383,14.485849,16.772063,0.000000,7.517682,-2.586358,1.809538,-0.038561,-0.081182,-0.166627,3.872542,8.534750,-0.019768,-0.008038,-0.079698,1.992711,0.696174,9.730845,-0.734406,0.912780,1,1,10.089423,38.990717,-76.937806,-5.202000,7.829905,-4.916298,3.214169
2026-09-11T16:37:37.098,10.125204,1.801545,14.546277,16.680977,0.000000,3.314725,-1.140387,1.801189,-0.013961,-0.029392,-0.168474,3.931864,8.523827,-0.013502,0.014804,-0.027908,1.795598,-1.554844,7.918674,-0.634526,0.792145,1,0,,38.990717,-76.937806,-5.202000,,,
2026-09-11T16:37:37.133,10.158618,1.811044,14.607343,16.768929,0.000000,-1.575565,0.542052,1.810963,0.006456,0.013591,-0.168738,3.991335,8.513576,0.020560,0.026321,0.015074,-1.586618,3.239725,11.229791,-0.750808,0.978168,1,0,,38.990717,-76.937806,-5.202000,,,
2026-09-11T16:37:37.166,10.192028,1.811278,14.667407,16.771095,0.000000,-4.899615,1.685648,1.810494,0.040392,0.085037,-0.167090,4.051111,8.504237,0.031178,0.119540,0.086520,0.033343,-3.180591,14.823634,-0.757151,0.738178,1,0,,38.990717,-76.937806,-5.202000,,,
2026-09-11T16:37:37.199,10.225440,1.821620,14.728382,16.866856,0.000000,-8.853320,3.045867,1.819047,0.048802,0.102742,-0.163953,4.111163,8.495717,0.062765,0.002144,0.104225,0.923002,3.668276,6.696863,-0.703196,0.942022,1,0,,38.990717,-76.937806,-5.202000,,,
2026-09-11T16:37:37.233,10.258851,1.831723,14.790087,16.960398,0.000000,-13.484744,4.639247,1.825722,0.072996,0.153676,-0.159670,4.171583,8.487916,0.019242,0.002477,0.155159,-0.826701,1.316347,10.297669,-0.762557,0.985308,1,0,,38.990717,-76.937806,-5.202000,,,
2026-09-11T16:37:37.266,10.292261,1.812305,14.850697,16.780604,0.000000,-14.995364,5.158956,1.804964,0.073088,0.153870,-0.154532,4.231868,8.480836,-0.010861,0.014180,0.155354,0.543092,-0.317637,10.144783,-0.731796,0.922531,1,0,,38.990717,-76.937806,-5.202000,,,
2026-09-11T16:37:37.299,10.325674,1.841871,14.911855,17.054365,0.000000,-15.088062,5.190847,1.834318,0.073517,0.154772,-0.149376,4.292337,8.474055,-0.014064,-0.004586,0.156255,0.202802,2.166877,13.016759,-0.722771,1.020878,1,0,,38.990717,-76.937806,-5.202000,,,
2026-09-11T16:37:37.333,10.359081,1.852356,14.973741,17.151445,0.000000,-15.261783,5.250613,1.844583,0.080377,0.169216,-0.143964,4.353502,8.467618,-0.026129,-0.062406,0.170699,0.703627,2.137948,8.846775,-0.681244,1.114427,1,0,,38.990717,-76.937806,-5.202000,,,
2026-09-11T16:37:37.366,10.392493,1.843170,15.035081,17.066386,0.000000,-15.373019,5.288883,1.835323,0.080389,0.169239,-0.138310,4.414746,8.461629,-0.019631,-0.040350,0.170723,1.001259,1.908374,10.319538,-0.620257,1.192196,1,0,,38.990717,-76.937806,-5.202000,,,
2026-09-11T16:37:37.399,10.425901,1.843534,15.096512,17.069759,0.000000,-15.611972,5.371091,1.835440,0.092645,0.195042,-0.132225,4.475891,8.456224,-0.031155,0.009038,0.196526,-0.470719,-0.167498,9.231392,-0.654110,1.131646,1,0,,38.990717,-76.937806,-5.202000,,,
2026-09-11T16:37:37.434,10.459309,1.805207,15.156667,16.714880,0.000000,-16.782016,5.773629,1.796049,0.108259,0.227915,-0.125160,4.536479,8.451765,-0.103889,0.015032,0.229398,0.533678,-0.780315,9.389769,-0.621065,1.028777,1,0,,38.990717,-76.937806,-5.202000,,,
2026-09-11T16:37:37.467,10.492720,1.815213,15.217369,16.807526,0.000000,-17.614917,6.060178,1.805069,0.112665,0.237190,-0.117390,4.596641,8.448151,-0.059583,0.040246,0.238674,-0.301064,0.227024,9.424877,-0.640304,0.991035,1,0,,38.990717,-76.937806,-5.202000,,,
2026-09-11T16:37:37.499,10.526128,1.795861,15.277068,16.628339,0.000000,-18.368167,6.319324,1.784949,0.113365,0.238663,-0.109441,4.656650,8.445115,0.025098,0.020645,0.240147,0.657046,-0.761094,9.622285,-0.597772,0.889900,1,0,,38.990717,-76.937806,-5.202000,,,
2026-09-11T16:37:37.534,10.559536,1.796199,15.338043,16.631472,0.000000,-19.418735,6.680757,1.784002,0.124654,0.262429,-0.101071,4.716353,8.442805,0.039854,0.021405,0.263913,0.713238,-3.272381,10.772703,-0.551019,0.624641,1,0,,38.990717,-76.937806,-5.202000,,,
2026-09-11T16:37:37.566,10.592958,1.796486,15.397104,16.634129,0.000000,-19.867801,6.835253,1.783717,0.124618,0.262353,-0.092301,4.776096,8.441196,0.127860,0.067050,0.263837,0.259582,-0.338231,10.935199,-0.531011,0.552201,1,0,,38.990717,-76.937806,-5.202000,,,
2026-09-11T16:37:37.600,10.626365,1.777298,15.456986,16.456463,0.000000,-19.862994,6.833599,1.764672,0.113508,0.238964,-0.083928,4.835487,8.439941,0.090991,-0.012232,0.240447,0.359414,1.560336,10.825365,-0.505367,0.606446,1,0,,38.990717,-76.937806,-5.202000,,,
2026-09-11T16:37:37.635,10.659779,1.787207,15.517049,16.548210,0.000000,-19.517612,6.714775,1.774947,0.110193,0.231986,-0.076059,4.894733,8.438941,0.098828,0.019496,0.233469,0.776589,1.817368,11.042582,-0.454242,0.677381,1,0,,38.990717,-76.937806,-5.202000,,,
2026-09-11T16:37:37.667,10.693192,1.768222,15.575290,16.372430,0.000000,-18.291949,6.293102,1.757567,0.104708,0.220437,-0.068501,4.953853,8.438259,0.053302,0.070672,0.221921,-0.874067,-2.118138,11.227143,-0.513047,0.494393,1,0,,38.990717,-76.937806,-5.202000,,,
2026-09-11T16:37:37.700,10.726603,1.768846,15.634534,16.378204,0.000000,-17.599811,6.054981,1.758978,0.095983,0.202070,-0.061443,5.012693,8.437791,0.028148,-0.000489,0.203554,0.413252,0.772176,10.463598,-0.491849,0.502564,1,0,,38.990717,-76.937806,-5.202000,,,
2026-09-11T16:37:37.735,10.760013,1.750139,15.693413,16.204989,0.000000,-17.424030,5.994506,1.740569,0.095301,0.200634,-0.054716,5.071239,8.437586,-0.094414,0.029815,0.202117,0.360100,-2.436854,9.406147,-0.479543,0.303397,1,0,,38.990717,-76.937806,-5.202000,,,
2026-09-11T16:37:37.767,10.793423,1.760641,15.752018,16.302234,0.000000,-17.062854,5.870248,1.751409,0.089034,0.187440,-0.048233,5.129653,8.437661,-0.006163,0.011369,0.188924,0.294003,2.062535,6.856614,-0.476879,0.398935,1,0,,38.990717,-76.937806,-5.202000,,,
2026-09-11T16:37:37.800,10.826833,1.741683,15.809986,16.126692,0.000000,-16.887759,5.810009,1.732736,0.089220,0.187831,-0.041964,5.187932,8.438010,0.011252,-0.001676,0.189315,0.073452,0.525931,10.085453,-0.493091,0.394168,1,0,,38.990717,-76.937806,-5.202000,,,
2026-09-11T16:37:37.835,10.860244,1.751863,15.869594,16.220951,0.000000,-16.891193,5.811190,1.742860,0.075204,0.158325,-0.036181,5.246056,8.438488,-0.006983,0.013668,0.159809,-0.207313,1.674486,10.462813,-0.534908,0.466982,1,0,,38.990717,-76.937806,-5.202000,,,
2026-09-11T16:37:37.867,10.893749,1.751859,15.927470,16.220916,0.000000,-16.814288,5.784732,1.742938,0.072976,0.153634,-0.030955,5.304503,8.439009,0.008329,0.005556,0.155118,0.286158,-0.303320,13.339594,-0.549577,0.411376,1,0,,38.990717,-76.937806,-5.202000,,,
2026-09-11T16:37:37.900,10.927156,1.761660,15.986349,16.311671,0.000000,-16.734637,5.757329,1.752774,0.069873,0.147101,-0.025932,5.362937,8.439734,-0.079519,-0.111093,0.148585,3.054183,-1.007535,21.354569,-0.387630,0.311630,1,0,,38.990717,-76.937806,-5.202000,,,
2026-09-11T16:37:37.935,10.960563,1.752007,16.045228,16.222287,0.000000,-16.455859,5.661420,1.743461,0.064487,0.135761,-0.021207,5.421373,8.440601,-0.021262,0.015161,0.137245,1.939657,-2.117746,14.408715,-0.301456,0.142534,1,0,,38.990717,-76.937806,-5.202000,,,
2026-09-11T16:37:37.968,10.993977,1.791296,16.104836,16.586070,0.000000,-15.679950,5.394478,1.783362,0.062592,0.131773,-0.016737,5.480326,8.441607,0.043194,-0.005605,0.133257,0.130723,1.611723,13.665371,-0.333831,0.216724,1,0,,38.990717,-76.937806,-5.202000,,,
2026-09-11T16:37:38.001,11.027386,1.820727,16.165720,16.858581,0.000000,-15.159473,5.215415,1.813189,0.062397,0.131361,-0.012342,5.540428,8.442822,-0.029357,0.076450,0.132845,1.058726,-0.237811,6.825919,-0.306304,0.170208,1,0,,38.990717,-76.937806,-5.202000,,,
2026-09-11T16:37:38.035,11.060798,1.849891,16.228062,17.128621,0.000000,-14.023074,4.824452,1.843337,0.057196,0.120413,-0.008136,5.601532,8.444196,-0.020002,-0.031405,0.121896,2.435285,-1.066571,11.460051,-0.189167,0.071629,1,0,,38.990717,-76.937806,-5.202000,,,
2026-09-11T16:37:38.068,11.094207,1.889057,16.290860,17.491267,0.000000,-13.463458,4.631924,1.882887,0.057497,0.121046,-0.004102,5.663787,8.445732,-0.052915,0.014326,0.122529,2.102154,-0.834938,8.424599,-0.092405,-0.011245,1,1,11.080709,38.990701,-76.937810,-5.261000,7.512145,-6.670584,3.778686
2026-09-11T16:37:38.101,11.127615,1.947997,16.355755,18.037006,0.000000,-12.272815,4.222299,1.942710,0.054674,0.115102,-0.000158,5.727692,8.447471,0.010578,0.014629,0.116586,0.863966,-1.984474,11.934007,-0.073900,-0.167278,1,0,,38.990701,-76.937810,-5.261000,,,
2026-09-11T16:37:38.135,11.161027,1.958396,16.421378,18.133296,0.000000,-10.487537,3.608097,1.954514,0.040136,0.084496,0.003177,5.792797,8.449154,-0.039253,-0.000689,0.085980,1.716458,-0.608012,3.397122,-0.000510,-0.228765,1,0,,38.990701,-76.937810,-5.261000,,,
2026-09-11T16:37:38.168,11.194435,1.978198,16.487275,18.316645,0.000000,-7.764301,2.671204,1.976048,0.030097,0.063361,0.005647,5.858449,8.450617,-0.024104,0.048887,0.064845,0.509063,-1.492376,11.130450,-0.006100,-0.344187,1,0,,38.990701,-76.937810,-5.261000,,,
2026-09-11T16:37:38.201,11.227848,1.969124,16.553992,18.232628,0.000000,-6.036014,2.076610,1.967831,0.024337,0.051236,0.007561,5.924330,8.451962,-0.024207,-0.014109,0.052719,0.084631,0.318128,10.318361,-0.032798,-0.339634,1,0,,38.990701,-76.937810,-5.261000,,,
2026-09-11T16:37:38.236,11.261259,1.969116,16.620254,18.232557,0.000000,-5.942630,2.044483,1.967863,0.028595,0.060201,0.009423,5.990067,8.453404,-0.082292,0.093479,0.061684,0.584280,-1.068042,4.937648,-0.018040,-0.425945,1,0,,38.990701,-76.937810,-5.261000,,,
2026-09-11T16:37:38.268,11.294664,1.969275,16.685057,18.234026,0.000000,-6.051807,2.082044,1.967975,0.043526,0.091634,0.011959,6.055789,8.455311,-0.091289,0.027070,0.093118,5.439357,-4.239513,6.823761,0.317082,-0.720414,1,0,,38.990701,-76.937810,-5.261000,,,
2026-09-11T16:37:38.302,11.328076,1.950284,16.749769,18.058187,0.000000,-9.750079,3.354385,1.946943,0.059595,0.125463,0.015586,6.121161,8.457934,0.174651,0.073539,0.126946,3.672100,5.527420,5.138587,0.541494,-0.383978,1,0,,38.990701,-76.937810,-5.261000,,,
2026-09-11T16:37:38.336,11.361485,1.931207,16.815849,17.881546,0.000000,-17.194003,5.915368,1.920924,0.114459,0.240967,0.021706,6.185702,8.462044,0.106656,0.042393,0.242450,-1.117370,-5.395815,7.326058,0.461242,-0.772009,1,0,,38.990701,-76.937810,-5.261000,,,
2026-09-11T16:37:38.368,11.394894,1.921744,16.880652,17.793921,0.000000,-16.874713,5.805521,1.911887,0.085455,0.179905,0.028737,6.249625,8.466997,0.183327,-0.010225,0.181389,-3.239038,5.528891,13.678904,0.249103,-0.441385,1,0,,38.990701,-76.937810,-5.261000,,,
2026-09-11T16:37:38.402,11.428305,1.941456,16.944999,17.976446,0.000000,-16.444186,5.657404,1.932000,0.101097,0.212835,0.035298,6.313705,8.472168,0.064084,-0.028856,0.214319,0.224866,-4.728473,5.718062,0.266879,-0.782293,1,0,,38.990701,-76.937810,-5.261000,,,
2026-09-11T16:37:38.436,11.461720,1.922353,17.010258,17.799568,0.000000,-16.395435,5.640631,1.913045,0.106123,0.223416,0.042587,6.377762,8.478128,0.080423,-0.053349,0.224899,-0.345390,-0.384617,6.914963,0.250239,-0.839480,1,0,,38.990701,-76.937810,-5.261000,,,
2026-09-11T16:37:38.469,11.495133,1.874369,17.071963,17.355270,0.000000,-16.578769,5.703705,1.865089,0.094789,0.199556,0.049653,6.440660,8.484388,-0.022709,-0.058403,0.201039,-0.444143,2.843732,13.619868,0.223765,-0.683612,1,0,,38.990701,-76.937810,-5.261000,,,
2026-09-11T16:37:38.502,11.528543,1.855811,17.134032,17.183433,0.000000,-17.134952,5.895052,1.845997,0.111876,0.235529,0.056921,6.502380,8.491136,-0.158119,-0.036048,0.237012,-0.592126,-6.702943,11.426611,0.184024,-1.151050,1,0,,38.990701,-76.937810,-5.261000,,,
2026-09-11T16:37:38.536,11.561955,1.836828,17.195736,17.007671,0.000000,-18.231525,6.272314,1.825833,0.128672,0.270889,0.065381,6.563360,8.498894,0.014768,0.030368,0.272372,-0.299005,1.247504,8.619163,0.160841,-1.102914,1,0,,38.990701,-76.937810,-5.261000,,,
2026-09-11T16:37:38.569,11.595379,1.817769,17.256073,16.831193,0.000000,-21.149081,7.276060,1.803131,0.126729,0.266797,0.074367,6.623560,8.507384,-0.056447,0.005982,0.268280,0.127585,3.822926,10.387792,0.160630,-0.887764,1,0,,38.990701,-76.937810,-5.261000,,,
2026-09-11T16:37:38.602,11.628793,1.827672,17.316866,16.922888,0.000000,-26.602420,9.152209,1.804404,0.162143,0.341353,0.084527,6.683255,8.516978,-0.021812,0.048111,0.342836,0.078453,3.746042,9.579822,0.154095,-0.688751,1,0,,38.990701,-76.937810,-5.261000,,,
2026-09-11T16:37:38.636,11.662206,1.837454,17.378844,17.013465,0.000000,-31.472797,10.827797,1.804741,0.183989,0.387344,0.096701,6.742777,8.528193,-0.070360,0.038658,0.388828,0.396581,0.347352,8.603963,0.169932,-0.717193,1,0,,38.990701,-76.937810,-5.261000,,,
2026-09-11T16:37:38.669,11.695642,1.828090,17.439181,16.926755,0.000000,-36.221637,12.461572,1.785021,0.210318,0.442775,0.110580,6.801783,8.540956,0.038654,0.014248,0.444259,-1.435694,7.703222,9.037318,0.066938,-0.275038,1,0,,38.990701,-76.937810,-5.261000,,,
2026-09-11T16:37:38.702,11.729052,1.838271,17.500521,17.021032,0.000000,-43.322238,14.904440,1.776425,0.219803,0.462744,0.125706,6.860013,8.555102,0.040894,-0.029455,0.464228,-0.369515,5.862121,9.201286,0.027444,0.040757,1,0,,38.990701,-76.937810,-5.261000,,,
2026-09-11T16:37:38.737,11.762465,1.896922,17.564230,17.564097,0.000000,-43.338031,14.909873,1.833056,0.254458,0.535701,0.142386,6.918706,8.571019,0.063833,0.019279,0.537184,0.966642,-0.409820,11.226261,0.070593,-0.063065,1,0,,38.990701,-76.937810,-5.261000,,,
2026-09-11T16:37:38.769,11.795877,1.906849,17.627575,17.656007,0.000000,-44.773120,15.403596,1.838352,0.267976,0.564160,0.160761,6.978016,8.588908,0.041851,-0.015780,0.565644,-0.362258,2.628575,9.102827,0.026485,0.027285,1,0,,38.990701,-76.937810,-5.261000,,,
2026-09-11T16:37:38.803,11.829292,1.926567,17.691923,17.838587,0.000000,-45.144595,15.531397,1.856217,0.277184,0.583544,0.179936,7.037300,8.608350,-0.007201,-0.015040,0.585028,0.028439,1.960742,12.025209,0.005256,0.070447,1,0,,38.990701,-76.937810,-5.261000,,,
2026-09-11T16:37:38.837,11.862699,1.936811,17.757182,17.933432,0.000000,-44.836978,15.425566,1.867041,0.275860,0.580758,0.199384,7.096632,8.629148,0.011691,-0.040914,0.582242,0.751778,3.088899,4.265991,0.028394,0.186039,1,0,,38.990701,-76.937810,-5.261000,,,
2026-09-11T16:37:38.870,11.896111,1.937646,17.820800,17.941166,0.000000,-44.156512,15.191461,1.869936,0.260897,0.549256,0.218262,7.155847,8.650863,-0.038535,-0.047849,0.550740,-0.110521,-1.088734,10.273153,-0.005631,0.033757,1,0,,38.990701,-76.937810,-5.261000,,,
2026-09-11T16:37:38.903,11.929522,1.918717,17.885239,17.765902,0.000000,-44.200458,15.206580,1.851536,0.248753,0.523691,0.236186,7.214499,8.673159,0.051779,-0.035226,0.525174,1.112663,4.997273,9.637682,0.038854,0.280661,1,0,,38.990701,-76.937810,-5.261000,,,
2026-09-11T16:37:38.937,11.962930,1.938680,17.950680,17.950736,0.000000,-44.044589,15.152955,1.871274,0.261676,0.550896,0.254136,7.272751,8.696526,0.045697,-0.105281,0.552380,-0.207313,2.299758,8.775383,-0.001359,0.346334,1,0,,38.990701,-76.937810,-5.261000,,,
2026-09-11T16:37:38.970,11.996342,1.958216,18.014663,18.131631,0.000000,-44.512881,15.314065,1.888685,0.262644,0.552935,0.272577,7.331116,8.721336,0.061429,0.039558,0.554419,1.569260,-0.256444,15.066153,0.078496,0.245005,1,0,,38.990701,-76.937810,-5.261000,,,
2026-09-11T16:37:39.003,12.029752,1.938670,18.079193,17.950647,0.000000,-44.420184,15.282174,1.870118,0.263440,0.554611,0.291078,7.388983,8.747237,0.103241,-0.119631,0.556094,0.705098,0.290767,12.163090,0.105896,0.180677,1,0,,38.990701,-76.937810,-5.261000,,,
2026-09-11T16:37:39.038,12.063165,1.929481,18.144543,17.865569,0.000000,-44.308948,15.243904,1.861593,0.262080,0.551748,0.309562,7.445937,8.774064,0.076458,-0.031532,0.553232,1.485806,1.432261,9.963655,0.186082,0.191571,1,1,12.072675,38.990684,-76.937809,-5.344000,7.608366,-8.529577,3.020394
2026-09-11T16:37:39.070,12.096575,1.939663,18.208526,17.959846,0.000000,-44.109134,15.175161,1.872027,0.268730,0.565748,0.328229,7.502379,8.802038,-0.003808,-0.035942,0.567231,0.971741,1.395781,8.800488,0.234801,0.197914,1,0,,38.990684,-76.937809,-5.344000,,,
2026-09-11T16:37:39.104,12.129988,1.949750,18.273785,18.053242,0.000000,-44.177798,15.198784,1.881552,0.266603,0.561269,0.347058,7.558583,8.831250,0.016028,-0.059257,0.562753,0.520537,4.577940,10.231768,0.257350,0.410309,1,0,,38.990684,-76.937809,-5.344000,,,
2026-09-11T16:37:39.138,12.163401,1.959776,18.339864,18.146070,0.000000,-44.288348,15.236817,1.890885,0.281049,0.591681,0.366320,7.614440,8.861829,-0.002905,-0.010222,0.593165,-1.243385,1.813446,5.852413,0.167514,0.437396,1,0,,38.990684,-76.937809,-5.344000,,,
2026-09-11T16:37:39.170,12.196811,1.950724,18.403482,18.062259,0.000000,-45.659579,15.708571,1.877867,0.289621,0.609728,0.386389,7.669483,8.893830,-0.028438,-0.045024,0.611212,-0.293415,-1.679781,10.954224,0.143917,0.236451,1,0,,38.990684,-76.937809,-5.344000,,,
2026-09-11T16:37:39.204,12.230221,1.922108,18.467830,17.797295,0.000000,-47.653598,16.394586,1.843956,0.303473,0.638890,0.407248,7.722994,8.926989,-0.019340,0.028208,0.640373,-0.291552,1.046664,12.370109,0.124549,0.212010,1,0,,38.990684,-76.937809,-5.344000,,,
2026-09-11T16:37:39.238,12.263707,1.942183,18.533909,17.983175,0.000000,-50.481891,17.367623,1.853637,0.305169,0.642460,0.428701,7.775432,8.961430,-0.019725,-0.014250,0.643944,0.448164,1.340961,9.830284,0.151900,0.206039,1,0,,38.990684,-76.937809,-5.344000,,,
2026-09-11T16:37:39.271,12.297120,1.942680,18.598074,17.987778,0.000000,-54.791278,18.850210,1.838487,0.318100,0.669684,0.450623,7.826813,8.997102,0.010433,0.002772,0.671167,-0.008532,-0.385499,7.649481,0.147903,0.085823,1,0,,38.990684,-76.937809,-5.344000,,,
2026-09-11T16:37:39.304,12.330529,1.942864,18.662969,17.989483,0.000000,-55.208072,18.993603,1.837085,0.331788,0.698500,0.473477,7.876928,9.034186,0.034517,-0.021396,0.699984,-0.920452,1.959565,10.533813,0.086871,0.115314,1,0,,38.990684,-76.937809,-5.344000,,,
2026-09-11T16:37:39.338,12.363938,1.933148,18.728319,17.899514,0.000000,-55.837726,19.210227,1.825505,0.345937,0.728289,0.497311,7.925756,9.072738,0.039921,-0.358550,0.729773,-1.599465,1.884740,13.013327,-0.013922,0.136642,1,0,,38.990684,-76.937809,-5.344000,,,
2026-09-11T16:37:39.371,12.397351,1.904037,18.790479,17.629968,0.000000,-56.478366,19.430631,1.795592,0.330951,0.696739,0.521118,7.973066,9.112096,0.086552,-0.073585,0.698222,2.905122,0.737460,13.401376,0.182130,0.088576,1,0,,38.990684,-76.937809,-5.344000,,,
2026-09-11T16:37:39.404,12.430760,1.884930,18.853277,17.453053,0.000000,-56.174869,19.326216,1.778713,0.340139,0.716081,0.544719,8.018795,9.152079,-0.013755,0.063155,0.717565,-0.126408,-5.078766,8.272106,0.181238,-0.336684,1,0,,38.990684,-76.937809,-5.344000,,,
2026-09-11T16:37:39.438,12.464171,1.846401,18.915619,17.096308,0.000000,-57.170505,19.668752,1.738672,0.323859,0.681808,0.568071,8.062837,9.192524,-0.008177,0.109995,0.683292,-1.325173,-0.096105,8.743707,0.100638,-0.429178,1,0,,38.990684,-76.937809,-5.344000,,,
2026-09-11T16:37:39.471,12.497581,1.866131,18.977688,17.278994,0.000000,-57.512454,19.786395,1.755957,0.327845,0.690200,0.590991,8.105716,9.233602,0.010128,-0.026187,0.691683,-2.290343,1.071965,9.689853,-0.039787,-0.446798,1,0,,38.990684,-76.937809,-5.344000,,,
2026-09-11T16:37:39.504,12.530990,1.876495,19.039848,17.374956,0.000000,-59.109592,20.335869,1.759536,0.317757,0.668962,0.613694,8.147993,9.275759,-0.042021,0.057945,0.670446,0.532795,4.163609,6.313521,0.006816,-0.261974,1,0,,38.990684,-76.937809,-5.344000,,,
2026-09-11T16:37:39.538,12.564401,1.876836,19.103102,17.378109,0.000000,-61.244373,21.070312,1.751350,0.352649,0.742420,0.637273,8.188976,9.319170,-0.005466,0.017442,0.743903,-1.367243,2.794209,8.581309,-0.069770,-0.175737,1,0,,38.990684,-76.937809,-5.344000,,,
2026-09-11T16:37:39.571,12.597817,1.867731,19.165080,17.293802,0.000000,-63.972415,22.008858,1.731622,0.353813,0.744868,0.662122,8.228173,9.363766,-0.054503,0.041250,0.746352,-1.087263,0.280470,10.973347,-0.128090,-0.252421,1,0,,38.990684,-76.937809,-5.344000,,,
2026-09-11T16:37:39.605,12.631230,1.858574,19.226511,17.209019,0.000000,-65.382785,22.494077,1.717172,0.358156,0.754012,0.687163,8.265736,9.409036,-0.030177,0.040519,0.755495,0.360002,1.091774,12.474157,-0.093048,-0.276076,1,0,,38.990684,-76.937809,-5.344000,,,
2026-09-11T16:37:39.639,12.664641,1.829761,19.288580,16.942227,0.000000,-66.745776,22.962996,1.684765,0.359871,0.757623,0.712415,8.301486,9.454805,-0.026363,0.054795,0.759107,0.118072,1.733031,11.595383,-0.075364,-0.256796,1,0,,38.990684,-76.937809,-5.344000,,,
2026-09-11T16:37:39.672,12.698051,1.840209,19.349008,17.038975,0.000000,-67.354831,23.172534,1.691749,0.368692,0.776194,0.738038,8.335618,9.501322,0.025035,0.112207,0.777677,0.344704,0.637726,9.976501,-0.043269,-0.310961,1,0,,38.990684,-76.937809,-5.344000,,,
2026-09-11T16:37:39.705,12.731465,1.820739,19.409801,16.858690,0.000000,-67.996158,23.393174,1.671077,0.374746,0.788939,0.764187,8.368207,9.548736,0.059452,0.047970,0.790422,0.048935,3.375351,9.492739,-0.031347,-0.187747,1,0,,38.990684,-76.937809,-5.344000,,,
2026-09-11T16:37:39.739,12.764875,1.791523,19.470047,16.588171,0.000000,-68.811206,23.673580,1.640762,0.367985,0.774706,0.790308,8.398947,9.596373,-0.178790,0.100786,0.776189,1.135904,-0.516026,17.889389,0.048290,-0.314601,1,0,,38.990684,-76.937809,-5.344000,,,
2026-09-11T16:37:39.772,12.798287,1.772273,19.528835,16.409939,0.000000,-69.039172,23.752009,1.622157,0.358189,0.754083,0.815847,8.428077,9.644012,-0.212189,0.151677,0.755566,-0.451400,-2.039391,5.489174,0.020875,-0.535499,1,0,,38.990684,-76.937809,-5.344000,,,
2026-09-11T16:37:39.805,12.831701,1.772503,19.587987,16.412067,0.000000,-69.584369,23.939576,1.620022,0.392088,0.825448,0.842237,8.455423,9.692408,0.074664,-0.018052,0.826932,2.345555,2.539334,14.254751,0.170628,-0.465115,1,0,,38.990684,-76.937809,-5.344000,,,
2026-09-11T16:37:39.841,12.865110,1.772939,19.648233,16.416100,0.000000,-69.708652,23.982334,1.619882,0.399000,0.840000,0.870057,8.480906,9.741940,0.066506,0.031392,0.841484,-0.133959,-2.776361,10.253441,0.154057,-0.740881,1,0,,38.990684,-76.937809,-5.344000,,,
2026-09-11T16:37:39.875,12.898522,1.744230,19.706383,16.150277,0.000000,-69.841872,24.028167,1.593084,0.379158,0.798227,0.897426,8.504906,9.791679,-0.019360,0.039939,0.799710,1.045389,-0.091986,9.368587,0.207392,-0.834206,1,0,,38.990684,-76.937809,-5.344000,,,
2026-09-11T16:37:39.906,12.931932,1.744962,19.764988,16.157055,0.000000,-69.906416,24.050373,1.593477,0.358645,0.755041,0.923373,8.527827,9.841278,0.035850,0.063428,0.756525,-1.802855,1.436086,10.727691,0.071659,-0.823215,1,0,,38.990684,-76.937809,-5.344000,,,
2026-09-11T16:37:39.939,12.965345,1.687137,19.820586,15.621634,0.000000,-70.786009,24.352985,1.537019,0.340047,0.715889,0.947947,8.549469,9.890297,0.053530,-0.017631,0.717373,0.720691,2.370856,4.706898,0.096349,-0.745223,1,0,,38.990684,-76.937809,-5.344000,,,
2026-09-11T16:37:39.973,12.998754,1.736304,19.879192,16.076890,0.000000,-70.909605,24.395506,1.581280,0.373228,0.785742,0.973031,8.569546,9.939807,0.091111,0.003422,0.787226,-0.536914,1.151693,12.184174,0.033037,-0.756159,1,0,,38.990684,-76.937809,-5.344000,,,
2026-09-11T16:37:40.006,13.032162,1.755924,19.937341,16.258555,0.000000,-71.539946,24.612367,1.596392,0.378551,0.796950,0.999469,8.588358,9.991000,0.108423,-0.049525,0.798434,-0.184855,0.044914,6.912708,-0.010686,-0.840485,1,0,,38.990684,-76.937809,-5.344000,,,
2026-09-11T16:37:40.039,13.065577,1.795238,19.997861,16.622578,0.000000,-71.949187,24.753161,1.630292,0.395581,0.832801,1.026697,8.605906,10.043581,0.071639,-0.027707,0.834285,0.320089,2.896492,8.568855,-0.024312,-0.744944,1,1,13.072707,38.990672,-76.937795,-5.389000,8.783615,-9.835933,3.288081
2026-09-11T16:37:40.073,13.098985,1.795701,20.057925,16.626865,0.000000,-71.535140,24.610713,1.632577,0.391470,0.824147,1.054375,8.622128,10.097244,-0.012874,-0.028993,0.825630,-1.161598,4.291096,8.924542,-0.136351,-0.559482,1,0,,38.990672,-76.937795,-5.389000,,,
2026-09-11T16:37:40.106,13.132397,1.824891,20.118262,16.897142,0.000000,-71.064787,24.448895,1.661255,0.390369,0.821829,1.081873,8.637185,10.151755,-0.005812,-0.054849,0.823313,0.783747,2.841085,9.891085,-0.125941,-0.471129,1,0,,38.990672,-76.937795,-5.389000,,,
2026-09-11T16:37:40.139,13.165807,1.844522,20.179966,17.078912,0.000000,-69.130507,23.783431,1.687879,0.377023,0.793732,1.108861,8.651391,10.207367,-0.023512,0.029811,0.795215,0.591341,3.701324,10.685914,-0.132520,-0.326454,1,0,,38.990672,-76.937795,-5.389000,,,
2026-09-11T16:37:40.173,13.199216,1.854584,20.241579,17.172071,0.000000,-68.391676,23.529246,1.700387,0.377682,0.795120,1.135402,8.664579,10.263829,-0.080114,0.000172,0.796604,0.573199,0.504552,10.647963,-0.143745,-0.390975,1,0,,38.990672,-76.937795,-5.389000,,,
2026-09-11T16:37:40.206,13.232626,1.894092,20.305471,17.537891,0.000000,-67.203093,23.120330,1.741963,0.387695,0.816199,1.162318,8.676453,10.321521,-0.061383,0.091150,0.817683,-1.407254,-1.247896,15.940220,-0.284760,-0.572655,1,0,,38.990672,-76.937795,-5.389000,,,
2026-09-11T16:37:40.239,13.266032,1.894518,20.368360,17.541832,0.000000,-65.970564,22.696295,1.747812,0.341747,0.719468,1.187969,8.687678,10.380009,-0.137427,0.059128,0.720951,-0.084926,1.134139,6.702943,-0.336537,-0.587607,1,0,,38.990672,-76.937795,-5.389000,,,
2026-09-11T16:37:40.273,13.299442,1.894698,20.431523,17.543500,0.000000,-64.725676,22.268008,1.753394,0.345746,0.727887,1.212147,8.698162,10.438679,-0.113281,0.025406,0.729371,0.188876,3.083603,9.937275,-0.365903,-0.477506,1,0,,38.990672,-76.937795,-5.389000,,,
2026-09-11T16:37:40.307,13.332851,1.914577,20.496600,17.727564,0.000000,-64.127607,22.062250,1.774385,0.351017,0.738984,1.236651,8.707217,10.498057,-0.121087,-0.004199,0.740467,1.389210,1.963782,11.405526,-0.314991,-0.443322,1,0,,38.990672,-76.937795,-5.389000,,,
2026-09-11T16:37:40.340,13.366259,1.934723,20.560765,17.914101,0.000000,-64.128980,22.062723,1.793049,0.347771,0.732149,1.261224,8.714990,10.558276,-0.096166,0.018938,0.733632,0.441201,1.502379,8.107942,-0.323154,-0.439464,1,0,,38.990672,-76.937795,-5.389000,,,
2026-09-11T16:37:40.376,13.399671,1.964445,20.627118,18.189310,0.000000,-64.371366,22.146112,1.819520,0.357190,0.751979,1.286018,8.721394,10.619425,-0.101397,-0.086954,0.753462,0.120033,1.493259,10.942751,-0.346841,-0.439827,1,0,,38.990672,-76.937795,-5.389000,,,
2026-09-11T16:37:40.410,13.433079,1.984408,20.693288,18.374144,0.000000,-65.004453,22.363917,1.835152,0.358502,0.754740,1.311186,8.726289,10.681436,-0.069145,0.009274,0.756224,0.949578,1.096580,11.335605,-0.311272,-0.466933,1,0,,38.990672,-76.937795,-5.389000,,,
2026-09-11T16:37:40.441,13.466492,1.975067,20.758912,18.287655,0.000000,-66.788358,22.977646,1.818359,0.376539,0.792713,1.337038,8.729287,10.743614,-0.060231,-0.057489,0.794197,0.027753,1.469134,7.982907,-0.329525,-0.473287,1,0,,38.990672,-76.937795,-5.389000,,,
2026-09-11T16:37:40.474,13.499901,2.014051,20.825720,18.648617,0.000000,-67.551222,23.240099,1.850629,0.401681,0.845644,1.364407,8.729972,10.806253,0.020254,-0.092713,0.847127,-1.163069,2.696535,9.639447,-0.420260,-0.408163,1,0,,38.990672,-76.937795,-5.389000,,,
2026-09-11T16:37:40.509,13.533317,2.014411,20.893440,18.651950,0.000000,-68.817396,23.675710,1.844864,0.414987,0.873657,1.393133,8.728363,10.869456,0.101777,-0.084804,0.875140,0.378733,0.590164,11.226261,-0.407047,-0.483059,1,0,,38.990672,-76.937795,-5.389000,,,
2026-09-11T16:37:40.541,13.566728,2.005125,20.960248,18.565975,0.000000,-68.951292,23.721775,1.835712,0.423562,0.891708,1.422624,8.724515,10.932390,0.169552,-0.022133,0.893192,-0.115718,3.229722,8.145109,-0.421865,-0.387987,1,0,,38.990672,-76.937795,-5.389000,,,
2026-09-11T16:37:40.574,13.600144,2.015286,21.027877,18.660051,0.000000,-68.864088,23.691773,1.845438,0.414298,0.872207,1.452095,8.718822,10.995206,0.162842,-0.096872,0.873690,-0.229083,-0.246735,11.991866,-0.440298,-0.517114,1,0,,38.990672,-76.937795,-5.389000,,,
2026-09-11T16:37:40.607,13.633556,1.986402,21.093409,18.392615,0.000000,-68.018827,23.400973,1.823017,0.402332,0.847014,1.480817,8.711642,11.057576,0.184352,-0.072581,0.848497,0.763154,1.425200,9.296410,-0.392464,-0.532397,1,0,,38.990672,-76.937795,-5.389000,,,
2026-09-11T16:37:40.641,13.666963,1.977137,21.160218,18.306821,0.000000,-66.690168,22.943865,1.820720,0.384961,0.810445,1.508502,8.703161,11.119260,0.201849,-0.051060,0.811929,-0.671952,2.157757,8.693399,-0.435956,-0.495693,1,0,,38.990672,-76.937795,-5.389000,,,
2026-09-11T16:37:40.674,13.700377,1.929234,21.223927,17.863275,0.000000,-66.018629,22.712831,1.779625,0.367995,0.774725,1.534985,8.693556,11.179953,0.183618,-0.065746,0.776209,-1.212396,1.783928,10.491056,-0.514542,-0.477305,1,0,,38.990672,-76.937795,-5.389000,,,
2026-09-11T16:37:40.707,13.733786,1.930146,21.288822,17.871722,0.000000,-66.434049,22.855751,1.778602,0.365953,0.770428,1.560797,8.682662,11.239653,0.188384,-0.018055,0.771911,-0.688329,1.250250,8.842362,-0.558665,-0.493100,1,0,,38.990672,-76.937795,-5.389000,,,
2026-09-11T16:37:40.741,13.767196,1.911475,21.352896,17.698840,0.000000,-66.834364,22.993474,1.759607,0.372171,0.783517,1.586755,8.670160,11.298716,0.133142,0.019339,0.785001,-1.690176,0.994394,7.414612,-0.666425,-0.525815,1,0,,38.990672,-76.937795,-5.389000,,,
2026-09-11T16:37:40.774,13.800607,1.892435,21.415329,17.522545,0.000000,-67.183866,23.113715,1.740525,0.375379,0.790271,1.613046,8.655981,11.356794,0.064838,-0.022263,0.791754,-0.342056,0.809539,10.775939,-0.687524,-0.569919,1,0,,38.990672,-76.937795,-5.389000,,,
2026-09-11T16:37:40.808,13.834018,1.873326,21.478856,17.345613,0.000000,-67.271757,23.143953,1.722561,0.369893,0.778722,1.639257,8.640355,11.413865,0.047409,-0.017665,0.780205,0.394522,2.177567,6.904274,-0.658142,-0.522833,1,0,,38.990672,-76.937795,-5.389000,,,
2026-09-11T16:37:40.841,13.867432,1.873142,21.540925,17.343910,0.000000,-66.667509,22.936070,1.725052,0.367264,0.773188,1.665185,8.623396,11.470268,0.048747,0.085899,0.774672,-1.270452,2.777734,3.533336,-0.735396,-0.436942,1,0,,38.990672,-76.937795,-5.389000,,,
2026-09-11T16:37:40.875,13.900840,1.882956,21.604179,17.434779,0.000000,-65.583982,22.563297,1.738828,0.352294,0.741672,1.690489,8.605262,11.526512,0.083536,0.052048,0.743156,2.660348,2.888843,11.525266,-0.559775,-0.341972,1,0,,38.990672,-76.937795,-5.389000,,,
2026-09-11T16:37:40.908,13.934248,1.864130,21.666704,17.260464,0.000000,-62.241392,21.413323,1.735451,0.346421,0.729308,1.715060,8.586057,11.582502,0.038832,0.012873,0.730792,-0.217315,0.692938,6.807580,-0.572627,-0.388549,1,0,,38.990672,-76.937795,-5.389000,,,
2026-09-11T16:37:40.941,13.967661,1.855009,21.728044,17.176011,0.000000,-57.115582,19.649856,1.746983,0.320289,0.674292,1.738509,8.566014,11.638245,0.030905,-0.076691,0.675775,-0.805911,-0.988903,8.117651,-0.621276,-0.537747,1,0,,38.990672,-76.937795,-5.389000,,,
2026-09-11T16:37:40.975,14.001070,1.845753,21.789657,17.090310,0.000000,-52.179975,17.951826,1.755895,0.286744,0.603672,1.759857,8.545650,11.694034,0.016779,-0.029462,0.605156,-0.363042,-1.349689,9.289742,-0.636418,-0.700979,1,0,,38.990672,-76.937795,-5.389000,,,
2026-09-11T16:37:41.009,14.034481,1.826508,21.851361,16.912110,0.000000,-44.089229,15.168313,1.762875,0.247801,0.521687,1.778657,8.525304,11.749906,0.027009,-0.066024,0.523171,0.463168,2.000557,9.965224,-0.600036,-0.636611,1,0,,38.990672,-76.937795,-5.389000,,,
2026-09-11T16:37:41.041,14.067892,1.827009,21.911607,16.916748,0.000000,-42.447460,14.603484,1.767985,0.229059,0.482229,1.795428,8.504867,11.805807,0.028802,-0.042610,0.483713,0.049524,-0.275861,11.566257,-0.595384,-0.715872,1,1,14.072943,38.990671,-76.937776,-5.449000,10.495138,-9.970478,4.662613
2026-09-11T16:37:41.075,14.101300,1.778949,21.971033,16.471753,0.000000,-41.804760,14.382371,1.723196,0.221184,0.465651,1.811261,8.484115,11.860822,0.017153,-0.039868,0.467134,-0.615171,-0.461991,8.882766,-0.632972,-0.803044,1,0,,38.990671,-76.937776,-5.449000,,,
2026-09-11T16:37:41.109,14.134711,1.789664,22.031826,16.570960,0.000000,-41.827419,14.390167,1.733514,0.216353,0.455481,1.826649,8.462845,11.915003,0.049777,-0.084480,0.456965,0.430610,1.878758,10.263542,-0.601999,-0.737010,1,0,,38.990671,-76.937776,-5.449000,,,
2026-09-11T16:37:41.142,14.168130,1.790188,22.090614,16.575817,0.000000,-42.003200,14.450642,1.733552,0.223943,0.471460,1.842138,8.440649,11.969015,0.046209,-0.003328,0.472943,-0.756681,1.513656,8.769891,-0.649024,-0.697110,1,0,,38.990671,-76.937776,-5.449000,,,
2026-09-11T16:37:41.175,14.201544,1.751778,22.149219,16.220168,0.000000,-42.124050,14.492219,1.696039,0.227635,0.479232,1.858021,8.417607,12.022012,-0.007631,0.033316,0.480715,-1.165422,2.143145,9.323182,-0.721615,-0.616641,1,0,,38.990671,-76.937776,-5.449000,,,
2026-09-11T16:37:41.209,14.234952,1.713153,22.207278,15.862525,0.000000,-42.273052,14.543481,1.658259,0.226468,0.476776,1.873990,8.394054,12.073412,-0.030248,0.123153,0.478259,-0.652535,1.832078,4.421622,-0.757980,-0.555762,1,0,,38.990671,-76.937776,-5.449000,,,
2026-09-11T16:37:41.242,14.268361,1.664545,22.262875,15.412453,0.000000,-43.077114,14.820108,1.609172,0.239347,0.503889,1.890372,8.369932,12.122982,-0.022264,-0.086112,0.505372,-6.974392,-0.007649,-4.138897,-1.197554,-0.615868,1,0,,38.990671,-76.937776,-5.449000,,,
2026-09-11T16:37:41.275,14.301775,1.713390,22.320478,15.864724,0.000000,-44.495723,15.308162,1.652599,0.254513,0.535817,1.907742,8.344549,12.171901,0.049910,-0.005097,0.537301,-1.586324,5.287059,6.476704,-1.281132,-0.337596,1,0,,38.990671,-76.937776,-5.449000,,,
2026-09-11T16:37:41.309,14.335182,1.704212,22.378172,15.779737,0.000000,-44.814327,15.417773,1.642882,0.251221,0.528887,1.925526,8.317944,12.220823,0.043935,0.084173,0.530370,0.067176,-3.941195,5.538600,-1.259565,-0.658299,1,0,,38.990671,-76.937776,-5.449000,,,
2026-09-11T16:37:41.342,14.368595,1.685125,22.433952,15.603005,0.000000,-44.771755,15.403127,1.624596,0.241051,0.507477,1.942840,8.290857,12.268924,-0.073434,0.027828,0.508960,-1.824821,1.658795,6.513969,-1.361389,-0.610349,1,0,,38.990671,-76.937776,-5.449000,,,
2026-09-11T16:37:41.376,14.402014,1.714641,22.491738,15.876308,0.000000,-45.341671,15.599199,1.651485,0.246453,0.518849,1.959990,8.262956,12.316718,0.072080,0.021308,0.520333,-1.730383,2.169231,10.715530,-1.454026,-0.531992,1,0,,38.990671,-76.937776,-5.449000,,,
2026-09-11T16:37:41.409,14.435421,1.715197,22.548156,15.881456,0.000000,-46.790493,16.097647,1.647945,0.249615,0.525505,1.977434,8.233962,12.364312,0.064747,-0.004209,0.526989,0.922610,-2.432540,6.827488,-1.374720,-0.752772,1,0,,38.990671,-76.937776,-5.449000,,,
2026-09-11T16:37:41.442,14.468834,1.725599,22.605576,15.977767,0.000000,-48.064907,16.536092,1.654229,0.261846,0.551255,1.995423,8.203871,12.411328,-0.019754,0.004109,0.552738,-1.150222,1.269275,9.503625,-1.434489,-0.734633,1,0,,38.990671,-76.937776,-5.449000,,,
2026-09-11T16:37:41.476,14.502241,1.706878,22.662176,15.804423,0.000000,-48.910167,16.826892,1.633796,0.266558,0.561174,2.014005,8.172777,12.457448,-0.021523,0.088228,0.562658,0.351176,1.883759,10.552936,-1.400026,-0.677272,1,0,,38.990671,-76.937776,-5.449000,,,
2026-09-11T16:37:41.510,14.535655,1.658741,22.718686,15.358714,0.000000,-48.858669,16.809175,1.587868,0.269687,0.567762,2.032866,8.141189,12.501934,-0.106553,0.046616,0.569246,0.211137,0.745600,9.044968,-1.373924,-0.693176,1,0,,38.990671,-76.937776,-5.449000,,,
2026-09-11T16:37:41.543,14.569073,1.678960,22.774283,15.545927,0.000000,-49.518535,17.036193,1.605287,0.253694,0.534092,2.051277,8.109171,12.545501,-0.162544,0.084887,0.535576,1.140415,-0.320383,9.423406,-1.286666,-0.775019,1,0,,38.990671,-76.937776,-5.449000,,,
2026-09-11T16:37:41.577,14.602486,1.669515,22.830610,15.458469,0.000000,-51.368358,17.672600,1.590725,0.265263,0.558448,2.069529,8.076414,12.588543,-0.073355,0.027298,0.559932,0.478663,0.048249,8.738608,-1.245685,-0.834097,1,0,,38.990671,-76.937776,-5.449000,,,
2026-09-11T16:37:41.609,14.635904,1.669780,22.885843,15.460923,0.000000,-54.053829,18.596501,1.582597,0.273915,0.576663,2.088496,8.042744,12.630478,-0.141693,0.002947,0.578147,0.565353,1.698904,13.911224,-1.201994,-0.787304,1,0,,38.990671,-76.937776,-5.449000,,,
2026-09-11T16:37:41.643,14.669313,1.659823,22.940985,15.368736,0.000000,-54.835231,18.865332,1.570660,0.278269,0.585830,2.107914,8.008267,12.671350,-0.039101,0.021718,0.587314,0.933005,2.078618,12.865737,-1.140248,-0.716967,1,0,,38.990671,-76.937776,-5.449000,,,
2026-09-11T16:37:41.676,14.702723,1.650277,22.996218,15.280341,0.000000,-56.541546,19.452367,1.556077,0.277539,0.584292,2.127461,7.973178,12.711135,0.006422,0.002023,0.585775,0.138176,0.954187,11.064843,-1.139561,-0.719433,1,0,,38.990671,-76.937776,-5.449000,,,
2026-09-11T16:37:41.710,14.736132,1.660536,23.052181,15.375332,0.000000,-58.482006,20.119956,1.559201,0.294959,0.620966,2.147595,7.937173,12.749900,0.073043,0.014612,0.622450,1.444618,-0.834154,9.100277,-1.061417,-0.841366,1,0,,38.990671,-76.937776,-5.449000,,,
2026-09-11T16:37:41.743,14.769545,1.631835,23.106411,15.109580,0.000000,-60.826900,20.926686,1.524196,0.369454,0.777798,2.170963,7.899362,12.786575,0.022430,0.078021,0.779282,0.032166,-9.655432,6.627530,-1.083149,-1.546654,1,0,,38.990671,-76.937776,-5.449000,,,
2026-09-11T16:37:41.777,14.802952,1.660995,23.162556,15.379581,0.000000,-64.794338,22.291630,1.536861,0.315455,0.664115,2.195048,7.860611,12.821849,0.076234,-0.073622,0.665599,2.931208,2.672214,17.022383,-0.921253,-1.436022,1,0,,38.990671,-76.937776,-5.449000,,,
2026-09-11T16:37:41.810,14.836361,1.661436,23.218700,15.383668,0.000000,-64.734600,22.271078,1.537495,0.334307,0.703804,2.217898,7.821391,12.856724,0.218215,0.370703,0.705288,-0.792083,-4.052598,13.475710,-1.002099,-1.765566,1,0,,38.990671,-76.937776,-5.449000,,,
2026-09-11T16:37:41.843,14.869773,1.671452,23.273660,15.476404,0.000000,-64.560878,22.211311,1.547423,0.282138,0.593974,2.239579,7.781723,12.891210,0.130738,0.032352,0.595458,1.236913,-0.055506,11.524775,-0.952357,-1.822379,1,0,,38.990671,-76.937776,-5.449000,,,
2026-09-11T16:37:41.877,14.903192,1.691614,23.330898,15.663089,0.000000,-59.697368,20.538085,1.584093,0.298876,0.629213,2.260018,7.741306,12.925824,0.104229,0.027517,0.630697,2.923951,-0.325483,9.839601,-0.793976,-1.901063,1,0,,38.990671,-76.937776,-5.449000,,,
2026-09-11T16:37:41.910,14.936605,1.740605,23.388501,16.116713,0.000000,-53.423488,18.379640,1.651813,0.279169,0.587725,2.280349,7.699105,12.960970,0.010480,0.057834,0.589208,1.083635,0.500728,9.302000,-0.756595,-1.923736,1,0,,38.990671,-76.937776,-5.449000,,,
2026-09-11T16:37:41.944,14.970018,1.799719,23.449203,16.664065,0.000000,-47.911785,16.483412,1.725754,0.249755,0.525801,2.298952,7.655287,12.997610,-0.031700,-0.021184,0.527284,1.505615,0.136018,10.514788,-0.694145,-1.965649,1,0,,38.990671,-76.937776,-5.449000,,,
2026-09-11T16:37:41.978,15.003424,1.800010,23.509631,16.666759,0.000000,-40.605190,13.969675,1.746772,0.222032,0.467437,2.315542,7.610487,13.035288,-0.058021,-0.022124,0.468920,1.328997,0.116111,7.743429,-0.645965,-2.002500,1,0,,38.990671,-76.937776,-5.449000,,,
2026-09-11T16:37:42.010,15.036837,1.829633,23.570333,16.941049,0.000000,-39.718044,13.664465,1.777847,0.220794,0.464830,2.331117,7.564839,13.073211,-0.107225,-0.061056,0.466314,0.573787,-3.082132,6.622431,-0.648112,-2.246508,1,0,,38.990671,-76.937776,-5.449000,,,
2026-09-11T16:37:42.045,15.070249,1.829635,23.632584,16.941068,0.000000,-38.025463,13.082155,1.782150,0.195390,0.411347,2.345754,7.518534,13.111178,-0.130422,-0.093637,0.412830,0.138176,2.075087,10.053582,-0.675244,-2.148119,1,1,15.074353,38.990679,-76.937759,-5.535000,11.907770,-9.147451,2.972649
2026-09-11T16:37:42.077,15.103663,1.829817,23.692284,16.942753,0.000000,-37.895000,13.037271,1.782651,0.193275,0.406894,2.359425,7.471966,13.148866,-0.050399,-0.057738,0.408378,0.495040,-0.617231,9.075957,-0.675360,-2.224507,1,0,,38.990679,-76.937759,-5.535000,,,
