timestamp,time_s,speed_mps,distance_m,wheel_omega_rad_s,motor_current_A,steer_motor_deg,steer_column_deg,vx_mps,vy_mps,yaw_rate_rad_s,heading_rad,x_m,y_m,gyro_x_rad_s,gyro_y_rad_s,gyro_z_rad_s,accel_x_mps2,accel_y_mps2,accel_z_mps2,grade_deg,bank_deg,moving,gps_new_fix,gps_time_s,gps_latitude_deg,gps_longitude_deg,gps_altitude_m,gps_east_m,gps_north_m,gps_sigma_m
2026-09-11T19:21:11.999,0.000010,-0.000000,-0.000000,-0.000000,0.000000,-28.246208,9.717732,-0.000000,-0.006678,-0.014060,0.000000,0.000000,0.000000,-0.009505,0.004687,-0.012576,0.321266,-0.265858,9.649155,-0.117362,-0.783764,0,1,-0.244581,38.990216,-76.938811,-11.058000,0.000000,0.000000,2.923565
2026-09-11T19:21:12.032,0.033431,-0.000000,-0.000000,-0.000000,0.000000,-27.317863,9.398348,-0.000000,-0.005820,-0.012253,-0.000440,-0.000000,-0.000209,-0.010720,0.002785,-0.010769,0.301653,-0.184953,9.725549,-0.118631,-0.778527,0,0,,38.990216,-76.938811,-11.058000,,,
2026-09-11T19:21:12.066,0.066841,-0.000000,-0.000000,-0.000000,0.000000,-27.103630,9.324643,-0.000000,-0.004610,-0.009705,-0.000807,-0.000000,-0.000383,-0.011049,0.004711,-0.008222,0.341173,-0.235850,9.671416,-0.117329,-0.776643,0,0,,38.990216,-76.938811,-11.058000,,,
2026-09-11T19:21:12.099,0.100247,-0.353505,-0.011689,-3.273196,0.000000,-27.059685,9.309525,-0.348849,-0.002601,-0.005475,-0.001060,-0.005827,-0.000497,-0.017938,0.004456,-0.003992,0.417861,-0.240655,9.686813,-0.111079,-0.775215,0,0,,38.990216,-76.938811,-11.058000,,,
2026-09-11T19:21:12.133,0.133654,-0.110536,-0.015392,-1.023483,0.000000,-26.460243,9.103295,-0.109144,-0.004932,-0.010382,-0.001325,-0.013477,-0.000615,-0.032130,0.003888,-0.008899,0.450812,-0.272821,9.667494,-0.102765,-0.775834,0,0,,38.990216,-76.938811,-11.058000,,,
2026-09-11T19:21:12.167,0.167066,-0.023067,-0.015460,-0.213587,0.000000,-24.701057,8.498070,-0.022814,-0.006595,-0.013883,-0.001730,-0.015682,-0.000804,-0.045128,0.003242,-0.012400,0.507396,-0.282824,9.699463,-0.090880,-0.777040,0,0,,38.990216,-76.938811,-11.058000,,,
2026-09-11T19:21:12.201,0.200482,-0.000000,-0.015324,-0.000000,0.000000,-21.543175,7.411643,-0.000000,-0.008995,-0.018938,-0.002279,-0.016064,-0.001064,-0.056305,0.004022,-0.017454,0.640668,-0.324600,9.715546,-0.070498,-0.780916,0,0,,38.990216,-76.938811,-11.058000,,,
2026-09-11T19:21:12.234,0.233904,-0.000000,-0.015324,-0.000000,0.000000,-19.032112,6.547745,-0.000000,-0.008691,-0.018296,-0.002901,-0.016065,-0.001359,-0.060014,0.004206,-0.016812,0.705294,-0.247912,9.669553,-0.068978,-0.779786,0,0,,38.990216,-76.938811,-11.058000,,,
2026-09-11T19:21:12.267,0.267322,-0.000000,-0.015324,-0.000000,0.000000,-17.166496,5.905905,-0.000000,-0.005432,-0.011436,-0.003398,-0.016065,-0.001595,-0.040061,0.003022,-0.009952,0.768743,-0.265368,9.661218,-0.070003,-0.779798,0,0,,38.990216,-76.938811,-11.058000,,,
2026-09-11T19:21:12.301,0.300731,-0.000000,-0.015324,-0.000000,0.000000,-14.969231,5.149965,-0.000000,-0.005018,-0.010564,-0.003765,-0.016066,-0.001770,-0.024044,0.001208,-0.009080,0.781884,-0.332347,9.644840,-0.048385,-0.784144,0,0,,38.990216,-76.938811,-11.058000,,,
2026-09-11T19:21:12.334,0.334137,-0.000000,-0.015324,-0.000000,0.000000,-9.179436,3.158063,-0.000000,-0.003764,-0.007923,-0.004074,-0.016067,-0.001917,-0.024910,0.002331,-0.006440,0.710982,-0.278411,9.675437,-0.047885,-0.784952,0,0,,38.990216,-76.938811,-11.058000,,,
2026-09-11T19:21:12.368,0.367553,-0.000000,-0.015324,-0.000000,0.000000,-7.467628,2.569138,-0.000000,-0.005261,-0.011076,-0.004391,-0.016067,-0.002067,-0.018716,0.000254,-0.009593,0.591929,-0.398052,9.641016,-0.061117,-0.793495,0,0,,38.990216,-76.938811,-11.058000,,,
2026-09-11T19:21:12.401,0.400972,-0.000000,-0.015324,-0.000000,0.000000,-6.581169,2.264164,-0.000000,-0.002387,-0.005025,-0.004660,-0.016068,-0.002195,0.002622,-0.001987,-0.003542,0.520243,-0.189268,9.663669,-0.058001,-0.788430,0,0,,38.990216,-76.938811,-11.058000,,,
2026-09-11T19:21:12.434,0.434378,-0.000000,-0.015324,-0.000000,0.000000,-6.149956,2.115810,-0.000000,0.001389,0.002923,-0.004696,-0.016068,-0.002212,0.013701,-0.001104,0.004407,0.528873,-0.352843,9.635818,-0.047940,-0.794006,0,0,,38.990216,-76.938811,-11.058000,,,
2026-09-11T19:21:12.468,0.467785,-0.000000,-0.015324,-0.000000,0.000000,-4.964119,1.707839,-0.000000,-0.002391,-0.005034,-0.004731,-0.016068,-0.002229,0.019019,-0.003946,-0.003551,0.457971,-0.327150,9.689363,-0.041103,-0.797858,0,0,,38.990216,-76.938811,-11.058000,,,
2026-09-11T19:21:12.501,0.501192,0.353505,-0.003196,3.273196,0.000000,-3.603188,1.239629,0.353422,0.000322,0.000678,-0.004804,-0.010165,-0.002292,0.012597,-0.004024,0.002161,0.395600,-0.238596,9.744672,-0.038376,-0.795954,0,0,,38.990216,-76.938811,-11.058000,,,
2026-09-11T19:21:12.535,0.534606,0.102774,0.000051,0.951615,0.000000,-1.462227,0.503060,0.102770,-0.001528,-0.003216,-0.004846,-0.002543,-0.002348,0.004606,-0.002914,-0.001732,0.436298,-0.527892,9.641506,-0.051760,-0.812755,0,0,,38.990216,-76.938811,-11.058000,,,
2026-09-11T19:21:12.568,0.568027,0.015983,0.000023,0.147991,0.000000,1.997093,-0.687073,0.015982,-0.004225,-0.008895,-0.005048,-0.000559,-0.002454,-0.006091,-0.004309,-0.007411,0.532795,-0.176814,9.671024,-0.066781,-0.806661,0,0,,38.990216,-76.938811,-11.058000,,,
2026-09-11T19:21:12.602,0.601435,0.006340,0.000142,0.058699,0.000000,5.821022,-2.002645,0.006336,-0.004162,-0.008762,-0.005343,-0.000187,-0.002596,-0.011117,-0.005114,-0.007279,0.400111,-0.357354,9.650921,-0.072609,-0.812324,0,0,,38.990216,-76.938811,-11.058000,,,
2026-09-11T19:21:12.635,0.634842,-0.000000,-0.000000,-0.000000,0.000000,7.538322,-2.593460,-0.000000,-0.005099,-0.010735,-0.005669,-0.000082,-0.002751,-0.011872,-0.000924,-0.009251,0.345194,-0.287531,9.672887,-0.074376,-0.813410,0,0,,38.990216,-76.938811,-11.058000,,,
2026-09-11T19:21:12.668,0.668247,0.009643,0.000313,0.089292,0.000000,9.572166,-3.293177,0.009628,-0.003690,-0.007769,-0.005978,0.000078,-0.002899,-0.004887,-0.002243,-0.006285,0.442084,-0.147688,9.688088,-0.069225,-0.805432,0,0,,38.990216,-76.938811,-11.058000,,,
2026-09-11T19:21:12.702,0.701668,0.009643,0.000638,0.089292,0.000000,11.133598,-3.830366,0.009622,-0.002362,-0.004972,-0.006191,0.000399,-0.003002,0.001881,-0.002418,-0.003489,0.475623,-0.367259,9.696227,-0.061956,-0.811752,0,0,,38.990216,-76.938811,-11.058000,,,
2026-09-11T19:21:12.736,0.735087,0.009643,0.000957,0.089292,0.000000,15.376381,-5.290039,0.009602,-0.004158,-0.008754,-0.006420,0.000719,-0.003113,0.001824,-0.000460,-0.007270,0.489058,-0.410016,9.661610,-0.048983,-0.820767,0,0,,38.990216,-76.938811,-11.058000,,,
2026-09-11T19:21:12.769,0.768496,0.009643,0.001282,0.089292,0.000000,18.059792,-6.213231,0.009587,-0.007087,-0.014920,-0.006816,0.001039,-0.003303,-0.010027,-0.001871,-0.013437,0.602521,-0.391383,9.661512,-0.026365,-0.828471,0,1,0.754350,38.990217,-76.938811,-11.025000,-0.036299,0.005189,2.923565
2026-09-11T19:21:12.802,0.802041,0.301380,0.010117,2.790555,0.000000,18.423714,-6.338434,0.299538,-0.005061,-0.010656,-0.007245,0.006222,-0.003544,0.007858,-0.001906,-0.009172,0.428453,-0.358335,9.776348,-0.021452,-0.833774,0,0,,38.990217,-76.938811,-11.025000,,,
2026-09-11T19:21:12.835,0.835450,0.134716,0.015722,1.247369,0.000000,18.423714,-6.338434,0.133892,-0.003443,-0.007249,-0.007544,0.013461,-0.003740,0.012738,0.000095,-0.005766,0.488960,-0.330092,9.619049,-0.024598,-0.837314,0,0,,38.990217,-76.938811,-11.025000,,,
2026-09-11T19:21:12.869,0.868870,0.026874,0.015660,0.248837,0.000000,18.423714,-6.338434,0.026710,-0.000964,-0.002029,-0.007699,0.016144,-0.003834,0.029625,-0.004505,-0.000545,0.552114,-0.201919,9.642389,-0.035447,-0.832578,0,0,,38.990217,-76.938811,-11.025000,,,
2026-09-11T19:21:12.903,0.902289,0.017071,0.015962,0.158061,0.000000,18.423714,-6.338434,0.016966,-0.002873,-0.006049,-0.007834,0.016873,-0.003903,0.032303,-0.004888,-0.004566,0.580946,-0.487685,9.695737,-0.039281,-0.846389,0,0,,38.990217,-76.938811,-11.025000,,,
2026-09-11T19:21:12.936,0.935698,0.017071,0.016531,0.158061,0.000000,18.423714,-6.338434,0.016966,-0.002296,-0.004833,-0.008016,0.017439,-0.003994,0.025197,-0.003279,-0.003349,0.702254,-0.206332,9.627581,-0.035921,-0.841839,0,0,,38.990217,-76.938811,-11.025000,,,
2026-09-11T19:21:12.969,0.969104,0.017071,0.017107,0.158061,0.000000,18.423714,-6.338434,0.016966,-0.002518,-0.005301,-0.008185,0.018005,-0.004079,0.022390,-0.004644,-0.003817,0.790024,-0.443359,9.676222,-0.033762,-0.852674,0,0,,38.990217,-76.938811,-11.025000,,,
2026-09-11T19:21:13.003,1.002517,0.296105,0.028169,2.741712,0.000000,18.423714,-6.338434,0.294295,-0.003657,-0.007698,-0.008402,0.023204,-0.004226,0.016763,-0.005248,-0.006215,0.786984,-0.361865,9.669259,-0.029931,-0.857977,0,0,,38.990217,-76.938811,-11.025000,,,
2026-09-11T19:21:13.036,1.035936,0.082292,0.031091,0.761965,0.000000,18.423714,-6.338434,0.081789,-0.002652,-0.005582,-0.008624,0.029487,-0.004385,0.001368,-0.004409,-0.004099,0.594381,-0.042757,9.798707,-0.019278,-0.842685,0,0,,38.990217,-76.938811,-11.025000,,,
2026-09-11T19:21:13.070,1.069353,0.053136,0.032265,0.492000,0.000000,18.423714,-6.338434,0.052811,-0.006430,-0.013537,-0.008943,0.031735,-0.004556,-0.017935,0.000762,-0.012054,0.612916,-0.023830,9.845583,-0.000778,-0.826321,0,0,,38.990217,-76.938811,-11.025000,,,
2026-09-11T19:21:13.103,1.102762,0.170971,0.035028,1.583065,0.000000,18.423714,-6.338434,0.169926,-0.007158,-0.015069,-0.009421,0.035453,-0.004818,-0.036285,0.006537,-0.013586,0.847785,-0.673227,9.544715,0.011922,-0.852044,0,0,,38.990217,-76.938811,-11.025000,,,
2026-09-11T19:21:13.136,1.136171,0.221302,0.046854,2.049089,0.000000,18.436073,-6.342686,0.219947,-0.005907,-0.012436,-0.009881,0.041964,-0.005099,-0.059178,-0.003531,-0.010953,0.845529,-0.330386,9.658766,0.014226,-0.855286,0,0,,38.990217,-76.938811,-11.025000,,,
2026-09-11T19:21:13.170,1.169577,0.095936,0.048329,0.888298,0.000000,18.511604,-6.368671,0.095344,-0.006956,-0.014643,-0.010333,0.047227,-0.005366,-0.064136,-0.002912,-0.013160,0.658713,-0.085514,9.480677,-0.001842,-0.842735,0,0,,38.990217,-76.938811,-11.025000,,,
2026-09-11T19:21:13.203,1.202996,0.241804,0.054806,2.238930,0.000000,18.538384,-6.377884,0.240308,-0.008446,-0.017781,-0.010875,0.052833,-0.005684,-0.064177,0.003655,-0.016297,0.932907,-0.351176,9.498133,-0.000038,-0.847328,0,0,,38.990217,-76.938811,-11.025000,,,
2026-09-11T19:21:13.236,1.236421,0.202589,0.062257,1.875828,0.000000,18.643440,-6.414028,0.201321,-0.000133,-0.000280,-0.011177,0.060211,-0.005909,-0.074874,0.003152,0.001204,0.832094,-1.146201,9.910208,0.011194,-0.903611,0,0,,38.990217,-76.938811,-11.025000,,,
2026-09-11T19:21:13.270,1.269840,0.212393,0.069372,1.966603,0.000000,18.687386,-6.429146,0.211057,-0.005894,-0.012409,-0.011389,0.067101,-0.006087,-0.079087,-0.005421,-0.010926,0.999592,-0.156220,9.772719,0.032282,-0.895017,0,0,,38.990217,-76.938811,-11.025000,,,
2026-09-11T19:21:13.303,1.303247,0.193149,0.075478,1.788421,0.000000,18.775963,-6.459620,0.191923,-0.013126,-0.027633,-0.012058,0.073827,-0.006483,-0.087391,0.007275,-0.026150,0.768253,-0.512790,9.876964,0.018763,-0.909419,0,0,,38.990217,-76.938811,-11.025000,,,
2026-09-11T19:21:13.337,1.336654,0.232024,0.083670,2.148375,0.000000,19.038948,-6.550097,0.230510,-0.007475,-0.015736,-0.012782,0.080879,-0.006915,-0.052052,0.003278,-0.014253,1.140906,-0.653025,10.285411,0.032660,-0.932845,0,0,,38.990217,-76.938811,-11.025000,,,
2026-09-11T19:21:13.371,1.370079,0.242725,0.093428,2.247450,0.000000,19.038948,-6.550097,0.241140,-0.013742,-0.028931,-0.013529,0.088756,-0.007374,-0.057549,0.000229,-0.027448,0.799438,-0.650573,9.423014,0.033816,-0.955648,0,0,,38.990217,-76.938811,-11.025000,,,
2026-09-11T19:21:13.404,1.403498,0.271898,0.102149,2.517576,0.000000,19.060234,-6.557420,0.270119,-0.014747,-0.031046,-0.014531,0.097291,-0.007970,-0.073717,0.003348,-0.029562,1.068631,-1.120998,9.669063,0.041253,-1.008556,0,0,,38.990217,-76.938811,-11.025000,,,
2026-09-11T19:21:13.438,1.436911,0.330721,0.113184,3.062230,0.000000,19.746193,-6.793415,0.328399,-0.019664,-0.041397,-0.015741,0.107281,-0.008697,-0.075260,0.014514,-0.039914,0.942419,-0.764919,9.239826,0.039824,-1.037485,1,0,,38.990217,-76.938811,-11.025000,,,
2026-09-11T19:21:13.470,1.470314,0.272990,0.121825,2.527681,0.000000,20.049690,-6.897829,0.271014,-0.038930,-0.081957,-0.017801,0.117274,-0.009842,-0.064205,0.000955,-0.080474,1.075986,1.063139,8.758712,0.052577,-0.947252,1,0,,38.990217,-76.938811,-11.025000,,,
2026-09-11T19:21:13.504,1.503717,0.361063,0.133628,3.343179,0.000000,20.198693,-6.949091,0.358411,-0.025774,-0.054261,-0.020076,0.127764,-0.011123,-0.060874,0.048021,-0.052777,1.475116,1.030287,10.486643,0.084680,-0.860327,1,0,,38.990217,-76.938811,-11.025000,,,
2026-09-11T19:21:13.538,1.537126,0.351420,0.145380,3.253888,0.000000,19.654869,-6.761996,0.348975,-0.066723,-0.140470,-0.023329,0.139543,-0.012924,0.047440,0.054383,-0.138987,1.740190,-0.041384,9.531476,0.131149,-0.841782,1,0,,38.990217,-76.938811,-11.025000,,,
2026-09-11T19:21:13.571,1.570675,0.419967,0.159285,3.888585,0.000000,18.778710,-6.460565,0.417300,-0.069519,-0.146355,-0.028140,0.152333,-0.015542,-0.037034,-0.013493,-0.144871,0.562902,-2.031938,13.176215,0.100702,-0.951925,1,0,,38.990217,-76.938811,-11.025000,,,
2026-09-11T19:21:13.604,1.604077,0.390908,0.172364,3.619517,0.000000,18.749871,-6.450644,0.388433,-0.100616,-0.211823,-0.034122,0.165693,-0.018800,-0.015657,0.059652,-0.210340,0.979488,0.985863,8.046356,0.097516,-0.863759,1,0,,38.990217,-76.938811,-11.025000,,,
2026-09-11T19:21:13.638,1.637479,0.440006,0.187386,4.074127,0.000000,18.652367,-6.417099,0.437249,-0.121322,-0.255415,-0.041926,0.179331,-0.023031,-0.021012,-0.013416,-0.253932,1.736365,-1.342530,7.781577,0.141426,-0.925303,1,0,,38.990217,-76.938811,-11.025000,,,
2026-09-11T19:21:13.671,1.670887,0.489104,0.203006,4.528740,0.000000,18.357109,-6.315519,0.486136,-0.134887,-0.283973,-0.050936,0.194538,-0.028025,0.067309,-0.031573,-0.282490,1.174444,2.073322,10.140959,0.151595,-0.763443,1,0,,38.990217,-76.938811,-11.025000,,,
2026-09-11T19:21:13.705,1.704295,0.469763,0.218734,4.349660,0.000000,17.945809,-6.174017,0.467039,-0.142873,-0.300786,-0.060704,0.210176,-0.033544,0.050782,-0.005468,-0.299302,1.045389,-2.395863,9.976011,0.151460,-0.892399,1,0,,38.990217,-76.938811,-11.025000,,,
2026-09-11T19:21:13.738,1.737696,0.509042,0.235994,4.713348,0.000000,16.819710,-5.786597,0.506448,-0.158514,-0.333713,-0.071300,0.226064,-0.039642,0.033026,0.040859,-0.332230,1.323309,0.828956,8.132753,0.167501,-0.809436,1,0,,38.990217,-76.938811,-11.025000,,,
2026-09-11T19:21:13.770,1.771114,0.538611,0.253528,4.987143,0.000000,16.511406,-5.680530,0.535966,-0.168092,-0.353878,-0.082789,0.243009,-0.046427,0.059985,-0.006025,-0.352395,1.236226,-0.579475,9.391731,0.179646,-0.817174,1,1,1.755148,38.990216,-76.938814,-10.994000,-0.260144,-0.022239,2.923062
2026-09-11T19:21:13.805,1.804515,0.538712,0.271181,4.988077,0.000000,15.392174,-5.295473,0.536413,-0.162622,-0.342361,-0.094416,0.260359,-0.053513,0.062496,-0.018748,-0.340878,1.737248,-0.044424,8.809020,0.224729,-0.790600,1,0,,38.990216,-76.938814,-10.994000,,,
2026-09-11T19:21:13.839,1.837922,0.558189,0.290692,5.168419,0.000000,12.914070,-4.442914,0.556512,-0.160451,-0.337792,-0.105778,0.277984,-0.060708,0.148621,0.006965,-0.336309,0.501904,-1.046370,10.855079,0.187545,-0.828863,1,0,,38.990216,-76.938814,-10.994000,,,
2026-09-11T19:21:13.872,1.871344,0.587322,0.310897,5.438165,0.000000,7.881645,-2.711575,0.586664,-0.151375,-0.318684,-0.116748,0.296391,-0.068011,0.125615,0.014214,-0.317201,1.086675,-1.194646,8.080876,0.186802,-0.876382,1,0,,38.990216,-76.938814,-10.994000,,,
2026-09-11T19:21:13.905,1.904764,0.626072,0.331484,5.796962,0.000000,4.084496,-1.405216,0.625884,-0.126447,-0.266204,-0.126521,0.315941,-0.075081,0.088887,-0.007182,-0.264720,1.309188,-1.238286,11.508202,0.204910,-0.927517,1,0,,38.990216,-76.938814,-10.994000,,,
2026-09-11T19:21:13.938,1.938172,0.625969,0.352054,5.796011,0.000000,2.731804,-0.939841,0.625885,-0.052850,-0.111264,-0.132826,0.336292,-0.080755,-0.019036,0.033543,-0.109780,1.431281,-0.846706,9.385258,0.230111,-0.959005,1,0,,38.990216,-76.938814,-10.994000,,,
2026-09-11T19:21:13.972,1.971578,0.655151,0.373974,6.066213,0.000000,-0.490623,0.168792,0.655148,-0.012270,-0.025832,-0.135116,0.357353,-0.084692,-0.027222,0.036491,-0.024349,1.636240,0.836017,10.169987,0.267099,-0.884673,1,0,,38.990216,-76.938814,-10.994000,,,
2026-09-11T19:21:14.005,2.004985,0.684404,0.396983,6.337073,0.000000,-5.420052,1.864697,0.684041,0.038361,0.080761,-0.134199,0.379577,-0.087263,-0.076803,0.081442,0.082244,1.891899,-1.237403,9.846955,0.322840,-0.949994,1,0,,38.990216,-76.938814,-10.994000,,,
2026-09-11T19:21:14.039,2.038401,0.704017,0.420948,6.518680,0.000000,-6.317497,2.173451,0.703511,0.037965,0.079926,-0.131514,0.402725,-0.089069,-0.118246,0.050321,0.081409,1.190625,-0.097870,9.797236,0.334540,-0.940919,1,0,,38.990216,-76.938814,-10.994000,,,
2026-09-11T19:21:14.072,2.071818,0.733452,0.445642,6.791225,0.000000,-7.721001,2.656308,0.732664,0.033541,0.070612,-0.128999,0.426674,-0.091001,-0.058643,0.077657,0.072096,0.979979,2.110685,9.649548,0.334402,-0.788706,1,0,,38.990216,-76.938814,-10.994000,,,
2026-09-11T19:21:14.105,2.105229,0.772555,0.471436,7.153284,0.000000,-9.173256,3.155937,0.771383,0.050231,0.105749,-0.126053,0.451773,-0.092807,-0.037588,0.031392,0.107233,1.137866,-1.103248,9.843523,0.347040,-0.848117,1,0,,38.990216,-76.938814,-10.994000,,,
2026-09-11T19:21:14.139,2.138636,0.782443,0.497799,7.244847,0.000000,-10.406471,3.580208,0.780916,0.053981,0.113645,-0.122388,0.477718,-0.094292,-0.057651,0.013356,0.115128,0.921433,-0.568982,10.306299,0.348075,-0.872760,1,0,,38.990216,-76.938814,-10.994000,,,
2026-09-11T19:21:14.172,2.172053,0.802083,0.524874,7.426691,0.000000,-11.156975,3.838409,0.800283,0.051852,0.109161,-0.118665,0.504158,-0.095713,-0.027903,0.010273,0.110645,1.500319,-2.497165,10.250793,0.389679,-1.021852,1,0,,38.990216,-76.938814,-10.994000,,,
2026-09-11T19:21:14.206,2.205471,0.821977,0.552707,7.610896,0.000000,-11.871086,4.084089,0.819889,0.053769,0.113198,-0.114950,0.531251,-0.097114,-0.054500,0.018834,0.114681,-0.768351,2.137850,7.877388,0.288856,-0.869634,1,0,,38.990216,-76.938814,-10.994000,,,
2026-09-11T19:21:14.239,2.238878,0.841503,0.580734,7.791697,0.000000,-12.448555,4.282760,0.839154,0.053644,0.112934,-0.111173,0.558988,-0.098457,-0.010615,0.001669,0.114418,-0.539758,1.019990,10.823698,0.209564,-0.791618,1,0,,38.990216,-76.938814,-10.994000,,,
2026-09-11T19:21:14.272,2.272286,0.851349,0.608749,7.882856,0.000000,-13.681084,4.706795,0.848477,0.059566,0.125402,-0.107192,0.587216,-0.099649,0.044165,-0.031474,0.126885,0.240753,-0.551428,7.972218,0.184126,-0.816893,1,0,,38.990216,-76.938814,-10.994000,,,
2026-09-11T19:21:14.306,2.305705,0.841703,0.636725,7.793548,0.000000,-13.887764,4.777900,0.838778,0.059213,0.124659,-0.103013,0.615463,-0.100633,0.007225,-0.031169,0.126143,0.403249,3.193634,10.553525,0.171447,-0.599382,1,0,,38.990216,-76.938814,-10.994000,,,
2026-09-11T19:21:14.339,2.339112,0.842061,0.664740,7.796862,0.000000,-13.986641,4.811918,0.839093,0.050640,0.106611,-0.099150,0.643531,-0.101636,-0.002501,-0.079544,0.108095,1.021265,2.202770,12.328921,0.202762,-0.447508,1,0,,38.990216,-76.938814,-10.994000,,,
2026-09-11T19:21:14.372,2.372516,0.852163,0.693063,7.890402,0.000000,-13.436638,4.622697,0.849391,0.054067,0.113826,-0.095468,0.671768,-0.102635,-0.038136,0.028259,0.115309,0.742560,0.780805,7.378622,0.220759,-0.389781,1,0,,38.990216,-76.938814,-10.994000,,,
2026-09-11T19:21:14.406,2.405924,0.872010,0.721882,8.074169,0.000000,-13.711296,4.717189,0.869057,0.060637,0.127657,-0.091435,0.700526,-0.103405,0.029092,-0.097496,0.129140,-0.480330,-2.861286,11.832998,0.163386,-0.569233,1,0,,38.990216,-76.938814,-10.994000,,,
2026-09-11T19:21:14.440,2.439347,0.843501,0.749800,7.810192,0.000000,-13.404366,4.611594,0.840770,0.043749,0.092104,-0.087762,0.729142,-0.104225,0.105868,0.010894,0.093588,-0.612033,1.546803,6.830136,0.099600,-0.459298,1,0,,38.990216,-76.938814,-10.994000,,,
2026-09-11T19:21:14.473,2.472762,0.824585,0.777776,7.635049,0.000000,-13.547188,4.660730,0.821859,0.005954,0.012535,-0.086014,0.756888,-0.105809,0.091283,-0.067763,0.014019,1.104327,-0.844058,11.290887,0.147797,-0.500974,1,0,,38.990216,-76.938814,-10.994000,,,
2026-09-11T19:21:14.506,2.506169,0.815308,0.805136,7.549148,0.000000,-13.856178,4.767034,0.812488,0.045594,0.095987,-0.084201,0.784162,-0.107272,0.000914,0.020984,0.097471,0.026086,-0.872203,9.266990,0.125026,-0.548378,1,0,,38.990216,-76.938814,-10.994000,,,
2026-09-11T19:21:14.540,2.539577,0.835694,0.832986,7.737911,0.000000,-15.120979,5.202172,0.832252,0.011260,0.023705,-0.082202,0.811619,-0.108608,0.107915,0.001622,0.025188,-0.307537,0.985078,11.641769,0.079559,-0.471332,1,0,,38.990216,-76.938814,-10.994000,,,
2026-09-11T19:21:14.573,2.572994,0.836092,0.860426,7.741595,0.000000,-18.964821,6.524594,0.830677,0.036261,0.076338,-0.080530,0.839377,-0.110075,0.105669,0.006104,0.077822,0.648122,-3.670825,8.664273,0.095770,-0.699253,1,0,,38.990216,-76.938814,-10.994000,,,
2026-09-11T19:21:14.607,2.606405,0.846386,0.888584,7.836911,0.000000,-19.654900,6.762007,0.840499,0.035213,0.074134,-0.078017,0.867301,-0.111095,0.122687,-0.108977,0.075617,-4.516355,5.329914,14.632503,-0.222577,-0.342173,1,0,,38.990216,-76.938814,-10.994000,,,
2026-09-11T19:21:14.640,2.639811,0.808010,0.914958,7.481578,0.000000,-22.839561,7.857647,0.800424,0.059157,0.124541,-0.074698,0.894749,-0.111616,0.192503,0.032609,0.126025,-0.556135,5.371593,4.693953,-0.281282,0.011147,1,0,,38.990216,-76.938814,-10.994000,,,
2026-09-11T19:21:14.672,2.673218,0.817951,0.942233,7.573618,0.000000,-26.307808,9.050851,0.807766,0.070332,0.148066,-0.070145,0.921698,-0.111402,0.171181,-0.054608,0.149550,1.931910,3.395258,10.843017,-0.181653,0.231421,1,0,,38.990216,-76.938814,-10.994000,,,
2026-09-11T19:21:14.706,2.706625,0.827924,0.970351,7.665967,0.000000,-28.127418,9.676864,0.816144,0.097097,0.204416,-0.064257,0.948947,-0.110432,0.145729,0.149661,0.205899,0.556331,-1.859831,12.639203,-0.179206,0.106292,1,0,,38.990216,-76.938814,-10.994000,,,
2026-09-11T19:21:14.740,2.740031,0.857286,0.999426,7.937837,0.000000,-28.976799,9.969082,0.844342,0.086517,0.182141,-0.057800,0.976819,-0.109061,0.083325,0.008307,0.183624,0.488371,-0.846412,10.931473,-0.186406,0.048938,1,0,,38.990216,-76.938814,-10.994000,,,
2026-09-11T19:21:14.774,2.773448,0.866833,1.028541,8.026232,0.000000,-28.012749,9.637414,0.854599,0.082212,0.173077,-0.051865,1.005317,-0.107802,0.038885,-0.000381,0.174561,-0.410506,-0.731772,5.638628,-0.254431,0.000000,1,0,,38.990216,-76.938814,-10.994000,,,
2026-09-11T19:21:14.807,2.806869,0.876528,1.057091,8.116004,0.000000,-27.098137,9.322754,0.864951,0.079001,0.166318,-0.046194,1.034150,-0.106519,0.066986,-0.055360,0.167801,0.673128,1.765491,8.000854,-0.253643,0.113457,1,0,,38.990216,-76.938814,-10.994000,,,
2026-09-11T19:21:14.841,2.840286,0.867142,1.086856,8.029092,0.000000,-26.969734,9.278578,0.855796,0.075171,0.158255,-0.040771,1.062985,-0.105195,-0.016344,0.023564,0.159738,1.741563,1.739013,8.423422,-0.185063,0.224472,1,1,2.818909,38.990216,-76.938822,-11.009000,-1.000100,-0.032432,2.948001
2026-09-11T19:21:14.874,2.873703,0.886680,1.115919,8.210002,0.000000,-23.997932,8.256169,0.877491,0.081936,0.172496,-0.035244,1.092025,-0.103672,0.050827,0.081409,0.173980,1.534741,-0.106304,10.430549,-0.133867,0.213835,1,0,,38.990216,-76.938822,-11.009000,,,
2026-09-11T19:21:14.907,2.907109,0.896484,1.145706,8.300778,0.000000,-21.645485,7.446841,0.888923,0.078378,0.165006,-0.029607,1.121601,-0.101951,0.010022,0.053747,0.166490,1.657226,-0.500237,5.903015,-0.078741,0.178144,1,0,,38.990216,-76.938822,-11.009000,,,
2026-09-11T19:21:14.941,2.940516,0.925937,1.177259,8.573490,0.000000,-18.585106,6.393958,0.920177,0.067143,0.141353,-0.024490,1.151874,-0.100337,-0.011320,-0.018900,0.142837,1.116291,-1.117566,8.667902,-0.060141,0.103991,1,0,,38.990216,-76.938822,-11.009000,,,
2026-09-11T19:21:14.974,2.973935,0.955465,1.209267,8.846897,0.000000,-15.804192,5.437222,0.951166,0.058974,0.124156,-0.020053,1.183182,-0.098926,0.011466,0.016894,0.125639,0.503768,-0.260367,10.004744,-0.080991,0.086872,1,0,,38.990216,-76.938822,-11.009000,,,
2026-09-11T19:21:15.007,3.007354,0.975152,1.241606,9.029181,0.000000,-11.533943,3.968100,0.972814,0.051118,0.107617,-0.016180,1.215359,-0.097668,0.002589,-0.057713,0.109100,0.957227,-0.372947,6.536427,-0.071107,0.063525,1,0,,38.990216,-76.938822,-11.009000,,,
2026-09-11T19:21:15.040,3.040778,1.004599,1.274572,9.301838,0.000000,-6.772057,2.329836,1.003768,0.045432,0.095645,-0.012783,1.248412,-0.096532,-0.035111,-0.041990,0.097129,0.899760,0.105225,8.255042,-0.065045,0.071940,1,0,,38.990216,-76.938822,-11.009000,,,
2026-09-11T19:21:15.074,3.074187,1.024162,1.308910,9.482986,0.000000,-7.065941,2.430943,1.023241,0.042278,0.089007,-0.009699,1.282287,-0.095447,-0.045571,-0.029982,0.090490,1.153360,-0.735695,10.169104,-0.041979,0.026180,1,0,,38.990216,-76.938822,-11.009000,,,
2026-09-11T19:21:15.107,3.107593,1.033960,1.343260,9.573708,0.000000,-7.175117,2.468504,1.033001,0.047723,0.100468,-0.006534,1.316643,-0.094223,0.001006,-0.053469,0.101952,0.006865,1.394408,9.189125,-0.093228,0.117885,1,0,,38.990216,-76.938822,-11.009000,,,
2026-09-11T19:21:15.141,3.141001,1.044122,1.378208,9.667797,0.000000,-7.438789,2.559217,1.043081,0.050935,0.107231,-0.003065,1.351329,-0.092741,-0.042328,0.008408,0.108715,0.857297,0.762663,9.533927,-0.087424,0.167194,1,0,,38.990216,-76.938822,-11.009000,,,
2026-09-11T19:21:15.174,3.174419,1.054112,1.414005,9.760296,0.000000,-7.387291,2.541499,1.053075,0.058809,0.123808,0.000796,1.386356,-0.090947,-0.037635,-0.029616,0.125292,0.341860,-1.511695,12.901727,-0.111701,0.067614,1,0,,38.990216,-76.938822,-11.009000,,,
2026-09-11T19:21:15.208,3.207850,1.074178,1.450833,9.946094,0.000000,-7.703834,2.650402,1.073029,0.063061,0.132760,0.005085,1.421888,-0.088804,-0.032224,0.015600,0.134243,1.003318,-1.153164,6.414334,-0.088898,-0.008475,1,0,,38.990216,-76.938822,-11.009000,,,
2026-09-11T19:21:15.241,3.241260,1.084642,1.486305,10.042985,0.000000,-7.633110,2.626070,1.083503,0.047297,0.099572,0.008966,1.457899,-0.086707,-0.047522,0.016881,0.101056,0.324306,0.744423,10.674441,-0.106932,0.041314,1,0,,38.990216,-76.938822,-11.009000,,,
2026-09-11T19:21:15.275,3.274666,1.094867,1.522848,10.137661,0.000000,-7.482735,2.574335,1.093762,0.061598,0.129681,0.012795,1.494244,-0.084493,0.051532,-0.020148,0.131164,1.514539,-0.154455,10.915782,-0.045609,0.030210,1,0,,38.990216,-76.938822,-11.009000,,,
2026-09-11T19:21:15.308,3.308078,1.105126,1.559362,10.232651,0.000000,-7.749153,2.665993,1.103930,0.052502,0.110531,0.016808,1.530926,-0.082043,0.039101,0.034585,0.112014,0.530540,-1.729403,6.242913,-0.045411,-0.081378,1,0,,38.990216,-76.938822,-11.009000,,,
2026-09-11T19:21:15.342,3.341499,1.085996,1.595917,10.055515,0.000000,-8.415886,2.895374,1.084609,0.053358,0.112332,0.020532,1.567459,-0.079592,0.117949,-0.032838,0.113816,-0.536130,1.261331,14.085782,-0.111814,0.001784,1,0,,38.990216,-76.938822,-11.009000,,,
2026-09-11T19:21:15.375,3.374923,1.115709,1.633325,10.330643,0.000000,-8.163200,2.808440,1.114369,0.052716,0.110981,0.024264,1.604159,-0.076996,0.036132,0.010948,0.112464,0.190641,3.102530,6.958799,-0.129211,0.203063,1,0,,38.990216,-76.938822,-11.009000,,,
2026-09-11T19:21:15.408,3.408331,1.096606,1.669863,10.153763,0.000000,-8.102776,2.787652,1.095309,0.054349,0.114419,0.028029,1.641010,-0.074244,0.062713,-0.034169,0.115902,0.037952,1.238678,9.020157,-0.154427,0.281347,1,0,,38.990216,-76.938822,-11.009000,,,
2026-09-11T19:21:15.441,3.441735,1.106563,1.706622,10.245952,0.000000,-7.811638,2.687490,1.105346,0.050076,0.105424,0.031701,1.677698,-0.071402,-0.003653,-0.100057,0.106907,1.152183,-0.867398,9.977972,-0.104165,0.223113,1,0,,38.990216,-76.938822,-11.009000,,,
2026-09-11T19:21:15.475,3.475153,1.096939,1.743347,10.156844,0.000000,-7.473122,2.571028,1.095835,0.047233,0.099438,0.035124,1.714402,-0.068549,-0.020822,0.053057,0.100921,0.950264,0.089339,6.446500,-0.063748,0.227892,1,0,,38.990216,-76.938822,-11.009000,,,
2026-09-11T19:21:15.509,3.508569,1.106743,1.780095,10.247619,0.000000,-7.570625,2.604573,1.105600,0.049112,0.103394,0.038513,1.751099,-0.065586,-0.001780,-0.012875,0.104877,0.521420,0.205057,9.567172,-0.049643,0.239759,1,0,,38.990216,-76.938822,-11.009000,,,
2026-09-11T19:21:15.542,3.541978,1.116462,1.817527,10.337607,0.000000,-7.284294,2.506064,1.115394,0.053025,0.111632,0.042105,1.788100,-0.062386,0.017050,-0.094210,0.113115,0.165732,-0.961444,7.216125,-0.055567,0.175379,1,0,,38.990216,-76.938822,-11.009000,,,
2026-09-11T19:21:15.576,3.575388,1.107081,1.854583,10.250749,0.000000,-7.240349,2.490946,1.106035,0.047311,0.099603,0.045633,1.825101,-0.059084,0.029480,-0.082229,0.101087,1.124627,-0.364513,12.580363,0.000000,0.151249,1,0,,38.990216,-76.938822,-11.009000,,,
2026-09-11T19:21:15.610,3.608805,1.107615,1.891621,10.255693,0.000000,-7.196403,2.475827,1.106581,0.047160,0.099283,0.048956,1.861954,-0.055760,0.011462,-0.090953,0.100767,0.512986,-0.323718,7.791089,0.016610,0.130042,1,0,,38.990216,-76.938822,-11.009000,,,
2026-09-11T19:21:15.643,3.642207,1.107971,1.928477,10.258991,0.000000,-7.105766,2.444644,1.106963,0.047089,0.099135,0.052270,1.898796,-0.052318,0.008876,-0.074176,0.100619,-0.148277,0.226730,10.653356,-0.009131,0.144685,1,0,,38.990216,-76.938822,-11.009000,,,
2026-09-11T19:21:15.675,3.675608,1.098551,1.964798,10.171766,0.000000,-6.110817,2.102345,1.097811,0.041139,0.086609,0.055372,1.935484,-0.048866,-0.010766,-0.049107,0.088093,0.699803,-0.037265,8.991718,0.015865,0.143041,1,0,,38.990216,-76.938822,-11.009000,,,
2026-09-11T19:21:15.709,3.709009,1.089307,2.000982,10.086172,0.000000,-4.434029,1.525469,1.088921,0.029686,0.062497,0.057862,1.971878,-0.045618,-0.055596,0.016920,0.063981,-0.438063,0.457872,8.762242,-0.034981,0.175183,1,0,,38.990216,-76.938822,-11.009000,,,
2026-09-11T19:21:15.743,3.742409,1.070120,2.036551,9.908522,0.000000,-2.315727,0.796695,1.070017,0.023573,0.049628,0.059735,2.007818,-0.042612,-0.086980,-0.071925,0.051111,0.351765,-0.408545,8.207382,-0.033585,0.151906,1,0,,38.990216,-76.938822,-11.009000,,,
2026-09-11T19:21:15.777,3.775818,1.080276,2.073060,10.002558,0.000000,-0.823647,0.283365,1.080263,0.017550,0.036948,0.061181,2.043630,-0.039756,-0.104618,-0.013304,0.038432,-0.104735,-0.275665,9.745751,-0.058680,0.138328,1,1,3.753984,38.990215,-76.938833,-10.940000,-1.961020,-0.132137,2.869607
2026-09-11T19:21:15.810,3.809219,1.041663,2.107638,9.645024,0.000000,0.614876,-0.211540,1.041656,0.017582,0.037015,0.062416,2.078963,-0.036982,-0.127816,0.033944,0.038498,1.149830,-0.153376,8.341733,-0.001101,0.132901,1,0,,38.990215,-76.938833,-10.940000,,,
2026-09-11T19:21:15.842,3.842619,1.081095,2.143873,10.010140,0.000000,2.304024,-0.792669,1.080992,0.021556,0.045381,0.063792,2.114299,-0.034094,-0.138697,0.038731,0.046864,0.518281,-0.256346,9.444785,0.013773,0.120197,1,0,,38.990215,-76.938833,-10.940000,,,
2026-09-11T19:21:15.876,3.876027,1.032998,2.178656,9.564796,0.000000,2.565636,-0.882673,1.032875,0.016931,0.035643,0.065146,2.149495,-0.031178,-0.093457,0.124728,0.037127,-0.778746,-1.060393,5.058662,-0.057262,0.056411,1,0,,38.990215,-76.938833,-10.940000,,,
2026-09-11T19:21:15.910,3.909462,1.082092,2.215603,10.019373,0.000000,2.779182,-0.956141,1.081942,0.018825,0.039632,0.066404,2.184734,-0.028257,-0.137101,0.021567,0.041116,-0.401092,-0.527500,-0.641551,-0.104297,0.027387,1,0,,38.990215,-76.938833,-10.940000,,,
2026-09-11T19:21:15.943,3.942868,1.092473,2.250990,10.115491,0.000000,2.262825,-0.778495,1.092372,0.014943,0.031459,0.067592,2.220932,-0.025263,0.019516,-0.234815,0.032942,4.159687,-2.900905,14.838737,0.143817,-0.154258,1,0,,38.990215,-76.938833,-10.940000,,,
2026-09-11T19:21:15.976,3.976273,1.112586,2.288102,10.301727,0.000000,1.968941,-0.677388,1.112509,0.026680,0.056167,0.069055,2.257625,-0.022055,0.002209,0.149699,0.057651,1.631434,-0.706961,8.211893,0.228771,-0.193801,1,0,,38.990215,-76.938833,-10.940000,,,
2026-09-11T19:21:16.009,4.009678,1.083866,2.323956,10.035792,0.000000,2.510017,-0.863538,1.083742,0.032421,0.068255,0.071133,2.294149,-0.018502,0.052055,0.080932,0.069738,0.775902,-3.977675,11.013260,0.261228,-0.445222,1,0,,38.990215,-76.938833,-10.940000,,,
2026-09-11T19:21:16.043,4.043085,1.084661,2.360556,10.043154,0.000000,2.402901,-0.826686,1.084548,0.018154,0.038219,0.072912,2.330213,-0.015053,-0.046609,-0.000758,0.039702,-0.285864,0.827387,5.071607,0.227103,-0.380928,1,0,,38.990215,-76.938833,-10.940000,,,
2026-09-11T19:21:16.076,4.076505,1.065473,2.396142,9.865487,0.000000,2.306770,-0.793614,1.065370,0.016893,0.035564,0.074145,2.365997,-0.011830,-0.060852,0.049176,0.037047,-0.066097,1.008320,8.549536,0.214466,-0.305386,1,0,,38.990215,-76.938833,-10.940000,,,
2026-09-11T19:21:16.110,4.109918,1.094482,2.432708,10.134096,0.000000,2.286858,-0.786763,1.094379,0.024282,0.051120,0.075593,2.401927,-0.008445,-0.102361,-0.076158,0.052604,0.754524,-1.131982,7.502676,0.258885,-0.370344,1,0,,38.990215,-76.938833,-10.940000,,,
2026-09-11T19:21:16.143,4.143322,1.094295,2.468949,10.132359,0.000000,1.608452,-0.553366,1.094244,0.018342,0.038616,0.077092,2.438321,-0.004947,-0.046003,0.015028,0.040099,1.390191,2.315546,12.550061,0.348956,-0.210680,1,0,,38.990215,-76.938833,-10.940000,,,
2026-09-11T19:21:16.176,4.176727,1.104100,2.505680,10.223151,0.000000,1.097588,-0.377610,1.104076,0.029643,0.062406,0.078779,2.474864,-0.001289,-0.064770,-0.002616,0.063890,0.478368,1.824331,6.556138,0.388413,-0.086284,1,0,,38.990215,-76.938833,-10.940000,,,
2026-09-11T19:21:16.210,4.210146,1.084938,2.542741,10.045718,0.000000,0.411629,-0.141615,1.084934,0.046378,0.097639,0.081453,2.511221,0.002904,0.019129,-0.032747,0.099122,-1.840218,-2.297502,13.090799,0.281741,-0.232328,1,0,,38.990215,-76.938833,-10.940000,,,
2026-09-11T19:21:16.243,4.243564,1.026956,2.576766,9.508850,0.000000,-3.446632,1.185768,1.026736,0.055130,0.116064,0.085024,2.546242,0.007526,0.050943,0.098626,0.117547,-1.595052,2.086659,5.701979,0.195926,-0.093921,1,0,,38.990215,-76.938833,-10.940000,,,
2026-09-11T19:21:16.277,4.276990,1.017802,2.610734,9.424097,0.000000,-5.462624,1.879343,1.017255,0.054144,0.113988,0.088869,2.580116,0.012312,0.047113,0.137703,0.115472,-1.368224,-1.026658,6.558197,0.127015,-0.158310,1,0,,38.990215,-76.938833,-10.940000,,,
2026-09-11T19:21:16.310,4.310395,0.960246,2.642270,8.891163,0.000000,-6.041466,2.078486,0.959614,0.078319,0.164881,0.093527,2.612795,0.017519,0.009439,-0.050421,0.166365,-5.512416,6.160734,8.264064,-0.210481,0.240191,1,0,,38.990215,-76.938833,-10.940000,,,
2026-09-11T19:21:16.344,4.343802,0.911998,2.672279,8.444428,0.000000,-6.604515,2.272196,0.911281,0.073144,0.153987,0.098853,2.643658,0.023037,0.027877,-0.053008,0.155471,0.019907,2.115491,5.506826,-0.183804,0.373804,1,0,,38.990215,-76.938833,-10.940000,,,
2026-09-11T19:21:16.377,4.377219,0.892859,2.701947,8.267215,0.000000,-6.207634,2.135654,0.892239,0.037742,0.079458,0.102754,2.673454,0.027912,0.022882,0.025736,0.080941,-1.566612,1.710182,6.446990,-0.261479,0.484243,1,0,,38.990215,-76.938833,-10.940000,,,
2026-09-11T19:21:16.410,4.410644,0.835142,2.730013,7.732798,0.000000,-5.503822,1.893517,0.834686,0.060834,0.128071,0.106222,2.701986,0.032559,0.143555,0.112687,0.129554,-2.653876,1.343217,12.708046,-0.411904,0.567405,1,0,,38.990215,-76.938833,-10.940000,,,
2026-09-11T19:21:16.443,4.444050,0.806212,2.756861,7.464922,0.000000,-2.638451,0.907724,0.806110,0.024345,0.051252,0.109217,2.729081,0.036919,0.048408,0.090042,0.052736,1.128942,-3.376626,7.281732,-0.317095,0.348580,1,0,,38.990215,-76.938833,-10.940000,,,
2026-09-11T19:21:16.477,4.477455,0.796590,2.783486,7.375830,0.000000,-0.264717,0.091072,0.796589,0.019229,0.040482,0.110749,2.755608,0.040581,0.114828,0.062451,0.041966,0.107383,-3.596295,9.452434,-0.295697,0.118555,1,0,,38.990215,-76.938833,-10.940000,,,
2026-09-11T19:21:16.510,4.510860,0.738687,2.808346,6.839696,0.000000,1.298088,-0.446590,0.738665,0.021398,0.045049,0.112178,2.781017,0.044107,-0.024824,0.099178,0.046532,0.585359,7.230835,9.652392,-0.247984,0.591272,1,0,,38.990215,-76.938833,-10.940000,,,
2026-09-11T19:21:16.544,4.544281,0.748940,2.834048,6.934626,0.000000,1.115440,-0.383752,0.748923,0.011381,0.023960,0.113331,2.805655,0.047448,-0.031290,0.041377,0.025443,-0.557606,0.514261,9.392025,-0.279103,0.625357,1,0,,38.990215,-76.938833,-10.940000,,,
2026-09-11T19:21:16.577,4.577688,0.739567,2.858999,6.847844,0.000000,1.248650,-0.429581,0.739546,0.033095,0.069673,0.114895,2.830272,0.051017,0.006260,0.010851,0.071156,-0.619094,-2.214930,5.053367,-0.320680,0.480358,1,0,,38.990215,-76.938833,-10.940000,,,
2026-09-11T19:21:16.610,4.611097,0.720869,2.883175,6.674714,0.000000,-0.263344,0.090600,0.720868,0.003179,0.006692,0.116171,2.854435,0.054431,0.051179,0.015181,0.008176,0.220061,6.674994,9.773013,-0.311846,0.914986,1,0,,38.990215,-76.938833,-10.940000,,,
2026-09-11T19:21:16.644,4.644503,0.789541,2.909652,7.310566,0.000000,-1.901680,0.654248,0.789490,0.021782,0.045856,0.117048,2.879443,0.057781,0.080739,-0.027816,0.047340,1.506301,-2.148833,13.480221,-0.224828,0.772050,1,0,,38.990215,-76.938833,-10.940000,,,
2026-09-11T19:21:16.678,4.677909,0.780415,2.935092,7.226068,0.000000,-1.673027,0.575583,0.780376,0.030045,0.063253,0.118871,2.905380,0.061726,0.078544,0.049864,0.064737,1.267411,-2.985144,7.059611,-0.159791,0.575761,1,0,,38.990215,-76.938833,-10.940000,,,
2026-09-11T19:21:16.711,4.711328,0.800100,2.961684,7.408336,0.000000,-1.337944,0.460302,0.800074,0.009860,0.020757,0.120275,2.931520,0.065539,0.069055,0.002371,0.022240,-0.067568,-1.162480,9.290918,-0.183712,0.501616,1,0,,38.990215,-76.938833,-10.940000,,,
