timestamp,time_s,speed_mps,distance_m,wheel_omega_rad_s,motor_current_A,steer_motor_deg,steer_column_deg,vx_mps,vy_mps,yaw_rate_rad_s,heading_rad,x_m,y_m,gyro_x_rad_s,gyro_y_rad_s,gyro_z_rad_s,accel_x_mps2,accel_y_mps2,accel_z_mps2,grade_deg,bank_deg,moving,gps_new_fix,gps_time_s,gps_latitude_deg,gps_longitude_deg,gps_altitude_m,gps_east_m,gps_north_m,gps_sigma_m
2026-09-11T19:06:11.084,0.000008,0.560293,0.002643,5.187902,0.000000,-11.325509,3.896391,0.558998,0.014167,0.029826,0.000000,0.000000,0.000000,-0.107867,0.008849,0.031309,0.100224,0.213687,9.836560,-0.609523,1.175282,1,0,,,,,,,
2026-09-11T19:06:11.118,0.033426,0.550499,0.020393,5.097217,0.000000,-11.298043,3.886942,0.549233,0.017914,0.037714,0.001129,0.018517,0.000546,-0.131383,0.016469,0.039197,0.040207,0.729223,10.010432,-0.614676,1.208382,1,0,,,,,,,
2026-09-11T19:06:11.153,0.066842,0.511601,0.037506,4.737048,0.000000,-11.298043,3.886942,0.510424,0.017644,0.037144,0.002379,0.036221,0.001171,-0.154702,0.031412,0.038628,0.730792,0.214275,9.736729,-0.575129,1.207905,1,0,,,,,,,
2026-09-11T19:06:11.185,0.100258,0.521223,0.054982,4.826139,0.000000,-11.366021,3.910328,0.520010,0.019921,0.041940,0.003701,0.053436,0.001851,-0.142177,0.020193,0.043423,-0.409428,0.838763,9.172748,-0.606697,1.247659,1,0,,,,,,,
2026-09-11T19:06:11.219,0.133670,0.501936,0.071867,4.647556,0.000000,-11.364648,3.909856,0.500768,0.022214,0.046767,0.005183,0.070485,0.002631,-0.101114,0.021920,0.048251,1.151497,-0.506023,9.121950,-0.535013,1.199856,1,1,0.140990,38.990438,-76.939768,-10.468000,0.000000,0.000000,3.096615
2026-09-11T19:06:11.253,0.167081,0.511945,0.090210,4.740234,0.000000,-12.062967,4.150103,0.510603,0.033787,0.071129,0.007152,0.087374,0.003671,-0.039877,0.014796,0.072613,0.134645,-1.392544,9.712016,-0.529843,1.094392,1,0,,38.990438,-76.939768,-10.468000,,,
2026-09-11T19:06:11.286,0.200500,0.511844,0.106821,4.739300,0.000000,-13.857171,4.767375,0.510074,0.024403,0.051374,0.009199,0.104421,0.004782,0.001750,0.007767,0.052857,0.864456,-3.667001,9.201972,-0.474961,0.843558,1,0,,38.990438,-76.939768,-10.468000,,,
2026-09-11T19:06:11.319,0.233917,0.521731,0.123842,4.830844,0.000000,-14.928338,5.135896,0.519636,0.031323,0.065942,0.011159,0.121616,0.005889,0.057330,-0.009926,0.067426,0.753739,0.009611,9.070955,-0.425365,0.832889,1,0,,38.990438,-76.939768,-10.468000,,,
2026-09-11T19:06:11.353,0.267332,0.522095,0.141546,4.834213,0.000000,-14.968164,5.149598,0.519988,0.017363,0.036553,0.012872,0.138974,0.006911,0.094829,-0.004000,0.038036,0.308517,0.574572,9.867157,-0.405795,0.859879,1,0,,38.990438,-76.939768,-10.468000,,,
2026-09-11T19:06:11.386,0.300754,0.541835,0.159547,5.016991,0.000000,-14.968164,5.149598,0.539648,0.020956,0.044117,0.014220,0.156671,0.007791,0.095065,0.004047,0.045601,-0.000098,-0.297436,10.258443,-0.406493,0.829835,1,0,,38.990438,-76.939768,-10.468000,,,
2026-09-11T19:06:11.420,0.334174,0.522788,0.175794,4.840626,0.000000,-14.968164,5.149598,0.520677,0.021524,0.045315,0.015714,0.174377,0.008766,0.103903,0.006294,0.046798,0.119543,0.956148,10.072018,-0.400134,0.881258,1,0,,38.990438,-76.939768,-10.468000,,,
2026-09-11T19:06:11.453,0.367592,0.493825,0.192724,4.572455,0.000000,-15.934961,5.482211,0.491566,0.023694,0.049881,0.017305,0.191276,0.009800,0.103737,-0.008823,0.051365,0.212608,1.482079,11.067393,-0.388478,0.966081,1,0,,38.990438,-76.939768,-10.468000,,,
2026-09-11T19:06:11.486,0.401011,0.494177,0.209517,4.575716,0.000000,-18.578548,6.391702,0.491106,0.033924,0.071420,0.019332,0.207675,0.011063,0.123806,-0.002323,0.072903,-0.192210,0.403642,9.667592,-0.401923,0.979500,1,0,,38.990438,-76.939768,-10.468000,,,
2026-09-11T19:06:11.520,0.434428,0.494336,0.225763,4.577183,0.000000,-20.813580,7.160635,0.490480,0.037710,0.079389,0.021851,0.224048,0.012598,0.082952,-0.005955,0.080873,0.145923,-0.489940,9.441745,-0.394032,0.934698,1,0,,38.990438,-76.939768,-10.468000,,,
2026-09-11T19:06:11.554,0.467845,0.455751,0.240756,4.219921,0.000000,-22.043362,7.583725,0.451765,0.036781,0.077434,0.024472,0.239758,0.014206,0.038800,-0.004563,0.078918,0.025988,0.948990,9.931195,-0.393446,0.983756,1,0,,38.990438,-76.939768,-10.468000,,,
2026-09-11T19:06:11.586,0.501264,0.455928,0.256137,4.221551,0.000000,-22.043362,7.583725,0.451940,0.031292,0.065878,0.026866,0.254824,0.015730,0.008593,-0.013378,0.067361,0.192897,0.910449,9.509313,-0.381458,1.030118,1,0,,38.990438,-76.939768,-10.468000,,,
2026-09-11T19:06:11.620,0.534684,0.456086,0.271062,4.223018,0.000000,-21.500912,7.397103,0.452290,0.029736,0.062602,0.029013,0.269900,0.017172,-0.023778,-0.001672,0.064085,-0.192995,0.568001,9.855781,-0.392712,1.053901,1,0,,38.990438,-76.939768,-10.468000,,,
2026-09-11T19:06:11.653,0.568104,0.407783,0.284756,3.775768,0.000000,-20.871258,7.180479,0.404585,0.025579,0.053851,0.030959,0.284184,0.018524,-0.022432,-0.001548,0.055335,0.525833,-0.113757,9.739867,-0.355491,1.033725,1,0,,38.990438,-76.939768,-10.468000,,,
2026-09-11T19:06:11.687,0.601523,0.437242,0.299407,4.048534,0.000000,-20.771008,7.145989,0.433845,0.026878,0.056585,0.032805,0.298158,0.019847,-0.020543,-0.000604,0.058069,0.249873,0.136803,9.557267,-0.342264,1.029808,1,0,,38.990438,-76.939768,-10.468000,,,
2026-09-11T19:06:11.721,0.634941,0.408149,0.312874,3.779158,0.000000,-20.484676,7.047480,0.405065,0.024653,0.051901,0.034617,0.312139,0.021180,0.005656,0.002924,0.053385,0.561431,-0.643218,10.144783,-0.311678,0.975688,1,0,,38.990438,-76.939768,-10.468000,,,
2026-09-11T19:06:11.753,0.668365,0.408513,0.326910,3.782527,0.000000,-20.350780,7.001415,0.405467,0.019891,0.041877,0.036184,0.325650,0.022403,0.048227,0.008313,0.043360,0.421294,0.308909,9.697404,-0.291946,0.984042,1,0,,38.990438,-76.939768,-10.468000,,,
2026-09-11T19:06:11.786,0.701785,0.428253,0.340832,3.965305,0.000000,-20.131054,6.925821,0.425128,0.018102,0.038109,0.037521,0.339496,0.023549,0.081548,-0.005665,0.039593,0.385794,0.285864,9.413698,-0.279245,0.990862,1,0,,38.990438,-76.939768,-10.468000,,,
2026-09-11T19:06:11.820,0.735205,0.408966,0.354390,3.786722,0.000000,-19.820004,6.818809,0.406073,0.017002,0.035794,0.038756,0.353353,0.024665,0.105335,-0.015490,0.037278,0.284295,0.192799,10.139292,-0.274574,0.991691,1,0,,38.990438,-76.939768,-10.468000,,,
2026-09-11T19:06:11.854,0.768627,0.428574,0.368791,3.968274,0.000000,-19.487667,6.704473,0.425643,0.018838,0.039660,0.040017,0.367218,0.025811,0.127032,-0.003593,0.041143,0.555841,-0.470327,9.939530,-0.254934,0.949446,1,0,,38.990438,-76.939768,-10.468000,,,
2026-09-11T19:06:11.887,0.802045,0.399708,0.381642,3.701000,0.000000,-18.716564,6.439185,0.397186,0.016293,0.034300,0.041253,0.380931,0.026956,0.082819,0.002183,0.035784,0.508671,0.414625,9.062718,-0.236657,0.965147,1,0,,38.990438,-76.939768,-10.468000,,,
2026-09-11T19:06:11.920,0.835465,0.400060,0.395359,3.704261,0.000000,-16.887341,5.809865,0.398005,0.010540,0.022189,0.042197,0.394189,0.027958,0.037391,0.005123,0.023672,0.513770,0.219473,9.494210,-0.214477,0.968356,1,0,,38.990438,-76.939768,-10.468000,,,
2026-09-11T19:06:11.954,0.869019,0.439355,0.408643,4.068098,0.000000,-14.224529,4.893760,0.437753,0.009002,0.018952,0.042887,0.408183,0.028882,-0.005069,0.001581,0.020436,0.566432,-0.435709,9.515295,-0.184671,0.929012,1,0,,38.990438,-76.939768,-10.468000,,,
2026-09-11T19:06:11.988,0.902438,0.410489,0.423158,3.800824,0.000000,-11.079692,3.811821,0.409581,0.009699,0.020419,0.043545,0.422315,0.029806,-0.039931,0.004291,0.021902,0.861220,-0.202311,9.649253,-0.134399,0.905359,1,0,,38.990438,-76.939768,-10.468000,,,
2026-09-11T19:06:12.022,0.935859,0.459587,0.438447,4.255434,0.000000,-7.568187,2.603734,0.459112,-0.002090,-0.004400,0.043812,0.436812,0.030567,-0.039833,0.005129,-0.002916,1.073534,-0.095909,9.552952,-0.069696,0.889524,1,0,,38.990438,-76.939768,-10.468000,,,
2026-09-11T19:06:12.054,0.969272,0.440300,0.452848,4.076851,0.000000,-4.107493,1.413128,0.440166,-0.001103,-0.002322,0.043700,0.451824,0.031171,-0.057719,0.003061,-0.000838,0.775314,-0.255267,9.498525,-0.029421,0.863494,1,0,,38.990438,-76.939768,-10.468000,,,
2026-09-11T19:06:12.088,1.002689,0.441028,0.468206,4.083589,0.000000,-1.303233,0.448360,0.441014,-0.007421,-0.015623,0.043400,0.466539,0.031669,-0.068547,0.008318,-0.014140,1.056372,-0.381675,10.064859,0.018608,0.829950,1,0,,38.990438,-76.939768,-10.468000,,,
2026-09-11T19:06:12.122,1.036103,0.480306,0.484110,4.447278,0.000000,1.838857,-0.632634,0.480277,-0.001284,-0.002702,0.043094,0.481923,0.032189,-0.041360,-0.040185,-0.001219,-1.288103,-1.543076,13.189748,-0.093703,0.721281,1,0,,38.990438,-76.939768,-10.468000,,,
2026-09-11T19:06:12.155,1.069522,0.364179,0.495913,3.372026,0.000000,3.917333,-1.347706,0.364078,-0.026955,-0.056748,0.042101,0.496039,0.032320,-0.067684,-0.089537,-0.055264,-1.781672,0.743442,10.955597,-0.246721,0.763005,1,0,,38.990438,-76.939768,-10.468000,,,
2026-09-11T19:06:12.188,1.102942,0.403394,0.509562,3.735129,0.000000,3.928319,-1.351486,0.403282,-0.003734,-0.007861,0.041021,0.508872,0.032340,0.004100,-0.075025,-0.006378,-0.396287,2.148539,7.107762,-0.310223,0.894056,1,1,1.079420,38.990442,-76.939766,-10.450000,0.151246,0.392333,3.271096
2026-09-11T19:06:12.222,1.136362,0.297456,0.518152,2.754226,0.000000,3.928319,-1.351486,0.297374,0.004369,0.009199,0.041043,0.520570,0.032831,0.051842,-0.051735,0.010682,0.252129,-1.060295,9.158823,-0.334152,0.815633,1,0,,38.990442,-76.939766,-10.450000,,,
2026-09-11T19:06:12.255,1.169783,0.346554,0.529500,3.208837,0.000000,3.928319,-1.351486,0.346458,-0.013945,-0.029357,0.040707,0.531326,0.033110,0.005513,-0.015791,-0.027874,0.871223,0.025890,9.405656,-0.320195,0.809202,1,0,,38.990442,-76.939766,-10.450000,,,
2026-09-11T19:06:12.288,1.203205,0.298337,0.539207,2.762379,0.000000,4.882070,-1.679611,0.298209,-0.014158,-0.029806,0.039718,0.542109,0.033074,-0.076127,0.021108,-0.028323,2.058514,0.648122,9.120479,-0.230751,0.843024,1,0,,38.990442,-76.939766,-10.450000,,,
2026-09-11T19:06:12.322,1.236630,0.415665,0.553402,3.848753,0.000000,7.535270,-2.592409,0.415240,-0.023058,-0.048544,0.038409,0.554048,0.032917,-0.165852,0.082526,-0.047060,2.507953,-0.199173,8.573660,-0.118158,0.822370,1,0,,38.990442,-76.939766,-10.450000,,,
2026-09-11T19:06:12.355,1.270045,0.454347,0.568623,4.206912,0.000000,10.119117,-3.481347,0.453508,-0.026985,-0.056812,0.036648,0.568584,0.032626,-0.173110,0.162359,-0.055328,2.337415,0.400700,7.608686,-0.018418,0.841124,1,0,,38.990442,-76.939766,-10.450000,,,
2026-09-11T19:06:12.388,1.303466,0.532727,0.587376,4.932659,0.000000,11.250708,-3.870657,0.531512,-0.020779,-0.043745,0.034968,0.585062,0.032416,-0.157059,-0.013224,-0.042261,1.187095,-0.440711,11.515361,-0.002923,0.805063,1,0,,38.990442,-76.939766,-10.450000,,,
2026-09-11T19:06:12.423,1.336892,0.581928,0.607291,5.388222,0.000000,11.035102,-3.796480,0.580651,0.006588,0.013869,0.034469,0.603647,0.032824,-0.009536,0.021728,0.015352,2.175409,-2.408611,10.714648,0.068311,0.640010,1,0,,38.990442,-76.939766,-10.450000,,,
2026-09-11T19:06:12.455,1.370317,0.601844,0.627366,5.572631,0.000000,10.053199,-3.458669,0.600748,-0.025381,-0.053435,0.033807,0.623390,0.033184,-0.009758,0.019104,-0.051951,0.923100,-1.949562,9.501859,0.051528,0.509101,1,0,,38.990442,-76.939766,-10.450000,,,
2026-09-11T19:06:12.489,1.403746,0.641059,0.648579,5.935734,0.000000,8.648322,-2.975340,0.640195,-0.009347,-0.019678,0.032585,0.644140,0.033292,-0.015899,0.014362,-0.018194,0.940164,-0.793848,9.556875,0.029249,0.453167,1,0,,38.990442,-76.939766,-10.450000,,,
2026-09-11T19:06:12.522,1.437171,0.660795,0.670454,6.118475,0.000000,8.112738,-2.791080,0.660011,-0.008338,-0.017553,0.031963,0.665867,0.033698,0.073844,0.014851,-0.016069,1.455111,-0.866418,10.700526,0.038725,0.393099,1,0,,38.990442,-76.939766,-10.450000,,,
2026-09-11T19:06:12.556,1.470595,0.690207,0.693354,6.390803,0.000000,7.443946,-2.560990,0.689517,-0.007130,-0.015011,0.031419,0.688418,0.034154,0.098515,0.010116,-0.013527,0.653613,-1.844337,9.927664,0.000000,0.270334,1,0,,38.990442,-76.939766,-10.450000,,,
2026-09-11T19:06:12.589,1.504018,0.719468,0.717279,6.661738,0.000000,7.466605,-2.568786,0.718745,-0.016692,-0.035142,0.030581,0.711953,0.034485,0.076505,-0.026277,-0.033658,1.832765,0.123270,9.093805,0.048025,0.277222,1,0,,38.990442,-76.939766,-10.450000,,,
2026-09-11T19:06:12.623,1.537441,0.738755,0.742321,6.840321,0.000000,7.443946,-2.560990,0.738017,-0.028626,-0.060265,0.028986,0.736309,0.034453,0.061311,0.011140,-0.058782,1.095501,0.400504,9.948650,0.057129,0.303216,1,0,,38.990442,-76.939766,-10.450000,,,
2026-09-11T19:06:12.656,1.570861,0.777558,0.768388,7.199615,0.000000,7.980903,-2.745723,0.776666,-0.027883,-0.058702,0.026999,0.761636,0.034217,0.051533,0.004364,-0.057218,1.269079,-0.715885,9.390652,0.088005,0.256759,1,0,,38.990442,-76.939766,-10.450000,,,
2026-09-11T19:06:12.689,1.604285,0.787465,0.794888,7.291341,0.000000,9.646018,-3.318584,0.786144,-0.032067,-0.067510,0.024889,0.787771,0.033893,0.077589,0.012411,-0.066027,0.184561,-0.641649,10.741616,0.053343,0.216098,1,0,,38.990442,-76.939766,-10.450000,,,
2026-09-11T19:06:12.723,1.637707,0.806983,0.822140,7.472067,0.000000,10.763190,-3.702932,0.805299,-0.044182,-0.093014,0.022207,0.814387,0.033245,0.074846,0.012480,-0.091531,1.021755,-0.641159,10.305613,0.077030,0.177336,1,0,,38.990442,-76.939766,-10.450000,,,
2026-09-11T19:06:12.756,1.671127,0.836213,0.850303,7.742710,0.000000,11.086600,-3.814197,0.834360,-0.039697,-0.083572,0.019256,0.841810,0.032410,0.023973,0.019547,-0.082089,-0.698528,2.096564,12.110526,-0.005900,0.315810,1,0,,38.990442,-76.939766,-10.450000,,,
2026-09-11T19:06:12.790,1.704549,0.836547,0.878239,7.745807,0.000000,11.777366,-4.051846,0.834456,-0.032287,-0.067972,0.016724,0.869715,0.031709,-0.007897,-0.012317,-0.066488,1.658991,-0.577023,10.552642,0.070299,0.278915,1,0,,38.990442,-76.939766,-10.450000,,,
2026-09-11T19:06:12.823,1.737970,0.846446,0.906790,7.837463,0.000000,11.641410,-4.005072,0.844379,-0.036061,-0.075918,0.014319,0.897783,0.031003,-0.051369,-0.045182,-0.074434,0.424236,-1.846494,9.710153,0.070679,0.160767,1,0,,38.990442,-76.939766,-10.450000,,,
2026-09-11T19:06:12.856,1.771392,0.837085,0.934725,7.750788,0.000000,11.598151,-3.990190,0.835056,-0.032250,-0.067894,0.011916,0.925860,0.030230,-0.066631,-0.013339,-0.066411,-0.759623,1.675760,10.597066,-0.003143,0.271357,1,0,,38.990442,-76.939766,-10.450000,,,
2026-09-11T19:06:12.889,1.804812,0.817743,0.961795,7.571692,0.000000,10.878547,-3.742619,0.815999,-0.030822,-0.064889,0.009697,0.953459,0.029474,-0.090212,-0.017615,-0.063406,0.606639,1.731070,10.572451,0.015986,0.384055,1,0,,38.990442,-76.939766,-10.450000,,,
2026-09-11T19:06:12.923,1.838234,0.798669,0.988887,7.395082,0.000000,9.309562,-3.202831,0.797421,-0.023068,-0.048565,0.007801,0.980429,0.028810,-0.091982,-0.009703,-0.047081,0.315970,0.788651,9.286309,0.017893,0.433611,1,0,,38.990442,-76.939766,-10.450000,,,
2026-09-11T19:06:12.957,1.871657,0.808744,1.015934,7.488368,0.000000,8.707373,-2.995656,0.807639,-0.012635,-0.026601,0.006545,1.007255,0.028405,-0.072638,0.007046,-0.025117,0.062468,0.176618,10.133702,0.000123,0.441898,1,0,,38.990442,-76.939766,-10.450000,,,
2026-09-11T19:06:12.990,1.905077,0.799320,1.042526,7.401107,0.000000,7.086890,-2.438150,0.798596,-0.007008,-0.014754,0.005854,1.034097,0.028244,-0.079105,0.009346,-0.013271,0.104833,1.014792,9.411932,-0.016665,0.503697,1,0,,38.990442,-76.939766,-10.450000,,,
2026-09-11T19:06:13.024,1.938496,0.789834,1.068752,7.313282,0.000000,5.306418,-1.825603,0.789434,0.003141,0.006612,0.005718,1.060632,0.028333,-0.084405,-0.011946,0.008096,-0.587909,0.643022,9.549716,-0.079397,0.539657,1,0,,38.990442,-76.939766,-10.450000,,,
2026-09-11T19:06:13.057,1.971921,0.761299,1.094022,7.049067,0.000000,3.381751,-1.163446,0.761142,0.000475,0.001001,0.005845,1.086545,0.028543,-0.100624,-0.006871,0.002484,1.023324,-0.100812,9.249927,-0.039049,0.527377,1,0,,38.990442,-76.939766,-10.450000,,,
2026-09-11T19:06:13.090,2.005338,0.771467,1.119975,7.143210,0.000000,2.141669,-0.736813,0.771403,0.009623,0.020260,0.006200,1.112150,0.028866,-0.088217,0.020906,0.021743,-0.038050,-0.947617,9.709957,-0.072250,0.459484,1,0,,38.990442,-76.939766,-10.450000,,,
2026-09-11T19:06:13.124,2.038760,0.771920,1.146042,7.147404,0.000000,1.502402,-0.516881,0.771888,0.000060,0.000127,0.006541,1.137939,0.029192,-0.097727,0.002114,0.001610,0.518281,0.548094,9.299450,-0.075322,0.490125,1,0,,38.990442,-76.939766,-10.450000,,,
2026-09-11T19:06:13.157,2.072177,0.772169,1.172200,7.149711,0.000000,1.278556,-0.439870,0.772146,0.009122,0.019204,0.006864,1.163736,0.029518,-0.083993,0.014619,0.020687,0.838371,-0.956246,9.174710,-0.062572,0.422140,1,1,2.076605,38.990447,-76.939763,-10.405000,0.401739,0.969805,4.618302
2026-09-11T19:06:13.191,2.105599,0.792079,1.198951,7.334066,0.000000,0.894721,-0.307817,0.792068,0.005852,0.012320,0.007391,1.189873,0.029955,-0.057005,-0.023473,0.013804,0.955952,-0.450518,10.399168,-0.046585,0.387951,1,0,,38.990447,-76.939763,-10.405000,,,
2026-09-11T19:06:13.224,2.139020,0.851034,1.227798,7.879946,0.000000,0.433295,-0.149069,0.851031,0.011335,0.023863,0.007995,1.217326,0.030454,-0.044719,-0.012413,0.025347,0.918883,0.435023,9.194813,-0.037398,0.410759,1,0,,38.990447,-76.939763,-10.405000,,,
2026-09-11T19:06:13.257,2.172445,0.870640,1.256759,8.061480,0.000000,0.010321,-0.003551,0.870640,-0.000646,-0.001360,0.008371,1.246098,0.030868,-0.031111,0.008822,0.000124,1.202491,-0.870046,9.548539,-0.016030,0.350252,1,0,,38.990447,-76.939763,-10.405000,,,
2026-09-11T19:06:13.291,2.205868,0.900199,1.286791,8.335180,0.000000,-0.026757,0.009206,0.900199,0.007696,0.016201,0.008619,1.275688,0.031237,-0.035218,-0.003696,0.017685,1.261920,0.853767,9.708289,0.001761,0.400946,1,0,,38.990447,-76.939763,-10.405000,,,
2026-09-11T19:06:13.324,2.239286,0.910247,1.317392,8.428209,0.000000,-0.004098,0.001410,0.910247,0.005682,0.011963,0.009090,1.305936,0.031728,-0.044412,-0.018051,0.013446,1.552491,-1.103150,9.082331,0.032153,0.324698,1,0,,38.990447,-76.939763,-10.405000,,,
2026-09-11T19:06:13.357,2.272711,0.968933,1.349840,8.971602,0.000000,-0.851419,0.292919,0.968920,0.008471,0.017833,0.009588,1.337339,0.032258,-0.028799,0.002286,0.019317,1.386464,-1.415492,9.913248,0.048398,0.228652,1,0,,38.990447,-76.939763,-10.405000,,,
2026-09-11T19:06:13.391,2.306131,0.978772,1.382720,9.062708,0.000000,-2.800119,0.963344,0.978634,0.016554,0.034850,0.010468,1.369876,0.033003,-0.009014,-0.020329,0.036333,0.789435,0.053642,10.638450,0.022093,0.227655,1,0,,38.990447,-76.939763,-10.405000,,,
2026-09-11T19:06:13.425,2.339549,1.008103,1.416739,9.334284,0.000000,-5.099694,1.754482,1.007630,0.024334,0.051230,0.011907,1.403055,0.034058,0.009613,0.021524,0.052713,2.153933,0.640276,8.931603,0.081306,0.263490,1,0,,38.990447,-76.939763,-10.405000,,,
2026-09-11T19:06:13.458,2.372972,1.037008,1.451305,9.601922,0.000000,-7.685601,2.644129,1.035904,0.026835,0.056494,0.013707,1.437191,0.035351,0.006521,0.038005,0.057978,0.470033,1.835805,9.489209,0.032158,0.375849,1,0,,38.990447,-76.939763,-10.405000,,,
2026-09-11T19:06:13.492,2.406390,1.076159,1.487353,9.964437,0.000000,-9.963891,3.427944,1.074234,0.044320,0.093305,0.016210,1.472427,0.037068,0.030347,-0.005819,0.094789,2.645736,0.269094,10.043088,0.126827,0.382883,1,0,,38.990447,-76.939763,-10.405000,,,
2026-09-11T19:06:13.525,2.439807,1.115141,1.524699,10.325378,0.000000,-12.797677,4.402871,1.111850,0.051823,0.109100,0.019592,1.508919,0.039329,0.081324,0.030104,0.110584,1.534152,-0.146806,10.565881,0.150273,0.361567,1,0,,38.990447,-76.939763,-10.405000,,,
2026-09-11T19:06:13.558,2.473230,1.154387,1.563458,10.688773,0.000000,-17.497082,6.019638,1.148022,0.055355,0.116538,0.023363,1.546637,0.041931,0.096317,0.011100,0.118021,1.785889,-0.750993,10.861061,0.191551,0.300579,1,0,,38.990447,-76.939763,-10.405000,,,
2026-09-11T19:06:13.592,2.506651,1.193741,1.603561,11.053155,0.000000,-17.824612,6.132321,1.186910,0.071085,0.149653,0.027811,1.585588,0.045043,0.099470,0.011268,0.151137,1.144142,0.538679,10.610795,0.196378,0.320883,1,0,,38.990447,-76.939763,-10.405000,,,
2026-09-11T19:06:13.625,2.540066,1.213251,1.644211,11.233809,0.000000,-17.824612,6.132321,1.206309,0.060970,0.128357,0.032456,1.625487,0.048454,0.100313,0.006077,0.129840,1.661933,0.907311,9.816555,0.242770,0.366280,1,0,,38.990447,-76.939763,-10.405000,,,
2026-09-11T19:06:13.658,2.573482,1.252401,1.686434,11.596308,0.000000,-17.868557,6.147439,1.245199,0.068361,0.143919,0.037005,1.666348,0.052037,0.116854,-0.042200,0.145402,1.506203,-1.253780,7.332727,0.287900,0.269783,1,0,,38.990447,-76.939763,-10.405000,,,
2026-09-11T19:06:13.692,2.606896,1.281844,1.729659,11.868927,0.000000,-17.868557,6.147439,1.274473,0.064453,0.135690,0.041676,1.708324,0.055911,0.122350,-0.016527,0.137174,1.913866,-0.975762,9.156371,0.365737,0.192756,1,0,,38.990447,-76.939763,-10.405000,,,
2026-09-11T19:06:13.725,2.640318,1.311544,1.773795,12.143927,0.000000,-17.868557,6.147439,1.304002,0.070761,0.148970,0.046433,1.751271,0.060067,0.119676,0.004957,0.150453,0.141510,-1.070200,11.873402,0.333646,0.109074,1,0,,38.990447,-76.939763,-10.405000,,,
2026-09-11T19:06:13.758,2.673738,1.321882,1.818023,12.239647,0.000000,-16.750011,5.762619,1.315202,0.053530,0.112696,0.050806,1.794885,0.064269,0.068936,0.004611,0.114179,0.242813,-2.620239,9.925016,0.319085,-0.070986,1,0,,38.990447,-76.939763,-10.405000,,,
2026-09-11T19:06:13.792,2.707157,1.331966,1.862387,12.333023,0.000000,-16.098385,5.538435,1.325748,0.046060,0.096969,0.054309,1.838867,0.068250,0.047227,0.034672,0.098452,-0.234379,-0.011474,4.373080,0.282975,-0.078988,1,0,,38.990447,-76.939763,-10.405000,,,
2026-09-11T19:06:13.826,2.740573,1.332706,1.906250,12.339872,0.000000,-15.212612,5.233697,1.327150,0.041891,0.088191,0.057403,1.883040,0.072191,0.034231,-0.070419,0.089675,0.463560,-0.819346,16.983353,0.299256,-0.138420,1,0,,38.990447,-76.939763,-10.405000,,,
2026-09-11T19:06:13.859,2.773990,1.313822,1.949543,12.165023,0.000000,-15.182400,5.223303,1.308367,0.040516,0.085297,0.060301,1.926919,0.076156,0.013589,0.011109,0.086780,0.659595,0.281843,14.402537,0.331943,-0.125601,1,0,,38.990447,-76.939763,-10.405000,,,
2026-09-11T19:06:13.892,2.807409,1.275229,1.992312,11.807673,0.000000,-15.193386,5.227082,1.269926,0.047571,0.100149,0.063400,1.969827,0.080287,-0.068825,0.044355,0.101633,-2.238858,0.826308,14.846876,0.179303,-0.078704,1,0,,38.990447,-76.939763,-10.405000,,,
2026-09-11T19:06:13.926,2.840824,1.207846,2.032279,11.183758,0.000000,-15.452938,5.316378,1.202650,0.055732,0.117330,0.067034,2.010937,0.084699,-0.168291,0.043833,0.118813,0.191034,1.823939,3.943646,0.188890,0.031308,1,0,,38.990447,-76.939763,-10.405000,,,
2026-09-11T19:06:13.959,2.874245,1.227403,2.073476,11.364839,0.000000,-16.260433,5.594186,1.221557,0.059699,0.125683,0.071094,2.051217,0.089420,-0.175541,-0.027282,0.127166,-0.201429,0.378242,14.512665,0.173052,0.045773,1,0,,38.990447,-76.939763,-10.405000,,,
2026-09-11T19:06:13.993,2.907665,1.188403,2.113192,11.003735,0.000000,-17.887783,6.154054,1.181555,0.070656,0.148750,0.075680,2.091104,0.094535,-0.125824,0.024280,0.150234,0.125917,-2.772732,9.188537,0.176241,-0.145238,1,0,,38.990447,-76.939763,-10.405000,,,
2026-09-11T19:06:14.026,2.941085,1.139729,2.151335,10.553045,0.000000,-17.956448,6.177677,1.133110,0.061252,0.128951,0.080321,2.129493,0.099744,-0.139476,0.043491,0.130435,-1.348218,1.066081,11.853494,0.080379,-0.083833,1,0,,38.990447,-76.939763,-10.405000,,,
2026-09-11T19:06:14.059,2.974504,1.120266,2.188545,10.372831,0.000000,-18.792782,6.465407,1.113141,0.080917,0.170351,0.085322,2.166701,0.105216,-0.161487,0.041918,0.171835,0.364317,-0.332053,9.730649,0.093424,-0.116386,1,0,,38.990447,-76.939763,-10.405000,,,
2026-09-11T19:06:14.093,3.007920,1.110800,2.225663,10.285186,0.000000,-20.092602,6.912592,1.102726,0.076586,0.161233,0.090862,2.203348,0.111094,-0.109343,0.009911,0.162717,-0.041482,0.482193,9.527651,0.075074,-0.095132,1,0,,38.990447,-76.939763,-10.405000,,,
2026-09-11T19:06:14.126,3.041336,1.121074,2.263101,10.380319,0.000000,-22.219143,7.644201,1.111112,0.088682,0.186699,0.096675,2.239916,0.117306,-0.072467,-0.005067,0.188183,0.890444,1.440597,10.500863,0.108423,-0.014027,1,0,,38.990447,-76.939763,-10.405000,,,
2026-09-11T19:06:14.160,3.074746,1.130983,2.300857,10.472065,0.000000,-23.559475,8.105324,1.119685,0.087186,0.183549,0.102860,2.276703,0.123942,-0.046018,0.011302,0.185033,0.952618,0.202115,10.658064,0.134763,-0.013820,1,0,,38.990447,-76.939763,-10.405000,,,
2026-09-11T19:06:14.193,3.108163,1.140957,2.339342,10.564414,0.000000,-23.976955,8.248953,1.129152,0.092883,0.195544,0.109194,2.313748,0.130911,-0.019776,-0.046678,0.197028,0.774431,3.543927,8.485989,0.142340,0.201598,1,1,3.085080,38.990457,-76.939760,-10.255000,0.651223,2.026528,3.173071
2026-09-11T19:06:14.227,3.141579,1.189665,2.379400,11.015418,0.000000,-24.196682,8.324547,1.177131,0.098698,0.207786,0.115933,2.351678,0.138422,-0.015130,-0.064867,0.209270,0.432964,0.617427,9.078408,0.122561,0.223758,1,0,,38.990457,-76.939760,-10.255000,,,
2026-09-11T19:06:14.260,3.174995,1.219017,2.419845,11.287194,0.000000,-24.240627,8.339665,1.206127,0.096448,0.203049,0.122797,2.390825,0.146403,0.006271,-0.024271,0.204533,0.987922,-0.193681,10.652376,0.128830,0.193176,1,0,,38.990457,-76.939760,-10.255000,,,
2026-09-11T19:06:14.294,3.208407,1.267790,2.461794,11.738801,0.000000,-24.160976,8.312263,1.254472,0.095766,0.201612,0.129558,2.431200,0.154764,0.007076,-0.046629,0.203096,2.228365,1.062256,9.914327,0.207780,0.243663,1,0,,38.990457,-76.939760,-10.255000,,,
2026-09-11T19:06:14.327,3.241826,1.277883,2.504677,11.832250,0.000000,-23.904171,8.223912,1.264742,0.099710,0.209915,0.136434,2.472490,0.163584,0.034842,-0.008707,0.211398,3.237764,-2.824609,8.852659,0.347282,0.041305,1,0,,38.990457,-76.939760,-10.255000,,,
2026-09-11T19:06:14.361,3.275241,1.326852,2.549497,12.285670,0.000000,-22.933254,7.889881,1.314292,0.113433,0.238805,0.143931,2.514656,0.173134,0.073661,-0.006392,0.240289,-2.983968,1.124725,8.556008,0.079740,0.093576,1,0,,38.990457,-76.939760,-10.255000,,,
2026-09-11T19:06:14.394,3.308661,1.356400,2.595502,12.559261,0.000000,-22.399731,7.706329,1.344150,0.080906,0.170329,0.150768,2.558122,0.182870,-0.002270,0.003349,0.171812,0.955364,-0.236929,4.535085,0.069835,0.062667,1,0,,38.990457,-76.939760,-10.255000,,,
2026-09-11T19:06:14.427,3.342079,1.386027,2.642076,12.833585,0.000000,-22.223949,7.645854,1.373704,0.091344,0.192302,0.156827,2.602557,0.192672,0.039551,-0.079066,0.193786,0.081591,2.469511,11.486333,0.003842,0.204929,1,0,,38.990457,-76.939760,-10.255000,,,
2026-09-11T19:06:14.461,3.375492,1.415648,2.689995,13.107855,0.000000,-22.013836,7.573567,1.403299,0.111703,0.235165,0.163968,2.647812,0.203432,0.159680,0.007240,0.236649,1.637907,-5.080335,7.754314,0.042317,-0.147058,1,0,,38.990457,-76.939760,-10.255000,,,
2026-09-11T19:06:14.494,3.408950,1.445453,2.738848,13.383826,0.000000,-22.148418,7.619869,1.432689,0.099247,0.208941,0.171398,2.694002,0.214832,0.073211,-0.035530,0.210424,1.655951,0.708334,9.361624,0.086493,-0.118661,1,0,,38.990457,-76.939760,-10.255000,,,
2026-09-11T19:06:14.528,3.442372,1.484506,2.788522,13.745427,0.000000,-22.396297,7.705148,1.471103,0.105421,0.221940,0.178598,2.741189,0.226650,0.105775,-0.105468,0.223423,0.426687,0.070314,6.939382,0.056692,-0.133651,1,0,,38.990457,-76.939760,-10.255000,,,
2026-09-11T19:06:14.561,3.475794,1.493989,2.838833,13.833234,0.000000,-22.022076,7.576402,1.480947,0.103946,0.218833,0.185964,2.789068,0.239034,0.185006,-0.038714,0.220316,-0.462089,-1.787752,4.802317,-0.023480,-0.268548,1,0,,38.990457,-76.939760,-10.255000,,,
2026-09-11T19:06:14.594,3.509211,1.513688,2.889896,14.015630,0.000000,-20.932369,7.201503,1.501747,0.095229,0.200483,0.192970,2.837387,0.251690,0.150499,-0.027505,0.201967,-0.277136,0.823759,4.869198,-0.083257,-0.231484,1,0,,38.990457,-76.939760,-10.255000,,,
2026-09-11T19:06:14.628,3.542629,1.533313,2.941256,14.197346,0.000000,-20.438671,7.031653,1.521781,0.089474,0.188367,0.199467,2.886336,0.264567,0.179835,-0.133860,0.189851,1.810798,-0.259778,13.110805,0.002197,-0.264002,1,0,,38.990457,-76.939760,-10.255000,,,
2026-09-11T19:06:14.662,3.576056,1.533676,2.992843,14.200700,0.000000,-19.231548,6.616358,1.523461,0.077655,0.163485,0.205348,2.935632,0.277535,0.130179,-0.018383,0.164969,-0.306752,2.697221,9.235511,-0.044104,-0.102369,1,0,,38.990457,-76.939760,-10.255000,,,
2026-09-11T19:06:14.695,3.609471,1.543861,3.044773,14.295014,0.000000,-18.660946,6.420050,1.534180,0.067385,0.141862,0.210450,2.985118,0.290451,0.053031,-0.060371,0.143346,0.115032,1.315366,11.236067,-0.057590,-0.029948,1,0,,38.990457,-76.939760,-10.255000,,,
2026-09-11T19:06:14.728,3.642895,1.543960,3.096451,14.295930,0.000000,-18.231792,6.272406,1.534718,0.069087,0.145446,0.215251,3.034765,0.303514,-0.002668,0.001730,0.146929,1.051469,0.844745,10.745833,-0.003426,0.010875,1,0,,38.990457,-76.939760,-10.255000,,,
2026-09-11T19:06:14.762,3.676318,1.544237,3.148130,14.298495,0.000000,-17.798519,6.123344,1.535427,0.071594,0.150724,0.220201,3.084352,0.316893,-0.066731,-0.027002,0.152208,-0.177206,1.626923,9.368097,-0.021902,0.101327,1,0,,38.990457,-76.939760,-10.255000,,,
2026-09-11T19:06:14.795,3.709737,1.525131,3.199125,14.121581,0.000000,-17.630978,6.065703,1.516592,0.071267,0.150037,0.225226,3.133563,0.330484,-0.077069,-0.015371,0.151520,-0.963994,1.359202,8.536297,-0.086066,0.173695,1,0,,38.990457,-76.939760,-10.255000,,,
2026-09-11T19:06:14.829,3.743150,1.496501,3.249482,13.856491,0.000000,-17.534161,6.032395,1.488214,0.063803,0.134322,0.229977,3.181960,0.344009,-0.097794,-0.004164,0.135806,0.016181,1.723225,11.755624,-0.082752,0.270587,1,0,,38.990457,-76.939760,-10.255000,,,
2026-09-11T19:06:14.862,3.776564,1.467978,3.298904,13.592390,0.000000,-17.560940,6.041608,1.459825,0.070825,0.149106,0.234712,3.229371,0.357537,-0.131526,0.031475,0.150590,-0.226337,0.950657,11.980785,-0.092455,0.315279,1,0,,38.990457,-76.939760,-10.255000,,,
2026-09-11T19:06:14.895,3.809976,1.429651,3.346664,13.237511,0.000000,-17.684536,6.084129,1.421598,0.076633,0.161333,0.239898,3.275580,0.371246,-0.148765,-0.042193,0.162816,1.770493,-4.625993,10.684345,0.028587,-0.002026,1,0,,38.990457,-76.939760,-10.255000,,,
2026-09-11T19:06:14.929,3.843389,1.430352,3.394742,13.243996,0.000000,-17.736721,6.102083,1.422247,0.066357,0.139698,0.244927,3.321128,0.384970,-0.161134,-0.013223,0.141182,0.532011,-2.501284,8.715170,0.068308,-0.176388,1,0,,38.990457,-76.939760,-10.255000,,,
2026-09-11T19:06:14.962,3.876806,1.411446,3.441362,13.068947,0.000000,-17.736721,6.102083,1.403449,0.057957,0.122014,0.249300,3.366400,0.398532,-0.104892,0.029149,0.123498,0.410997,1.611527,10.802712,0.097353,-0.080979,1,0,,38.990457,-76.939760,-10.255000,,,
2026-09-11T19:06:14.995,3.910213,1.382536,3.487959,12.801255,0.000000,-17.830791,6.134447,1.374619,0.078924,0.166155,0.254114,3.410771,0.412302,-0.093747,0.078513,0.167639,-0.831800,-0.304006,6.197018,0.042586,-0.114245,1,0,,38.990457,-76.939760,-10.255000,,,
2026-09-11T19:06:15.029,3.943629,1.363191,3.533919,12.622142,0.000000,-18.106823,6.229412,1.355142,0.086313,0.181711,0.259926,3.454179,0.426565,-0.032993,0.002305,0.183195,-2.163935,1.969666,5.845254,-0.100885,-0.001212,1,0,,38.990457,-76.939760,-10.255000,,,
2026-09-11T19:06:15.062,3.977044,1.353346,3.579057,12.530983,0.000000,-18.533916,6.376347,1.344974,0.080860,0.170231,0.265806,3.497016,0.440984,-0.009100,0.068324,0.171715,-0.336858,-0.267722,4.738868,-0.128882,-0.033059,1,0,,38.990457,-76.939760,-10.255000,,,
2026-09-11T19:06:15.095,4.010457,1.343602,3.624014,12.440757,0.000000,-19.585171,6.738017,1.334322,0.099603,0.209690,0.272153,3.539366,0.455785,-0.023328,0.006500,0.211174,0.229476,-1.357535,6.912119,-0.124301,-0.138339,1,0,,38.990457,-76.939760,-10.255000,,,
2026-09-11T19:06:15.129,4.043869,1.353779,3.669472,12.534993,0.000000,-20.262890,6.971178,1.343771,0.093889,0.197662,0.278958,3.581539,0.471069,-0.055963,-0.086229,0.199145,-0.003040,1.629669,8.868252,-0.141081,-0.048297,1,0,,38.990457,-76.939760,-10.255000,,,
2026-09-11T19:06:15.163,4.077283,1.344432,3.714611,12.448449,0.000000,-20.637112,7.099924,1.334123,0.096460,0.203074,0.285653,3.623621,0.486585,-0.031001,-0.035692,0.204558,0.622232,-1.633690,8.374487,-0.121589,-0.170701,1,1,4.084359,38.990468,-76.939758,-10.648000,0.802037,3.262459,4.618530
2026-09-11T19:06:15.196,4.110707,1.364044,3.760388,12.630036,0.000000,-20.637112,7.099924,1.353585,0.092318,0.194354,0.292295,3.665777,0.502411,-0.017401,0.058163,0.195838,1.522777,0.365494,7.454623,-0.045277,-0.161910,1,0,,38.990468,-76.939758,-10.648000,,,
2026-09-11T19:06:15.229,4.144128,1.393394,3.807031,12.901797,0.000000,-20.637112,7.099924,1.382710,0.097871,0.206043,0.298986,3.708590,0.518774,-0.021421,0.001845,0.207527,-1.091578,0.301260,4.185086,-0.140394,-0.158786,1,0,,38.990468,-76.939758,-10.648000,,,
2026-09-11T19:06:15.263,4.177549,1.413116,3.854426,13.084411,0.000000,-20.593166,7.084805,1.402327,0.094251,0.198423,0.305745,3.752062,0.535699,0.065830,0.035572,0.199907,1.193960,-1.012831,10.105459,-0.087968,-0.240295,1,0,,38.990468,-76.939758,-10.648000,,,
2026-09-11T19:06:15.296,4.210971,1.423096,3.901934,13.176817,0.000000,-20.526562,7.061891,1.412301,0.089602,0.188636,0.312213,3.795936,0.552929,0.063826,-0.010559,0.190119,1.053430,-5.012767,9.974736,-0.046737,-0.578967,1,0,,38.990468,-76.939758,-10.648000,,,
2026-09-11T19:06:15.330,4.244390,1.433454,3.950446,13.272720,0.000000,-20.394039,7.016298,1.422719,0.097172,0.204573,0.318783,3.840000,0.570595,0.139413,0.065127,0.206056,1.482177,-4.914309,11.601856,0.021469,-0.909103,1,0,,38.990468,-76.939758,-10.648000,,,
2026-09-11T19:06:15.363,4.277811,1.433990,3.998592,13.277685,0.000000,-20.213451,6.954169,1.423441,0.089785,0.189022,0.325361,3.884127,0.588613,0.177754,-0.023997,0.190505,-2.223658,2.378701,8.949255,-0.150110,-0.762238,1,0,,38.990468,-76.939758,-10.648000,,,
2026-09-11T19:06:15.396,4.311235,1.463937,4.047628,13.554976,0.000000,-20.241604,6.963855,1.453138,0.086212,0.181499,0.331553,3.928681,0.606906,0.203729,0.001586,0.182983,0.641355,1.280847,9.830775,-0.132785,-0.687698,1,0,,38.990468,-76.939758,-10.648000,,,
2026-09-11T19:06:15.430,4.344655,1.464458,4.097073,13.559794,0.000000,-20.227184,6.958894,1.453670,0.088252,0.185794,0.337690,3.973602,0.625612,0.253937,-0.033886,0.187278,1.851299,-2.272201,6.917219,-0.034944,-0.844316,1,0,,38.990468,-76.939758,-10.648000,,,
2026-09-11T19:06:15.463,4.378074,1.464994,4.145812,13.564758,0.000000,-19.821377,6.819281,1.454630,0.069747,0.146835,0.343248,4.018527,0.644328,0.296940,0.077494,0.148319,-0.500237,-0.422078,11.407880,-0.086581,-0.875822,1,0,,38.990468,-76.939758,-10.648000,,,
2026-09-11T19:06:15.496,4.411492,1.436162,4.193503,13.297800,0.000000,-18.818874,6.474383,1.427003,0.063264,0.133188,0.347927,4.063078,0.662729,0.222872,0.038895,0.134672,-1.553766,2.652601,0.079336,-0.200160,-0.706507,1,0,,38.990468,-76.939758,-10.648000,,,
2026-09-11T19:06:15.531,4.444911,1.436170,4.241445,13.297874,0.000000,-16.912746,5.818605,1.428771,0.051330,0.108062,0.351958,4.107249,0.680888,0.160763,-0.041115,0.109546,1.014694,-1.776475,9.167649,-0.137527,-0.823351,1,0,,38.990468,-76.939758,-10.648000,,,
2026-09-11T19:06:15.564,4.478334,1.426633,4.288999,13.209569,0.000000,-14.973659,5.151488,1.420871,0.061558,0.129595,0.355930,4.151264,0.699162,0.154620,-0.082613,0.131078,0.956148,0.094830,9.775171,-0.071229,-0.819736,1,0,,38.990468,-76.939758,-10.648000,,,
2026-09-11T19:06:15.597,4.511752,1.417071,4.336394,13.121027,0.000000,-12.800426,4.403816,1.412887,0.039517,0.083195,0.359485,4.195026,0.717323,0.048437,0.018199,0.084678,1.092363,-2.711441,8.301820,0.006284,-0.993441,1,0,,38.990468,-76.939758,-10.648000,,,
2026-09-11T19:06:15.630,4.545174,1.407803,4.383447,13.035216,0.000000,-7.009258,2.411442,1.406557,0.017208,0.036227,0.361481,4.238779,0.734829,-0.078499,-0.034693,0.037711,0.779825,0.383832,9.154018,0.063946,-0.960620,1,0,,38.990468,-76.939758,-10.648000,,,
2026-09-11T19:06:15.664,4.578599,1.388898,4.430044,12.860167,0.000000,-2.980021,1.025237,1.388676,0.006739,0.014187,0.362324,4.282327,0.751743,-0.133495,0.055335,0.015671,0.530540,-3.946098,10.825757,0.105452,-1.206388,1,0,,38.990468,-76.939758,-10.648000,,,
2026-09-11T19:06:15.697,4.612019,1.379359,4.475480,12.771846,0.000000,1.666509,-0.573340,1.379290,-0.014930,-0.031433,0.362035,4.325627,0.768003,-0.179335,0.045306,-0.029949,4.648156,-1.711260,7.004694,0.413759,-1.300694,1,0,,38.990468,-76.939758,-10.648000,,,
2026-09-11T19:06:15.730,4.645440,1.379470,4.521302,12.772871,0.000000,7.094443,-2.440749,1.378219,-0.030157,-0.063488,0.360449,4.368999,0.783584,-0.143979,0.049754,-0.062004,-0.252717,-4.047695,13.304192,0.400887,-1.542334,1,0,,38.990468,-76.939758,-10.648000,,,
2026-09-11T19:06:15.764,4.678867,1.341317,4.565644,12.419601,0.000000,6.803305,-2.340587,1.340198,-0.019301,-0.040634,0.358709,4.411817,0.798798,-0.158242,-0.009151,-0.039150,0.150140,-2.486182,10.889599,0.410682,-1.682401,1,0,,38.990468,-76.939758,-10.648000,,,
2026-09-11T19:06:15.797,4.712285,1.273794,4.607684,11.794392,0.000000,6.688636,-2.301136,1.272767,-0.022692,-0.047773,0.357232,4.452955,0.813439,-0.129047,0.032566,-0.046289,-0.420803,1.188174,9.747810,0.379931,-1.582645,1,0,,38.990468,-76.939758,-10.648000,,,
2026-09-11T19:06:15.831,4.745707,1.235448,4.649359,11.439329,0.000000,6.510794,-2.239952,1.234504,-0.025426,-0.053528,0.355539,4.492502,0.827304,-0.067056,-0.053527,-0.052045,-0.769920,1.898764,9.128324,0.321687,-1.437653,1,0,,38.990468,-76.939758,-10.648000,,,
2026-09-11T19:06:15.864,4.779135,1.236013,4.691240,11.444564,0.000000,5.714972,-1.966160,1.235285,-0.007069,-0.014883,0.354396,4.531397,0.841142,-0.001016,-0.043957,-0.013399,1.437067,2.010854,9.279249,0.401378,-1.290081,1,0,,38.990468,-76.939758,-10.648000,,,
2026-09-11T19:06:15.897,4.812551,1.246278,4.732027,11.539607,0.000000,4.382193,-1.507635,1.245846,-0.000036,-0.000075,0.354146,4.570319,0.855412,-0.002746,-0.070065,0.001408,1.644673,-1.929851,8.605336,0.489276,-1.400400,1,0,,38.990468,-76.939758,-10.648000,,,
2026-09-11T19:06:15.932,4.845975,1.256345,4.773998,11.632821,0.000000,3.928321,-1.351486,1.255995,-0.000806,-0.001696,0.354116,4.609540,0.869897,0.036740,-0.053903,-0.000213,-0.565059,-0.284001,9.912660,0.430324,-1.402854,1,0,,38.990468,-76.939758,-10.648000,,,
2026-09-11T19:06:15.965,4.879396,1.236963,4.815400,11.453361,0.000000,3.928321,-1.351486,1.236619,-0.001034,-0.002178,0.354051,4.648620,0.884311,0.092278,-0.109465,-0.000694,-0.061095,-1.616430,10.350723,0.404067,-1.491490,1,0,,38.990468,-76.939758,-10.648000,,,
2026-09-11T19:06:15.998,4.912816,1.237393,4.856757,11.457338,0.000000,5.053046,-1.738433,1.236823,-0.019445,-0.040937,0.353331,4.687511,0.898305,0.073699,0.040439,-0.039454,0.199467,-0.080316,4.503508,0.393274,-1.476613,1,0,,38.990468,-76.939758,-10.648000,,,
2026-09-11T19:06:16.032,4.946234,1.266582,4.899002,11.727615,0.000000,5.466407,-1.880644,1.265900,-0.036668,-0.077196,0.351357,4.727084,0.911856,0.035255,0.033924,-0.075712,1.805895,-0.329111,1.399507,0.484136,-1.474956,1,0,,38.990468,-76.939758,-10.648000,,,
2026-09-11T19:06:16.065,4.979650,1.286071,4.941862,11.908066,0.000000,8.217795,-2.827223,1.284506,-0.036770,-0.077410,0.348774,4.767532,0.925317,0.005135,-0.013337,-0.075926,2.456958,-3.993954,11.090046,0.615128,-1.710392,1,0,,38.990468,-76.939758,-10.648000,,,
2026-09-11T19:06:16.098,5.013064,1.334599,4.986751,12.357402,0.000000,12.342475,-4.246264,1.330936,-0.063500,-0.133684,0.345247,4.809193,0.938601,0.023969,-0.017971,-0.132200,2.531979,-0.308811,7.960450,0.750432,-1.699641,1,0,,38.990468,-76.939758,-10.648000,,,
2026-09-11T19:06:16.133,5.046480,1.363825,5.033075,12.628007,0.000000,16.447928,-5.658691,1.357179,-0.083159,-0.175071,0.340088,4.852318,0.951383,0.019326,-0.027196,-0.173588,2.089895,-0.030891,7.496694,0.857079,-1.667157,1,0,,38.990468,-76.939758,-10.648000,,,
2026-09-11T19:06:16.165,5.079901,1.383543,5.078783,12.810585,0.000000,19.800818,-6.812208,1.373776,-0.084294,-0.177460,0.334197,4.896310,0.963837,0.100201,0.234548,-0.175977,-0.570159,-3.637777,17.548118,0.792465,-1.868123,1,1,5.075994,38.990480,-76.939757,-10.461000,0.908053,4.601987,3.202730
2026-09-11T19:06:16.198,5.113310,1.384087,5.124492,12.815620,0.000000,20.716803,-7.127341,1.373392,-0.088817,-0.186984,0.328110,4.940646,0.976023,0.162411,0.044800,-0.185500,0.045209,-0.605365,5.932239,0.770853,-1.869712,1,0,,38.990480,-76.939757,-10.461000,,,
2026-09-11T19:06:16.232,5.146719,1.384192,5.171157,12.816591,0.000000,21.673301,-7.456411,1.372487,-0.109208,-0.229912,0.321146,4.985173,0.987517,0.180876,-0.078137,-0.228428,1.872678,-1.369303,3.876863,0.871937,-1.916923,1,0,,38.990480,-76.939757,-10.461000,,,
2026-09-11T19:06:16.265,5.180142,1.374653,5.216137,12.728270,0.000000,23.825248,-8.196759,1.360610,-0.105271,-0.221623,0.313600,5.029684,0.998366,0.127571,-0.073485,-0.220140,-0.598990,1.575831,7.610647,0.817514,-1.773859,1,0,,38.990480,-76.939757,-10.461000,,,
2026-09-11T19:06:16.298,5.213552,1.326595,5.260182,12.283291,0.000000,29.885584,-10.281737,1.305293,-0.125727,-0.264687,0.305476,5.073274,1.008260,0.070334,-0.004055,-0.263204,0.493471,-2.477846,6.496513,0.838565,-1.891935,1,0,,38.990480,-76.939757,-10.461000,,,
2026-09-11T19:06:16.333,5.246960,1.298048,5.304432,12.018966,0.000000,34.344659,-11.815823,1.270544,-0.147402,-0.310319,0.295871,5.115718,1.016647,-0.061096,0.017854,-0.308835,-0.543190,-1.781672,9.210406,0.799139,-1.960491,1,0,,38.990480,-76.939757,-10.461000,,,
2026-09-11T19:06:16.365,5.280377,1.288868,5.347452,11.933959,0.000000,38.862787,-13.370225,1.253934,-0.166608,-0.350754,0.284826,5.157633,1.023697,-0.092168,-0.022030,-0.349270,0.129742,-0.173284,11.843197,0.811471,-1.921239,1,0,,38.990480,-76.939757,-10.461000,,,
2026-09-11T19:06:16.399,5.313797,1.299055,5.390859,12.028286,0.000000,41.217981,-14.180498,1.259471,-0.166588,-0.350711,0.273104,5.199541,1.029908,-0.138846,0.007650,-0.349227,-0.180246,1.777161,8.551301,0.808228,-1.756032,1,0,,38.990480,-76.939757,-10.461000,,,
2026-09-11T19:06:16.432,5.347215,1.280331,5.433674,11.854920,0.000000,41.459680,-14.263651,1.240862,-0.153562,-0.323288,0.261842,5.241248,1.035793,-0.202372,-0.009451,-0.321804,-0.253012,3.069874,6.684115,0.803194,-1.511636,1,0,,38.990480,-76.939757,-10.461000,,,
2026-09-11T19:06:16.466,5.380635,1.251530,5.475008,11.588236,0.000000,41.571603,-14.302157,1.212740,-0.149545,-0.314832,0.251179,5.282189,1.041298,-0.245460,0.015877,-0.313349,-0.592126,-0.602815,11.132117,0.777407,-1.508919,1,0,,38.990480,-76.939757,-10.461000,,,
2026-09-11T19:06:16.499,5.414045,1.193637,5.514883,11.052193,0.000000,41.095071,-14.138213,1.157481,-0.123615,-0.260241,0.241573,5.321702,1.046534,-0.127216,0.078138,-0.258758,1.990064,-5.769841,12.812683,0.919034,-1.845816,1,0,,38.990480,-76.939757,-10.461000,,,
2026-09-11T19:06:16.533,5.447451,1.184444,5.554577,10.967078,0.000000,37.543054,-12.916188,1.154476,-0.121967,-0.256772,0.232937,5.360201,1.051624,-0.232955,-0.019273,-0.255288,0.521616,-0.723927,9.237570,0.957041,-1.852760,1,0,,38.990480,-76.939757,-10.461000,,,
2026-09-11T19:06:16.566,5.480859,1.165156,5.593404,10.788478,0.000000,33.674493,-11.585262,1.141418,-0.114626,-0.241319,0.224617,5.398448,1.056473,-0.222233,0.029812,-0.239835,-0.359708,2.383016,9.573056,0.928903,-1.659935,1,0,,38.990480,-76.939757,-10.461000,,,
2026-09-11T19:06:16.599,5.514269,1.135917,5.631274,10.517746,0.000000,33.442407,-11.505415,1.113091,-0.103197,-0.217258,0.216956,5.435992,1.061172,-0.119374,0.024512,-0.215774,0.542210,-1.713810,10.548523,0.952754,-1.736531,1,0,,38.990480,-76.939757,-10.461000,,,
2026-09-11T19:06:16.633,5.547675,1.116469,5.669053,10.337679,0.000000,33.482233,-11.519117,1.093982,-0.105338,-0.221765,0.209623,5.472758,1.065572,-0.056265,0.008208,-0.220281,0.160829,-1.078732,9.335735,0.942634,-1.771126,1,0,,38.990480,-76.939757,-10.461000,,,
2026-09-11T19:06:16.666,5.581082,1.106571,5.705966,10.246024,0.000000,33.570123,-11.549354,1.084165,-0.114094,-0.240198,0.201907,5.509122,1.069419,0.002671,0.055257,-0.238714,-0.516909,-1.234559,10.644825,0.880269,-1.814272,1,0,,38.990480,-76.939757,-10.461000,,,
2026-09-11T19:06:16.699,5.614494,1.087465,5.741877,10.069123,0.000000,33.509012,-11.528330,1.065527,-0.108840,-0.229137,0.194066,5.545065,1.072832,0.075415,0.042077,-0.227654,0.145727,0.455715,9.018686,0.853546,-1.748606,1,0,,38.990480,-76.939757,-10.461000,,,
2026-09-11T19:06:16.733,5.647900,1.087821,5.778107,10.072421,0.000000,34.100900,-11.731961,1.065096,-0.115353,-0.242849,0.186183,5.580719,1.075880,0.104315,0.047606,-0.241365,0.681562,-1.250446,9.622677,0.855132,-1.793140,1,0,,38.990480,-76.939757,-10.461000,,,
2026-09-11T19:06:16.766,5.681311,1.078299,5.814428,9.984246,0.000000,35.551096,-12.230882,1.053823,-0.127325,-0.268052,0.177648,5.616265,1.078298,0.117526,0.044737,-0.266568,0.630371,-0.660968,7.248389,0.852039,-1.797497,1,0,,38.990480,-76.939757,-10.461000,,,
2026-09-11T19:06:16.800,5.714719,1.136971,5.852457,10.527508,0.000000,39.013162,-13.421959,1.105917,-0.135112,-0.284447,0.168419,5.652556,1.080186,0.091206,0.039312,-0.282964,0.360394,-3.139893,12.641164,0.832391,-1.960150,1,0,,38.990480,-76.939757,-10.461000,,,
2026-09-11T19:06:16.833,5.748125,1.137034,5.890350,10.528095,0.000000,43.848520,-15.085500,1.097850,-0.160075,-0.337000,0.158039,5.689675,1.081303,0.104298,0.049603,-0.335517,2.538844,-2.765770,8.445095,0.951336,-2.093213,1,0,,38.990480,-76.939757,-10.461000,,,
2026-09-11T19:06:16.866,5.781533,1.205271,5.931000,11.159916,0.000000,46.518884,-16.004203,1.158556,-0.185934,-0.391439,0.145871,5.727805,1.081289,0.111909,0.033139,-0.389956,1.163755,-0.098263,9.623364,0.979013,-2.046758,1,0,,38.990480,-76.939757,-10.461000,,,
2026-09-11T19:06:16.900,5.814943,1.283487,5.974020,11.884142,0.000000,49.897180,-17.166461,1.226310,-0.208206,-0.438328,0.132010,5.768169,1.080278,0.085326,0.013014,-0.436845,3.105668,-1.162382,9.376040,1.132721,-2.064253,1,0,,38.990480,-76.939757,-10.461000,,,
2026-09-11T19:06:16.935,5.848353,1.361801,6.020640,12.609265,0.000000,59.176508,-20.358890,1.276731,-0.243244,-0.512092,0.116133,5.810589,1.077962,0.038753,0.040633,-0.510609,1.243876,-2.185902,10.506257,1.163378,-2.140279,1,0,,38.990480,-76.939757,-10.461000,,,
2026-09-11T19:06:16.967,5.881761,1.410952,6.067055,13.064369,0.000000,65.692087,-22.600489,1.302601,-0.277920,-0.585094,0.097805,5.854351,1.073902,-0.102087,0.006710,-0.583610,1.654088,-1.881014,9.794588,1.220659,-2.188715,1,0,,38.990480,-76.939757,-10.461000,,,
2026-09-11T19:06:17.000,5.915169,1.440557,6.114906,13.338493,0.000000,75.038024,-25.815834,1.296787,-0.320633,-0.675017,0.076756,5.898468,1.067727,-0.143545,0.033087,-0.673533,-0.711472,-3.100863,9.765953,1.125393,-2.308250,1,0,,38.990480,-76.939757,-10.461000,,,
2026-09-11T19:06:17.034,5.948579,1.450828,6.163736,13.433590,0.000000,85.175658,-29.303552,1.265178,-0.350789,-0.738502,0.053144,5.941894,1.059319,-0.126449,0.053615,-0.737019,-0.782080,-0.202605,11.407390,1.030452,-2.235032,1,0,,38.990480,-76.939757,-10.461000,,,
2026-09-11T19:06:17.067,5.981987,1.451111,6.211951,13.436211,0.000000,84.813796,-29.179058,1.266965,-0.385551,-0.811687,0.027249,5.984640,1.048729,-0.061273,0.082659,-0.810204,0.805028,-1.603387,7.949467,1.043162,-2.247216,1,0,,38.990480,-76.939757,-10.461000,,,
2026-09-11T19:06:17.100,6.015394,1.451643,6.260576,13.441139,0.000000,85.400878,-29.381036,1.264927,-0.362888,-0.763974,0.000930,6.027104,1.036826,0.007152,0.017549,-0.762490,-0.503768,-1.971725,10.271976,0.975655,-2.287121,1,0,,38.990480,-76.939757,-10.461000,,,
2026-09-11T19:06:17.134,6.048804,1.413093,6.308153,13.084192,0.000000,84.771224,-29.164412,1.233948,-0.354517,-0.746352,-0.024300,6.068703,1.024362,0.064497,-0.004235,-0.744869,-0.460030,0.525538,10.682482,0.920892,-2.167870,1,0,,38.990480,-76.939757,-10.461000,,,
2026-09-11T19:06:17.167,6.082211,1.403485,6.355024,12.995231,0.000000,84.436828,-29.049367,1.226929,-0.336239,-0.707872,-0.048590,6.109362,1.011337,0.025914,-0.033851,-0.706388,0.116993,-2.759689,6.865342,0.913350,-2.265990,1,0,,38.990480,-76.939757,-10.461000,,,
2026-09-11T19:06:17.201,6.115620,1.393831,6.401416,12.905846,0.000000,84.618102,-29.111732,1.217752,-0.337933,-0.711439,-0.072299,6.149440,0.997632,-0.024438,0.003469,-0.709955,-2.195121,-1.112859,4.873905,0.762587,-2.256567,1,1,6.093411,38.990490,-76.939753,-10.632000,1.295675,5.753226,3.275776
2026-09-11T19:06:17.234,6.149029,1.384553,6.447809,12.819938,0.000000,86.568862,-29.782865,1.201673,-0.359912,-0.757710,-0.096840,6.188720,0.982607,-0.101388,-0.049596,-0.756226,-2.843634,-2.410573,3.228840,0.571371,-2.328397,1,0,,38.990490,-76.939753,-10.632000,,,
2026-09-11T19:06:17.267,6.182436,1.385000,6.494588,12.824076,0.000000,90.317260,-31.072452,1.186274,-0.368227,-0.775214,-0.122445,6.227032,0.966158,-0.145284,-0.040850,-0.773731,1.063041,-0.888090,14.253868,0.632859,-2.300286,1,0,,38.990490,-76.939753,-10.632000,,,
2026-09-11T19:06:17.301,6.215845,1.395010,6.541846,12.916756,0.000000,93.004791,-31.997061,1.183073,-0.374211,-0.787813,-0.148555,6.264568,0.948525,-0.185525,-0.017241,-0.786329,-0.408839,-0.992531,10.258737,0.598049,-2.278441,1,0,,38.990490,-76.939753,-10.632000,,,
2026-09-11T19:06:17.336,6.249254,1.385396,6.588785,12.827738,0.000000,93.874084,-32.296130,1.171072,-0.376390,-0.792401,-0.174952,6.301357,0.929821,-0.261825,0.052925,-0.790917,0.164458,0.345586,10.240006,0.597514,-2.170484,1,0,,38.990490,-76.939753,-10.632000,,,
2026-09-11T19:06:17.368,6.282660,1.376049,6.635086,12.741194,0.000000,93.796493,-32.269436,1.163514,-0.353914,-0.745081,-0.200632,6.337391,0.910560,-0.247005,0.045595,-0.743598,0.075021,-0.025399,11.573907,0.584094,-2.091704,1,0,,38.990490,-76.939753,-10.632000,,,
2026-09-11T19:06:17.401,6.316072,1.366943,6.680932,12.656883,0.000000,93.378326,-32.125571,1.157643,-0.347872,-0.732361,-0.225315,6.372813,0.890907,-0.303189,0.016090,-0.730878,0.451302,-1.285260,10.858217,0.587927,-2.096571,1,0,,38.990490,-76.939753,-10.632000,,,
2026-09-11T19:06:17.435,6.349493,1.338481,6.726002,12.393345,0.000000,92.219268,-31.726812,1.138466,-0.349357,-0.735489,-0.249843,6.407360,0.870558,-0.278565,0.030842,-0.734006,-1.225635,0.080415,10.072116,0.476688,-2.013641,1,0,,38.990490,-76.939753,-10.632000,,,
2026-09-11T19:06:17.468,6.382911,1.319679,6.771164,12.219247,0.000000,89.142410,-30.668260,1.135102,-0.335699,-0.706736,-0.273942,6.441091,0.849668,-0.246025,-0.010035,-0.705252,0.998317,-3.300526,8.357129,0.504677,-2.152800,1,0,,38.990490,-76.939753,-10.632000,,,
2026-09-11T19:06:17.501,6.416321,1.330110,6.815437,12.315830,0.000000,84.919540,-29.215438,1.160907,-0.316527,-0.666373,-0.296879,6.474826,0.828410,-0.127861,-0.000940,-0.664889,-0.097478,-0.198094,11.361004,0.455709,-2.091424,1,0,,38.990490,-76.939753,-10.632000,,,
2026-09-11T19:06:17.535,6.449730,1.292016,6.858229,11.963114,0.000000,83.390380,-28.689351,1.133402,-0.282537,-0.594816,-0.317946,6.508331,0.807279,0.101686,-0.108468,-0.593332,3.608553,-3.641307,18.291168,0.645171,-2.260036,1,0,,38.990490,-76.939753,-10.632000,,,
2026-09-11T19:06:17.568,6.483136,1.273317,6.900611,11.789974,0.000000,77.945968,-26.816273,1.136382,-0.287754,-0.605799,-0.338000,6.541152,0.786050,0.218674,0.203446,-0.604315,-1.584362,-2.516975,-5.166732,0.498160,-2.353085,1,0,,38.990490,-76.939753,-10.632000,,,
2026-09-11T19:06:17.601,6.516545,1.302843,6.943836,12.063365,0.000000,71.979018,-24.763424,1.183040,-0.277964,-0.585188,-0.357895,6.574350,0.763948,0.199728,0.078277,-0.583704,1.219555,0.127781,11.123291,0.534747,-2.273650,1,0,,38.990490,-76.939753,-10.632000,,,
2026-09-11T19:06:17.637,6.549955,1.332108,6.988314,12.334338,0.000000,70.854980,-24.376713,1.213353,-0.263855,-0.555485,-0.376950,6.608457,0.741117,0.162174,0.096116,-0.554001,0.969976,-3.667393,9.684459,0.554438,-2.441970,1,0,,38.990490,-76.939753,-10.632000,,,
2026-09-11T19:06:17.668,6.583362,1.380540,7.034752,12.782777,0.000000,70.894119,-24.390178,1.257333,-0.282405,-0.594536,-0.396159,6.643234,0.717104,0.124244,0.014149,-0.593053,1.056470,0.451008,8.014779,0.578293,-2.337054,1,0,,38.990490,-76.939753,-10.632000,,,
2026-09-11T19:06:17.702,6.616773,1.429313,7.081896,13.234383,0.000000,72.242690,-24.854137,1.296931,-0.307223,-0.646785,-0.416896,6.678523,0.691180,0.106580,0.063166,-0.645301,1.223478,-2.291912,9.131953,0.611888,-2.404958,1,0,,38.990490,-76.939753,-10.632000,,,
2026-09-11T19:06:17.736,6.650182,1.468380,7.131410,13.596111,0.000000,74.198257,-25.526923,1.325041,-0.334641,-0.704508,-0.439469,6.713908,0.663239,0.083261,0.064056,-0.703024,2.075185,-2.505599,10.554309,0.702081,-2.479818,1,0,,38.990490,-76.939753,-10.632000,,,
2026-09-11T19:06:17.769,6.683599,1.517148,7.182382,14.047667,0.000000,77.976180,-26.826668,1.353866,-0.341050,-0.718000,-0.463237,6.749255,0.633554,0.074969,0.057369,-0.716517,2.202279,-4.100651,8.540415,0.799221,-2.654670,1,0,,38.990490,-76.939753,-10.632000,,,
2026-09-11T19:06:17.803,6.717012,1.527415,7.232557,14.142730,0.000000,83.972656,-28.889675,1.337331,-0.372056,-0.783275,-0.488318,6.783758,0.602379,0.118902,0.150009,-0.781792,-1.113839,1.529543,5.064841,0.682226,-2.458100,1,0,,38.990490,-76.939753,-10.632000,,,
2026-09-11T19:06:17.837,6.750430,1.498460,7.283757,13.874632,0.000000,84.043380,-28.914007,1.311672,-0.370935,-0.780916,-0.514455,6.816606,0.570225,0.133258,0.054354,-0.779432,-0.205351,0.357550,11.187525,0.632395,-2.341096,1,0,,38.990490,-76.939753,-10.632000,,,
2026-09-11T19:06:17.869,6.783846,1.498736,7.332952,13.877181,0.000000,84.422408,-29.044407,1.310260,-0.377420,-0.794567,-0.540778,6.848157,0.537370,0.130406,0.069663,-0.793084,-0.377556,2.261414,9.711820,0.575172,-2.101059,1,0,,38.990490,-76.939753,-10.632000,,,
2026-09-11T19:06:17.902,6.817259,1.489476,7.383126,13.791443,0.000000,84.128524,-28.943300,1.303439,-0.378425,-0.796684,-0.567361,6.878643,0.503662,0.085312,0.081767,-0.795201,-2.999952,-2.608079,13.928876,0.353710,-2.179115,1,0,,38.990490,-76.939753,-10.632000,,,
2026-09-11T19:06:17.936,6.850671,1.490190,7.432777,13.798055,0.000000,84.131957,-28.944481,1.304049,-0.372930,-0.785115,-0.593787,6.908180,0.469275,0.041863,0.055836,-0.783632,-1.108544,0.791593,8.618967,0.263155,-2.037181,1,0,,38.990490,-76.939753,-10.632000,,,
2026-09-11T19:06:17.969,6.884086,1.481249,7.481675,13.715265,0.000000,84.776717,-29.166302,1.293439,-0.376059,-0.791703,-0.620132,6.936687,0.434248,-0.024243,0.053341,-0.790220,-0.620761,0.016867,8.955433,0.206467,-1.946953,1,0,,38.990490,-76.939753,-10.632000,,,
2026-09-11T19:06:18.002,6.917497,1.491535,7.531417,13.810510,0.000000,85.757934,-29.503876,1.298116,-0.366976,-0.772582,-0.646264,6.964241,0.398625,-0.129232,0.034654,-0.771098,-1.240443,-1.658697,9.599534,0.110134,-1.967555,1,0,,38.990490,-76.939753,-10.632000,,,
2026-09-11T19:06:18.036,6.950909,1.491895,7.581569,13.813844,0.000000,86.190521,-29.652702,1.296517,-0.378758,-0.797385,-0.672492,6.990864,0.362229,-0.203766,0.057732,-0.795902,-1.186212,-3.278657,10.785550,0.014747,-2.090788,1,0,,38.990490,-76.939753,-10.632000,,,
2026-09-11T19:06:18.069,6.984323,1.434544,7.629169,13.282815,0.000000,85.887023,-29.548288,1.247968,-0.325857,-0.686015,-0.697275,7.016354,0.326224,-0.151732,-0.035708,-0.684532,-5.083081,-7.841496,5.981664,-0.337747,-2.519603,1,0,,38.990490,-76.939753,-10.632000,,,
2026-09-11T19:06:18.104,7.017732,1.415801,7.676655,13.109266,0.000000,84.611923,-29.109606,1.236972,-0.331500,-0.697895,-0.720393,7.040717,0.290871,-0.142658,0.056304,-0.696411,1.473547,-3.525491,13.310370,-0.267222,-2.663787,1,0,,38.990490,-76.939753,-10.632000,,,
2026-09-11T19:06:18.138,7.051150,1.445056,7.725371,13.380146,0.000000,81.519958,-28.045857,1.275365,-0.334262,-0.703710,-0.743812,7.064496,0.254535,-0.172654,0.093479,-0.702227,-2.891295,-3.970222,15.572470,-0.485014,-2.833017,1,0,,38.990490,-76.939753,-10.632000,,,
2026-09-11T19:06:18.170,7.084570,1.386989,7.770920,12.842491,0.000000,78.459579,-26.992974,1.235893,-0.281490,-0.592610,-0.765474,7.088029,0.218294,-0.021782,0.075618,-0.591126,1.765001,-2.618081,8.093625,-0.404833,-2.923499,1,1,7.080124,38.990496,-76.939739,-10.694000,2.463007,6.344412,3.104562
2026-09-11T19:06:18.203,7.117984,1.396846,7.817928,12.933763,0.000000,72.697936,-25.010758,1.265862,-0.298731,-0.628908,-0.785881,7.111075,0.182108,-0.046583,0.138359,-0.627425,-0.130428,-4.517924,9.579038,-0.453349,-3.131920,1,0,,38.990496,-76.939739,-10.694000,,,
2026-09-11T19:06:18.236,7.151394,1.406769,7.864935,13.025635,0.000000,70.228072,-24.161034,1.283534,-0.271909,-0.572440,-0.805950,7.134060,0.145005,-0.076373,0.070599,-0.570957,0.022065,1.649282,9.719371,-0.493711,-2.942499,1,0,,38.990496,-76.939739,-10.694000,,,
2026-09-11T19:06:18.270,7.184809,1.436211,7.912922,13.298255,0.000000,65.794402,-22.635689,1.325581,-0.274621,-0.578150,-0.825173,7.157285,0.107005,-0.041548,0.079029,-0.576667,0.296259,-1.246131,12.290184,-0.518362,-2.940683,1,0,,38.990496,-76.939739,-10.694000,,,
2026-09-11T19:06:18.303,7.218223,1.436374,7.961251,13.299759,0.000000,57.343169,-19.728155,1.352066,-0.237488,-0.499975,-0.843186,7.181000,0.068114,-0.047825,0.026890,-0.498491,0.528284,1.160813,9.640624,-0.536726,-2.788832,1,0,,38.990496,-76.939739,-10.694000,,,
2026-09-11T19:06:18.336,7.251634,1.455920,8.010196,13.480743,0.000000,55.349838,-19.042375,1.376249,-0.231046,-0.486412,-0.859664,7.205141,0.028670,-0.038102,0.044853,-0.484929,0.963405,-0.448164,11.261761,-0.536135,-2.743320,1,0,,38.990496,-76.939739,-10.694000,,,
2026-09-11T19:06:18.372,7.285048,1.466098,8.059049,13.574979,0.000000,48.234817,-16.594547,1.405034,-0.193499,-0.407366,-0.874596,7.229798,-0.011353,-0.034609,0.032580,-0.405882,1.259370,-0.933985,11.405134,-0.520170,-2.736060,1,0,,38.990496,-76.939739,-10.694000,,,
2026-09-11T19:06:18.404,7.318466,1.495766,8.109451,13.849686,0.000000,42.740279,-14.704225,1.446778,-0.172458,-0.363068,-0.887470,7.255401,-0.052006,-0.027769,0.034940,-0.361585,0.524362,0.200056,9.140386,-0.557656,-2.658474,1,0,,38.990496,-76.939739,-10.694000,,,
2026-09-11T19:06:18.437,7.351881,1.525374,8.159899,14.123829,0.000000,36.827575,-12.670037,1.488230,-0.160938,-0.338817,-0.899196,7.281795,-0.093708,-0.055513,-0.040196,-0.337334,1.924849,-1.019107,9.058893,-0.512453,-2.662078,1,0,,38.990496,-76.939739,-10.694000,,,
2026-09-11T19:06:18.470,7.385300,1.545454,8.211259,14.309761,0.000000,32.284728,-11.107131,1.516506,-0.144233,-0.303648,-0.909931,7.308814,-0.136332,-0.056974,0.001072,-0.302164,1.750389,-0.207116,6.162597,-0.483226,-2.615885,1,0,,38.990496,-76.939739,-10.694000,,,
2026-09-11T19:06:18.504,7.418713,1.546024,8.263712,14.315037,0.000000,32.198211,-11.077366,1.517219,-0.138417,-0.291404,-0.919873,7.335982,-0.179379,-0.076854,-0.019342,-0.289920,-0.957619,0.300574,4.042988,-0.628572,-2.538525,1,0,,38.990496,-76.939739,-10.694000,,,
2026-09-11T19:06:18.539,7.452135,1.585421,8.316735,14.679823,0.000000,31.041213,-10.679316,1.557961,-0.134477,-0.283110,-0.929474,7.363280,-0.223157,-0.074680,-0.026495,-0.281627,-2.063221,-3.052026,-1.276237,-0.841778,-2.679233,1,0,,38.990496,-76.939739,-10.694000,,,
2026-09-11T19:06:18.571,7.485551,1.634294,8.371763,15.132350,0.000000,30.805694,-10.598289,1.606414,-0.139525,-0.293738,-0.939111,7.391020,-0.268396,-0.128434,0.003390,-0.292254,0.406388,1.244660,5.863102,-0.890461,-2.538099,1,0,,38.990496,-76.939739,-10.694000,,,
2026-09-11T19:06:18.604,7.518967,1.672999,8.427839,15.490729,0.000000,30.997955,-10.664434,1.644102,-0.141491,-0.297876,-0.948996,7.419067,-0.315138,-0.072346,0.023191,-0.296392,0.253698,-3.780071,8.313980,-0.940220,-2.722788,1,0,,38.990496,-76.939739,-10.694000,,,
2026-09-11T19:06:18.637,7.552380,1.721709,8.485146,15.941750,0.000000,30.829040,-10.606321,1.692294,-0.156208,-0.328860,-0.959467,7.447235,-0.363491,-0.065226,-0.020459,-0.327376,1.203472,0.650181,7.529448,-0.917878,-2.614189,1,0,,38.990496,-76.939739,-10.694000,,,
2026-09-11T19:06:18.671,7.585793,1.760776,8.544070,16.303481,0.000000,30.401946,-10.459385,1.731519,-0.152769,-0.321620,-0.970334,7.475564,-0.413451,0.021477,0.050534,-0.320136,1.287417,-2.233465,6.030305,-0.879815,-2.693517,1,0,,38.990496,-76.939739,-10.694000,,,
2026-09-11T19:06:18.704,7.619205,1.838773,8.605706,17.025677,0.000000,28.366729,-9.759196,1.812164,-0.150745,-0.317357,-0.981009,7.504548,-0.465319,0.121736,0.043029,-0.315874,2.001341,-1.740386,11.968722,-0.787500,-2.738855,1,0,,38.990496,-76.939739,-10.694000,,,
2026-09-11T19:06:18.738,7.652617,1.868104,8.668049,17.297256,0.000000,26.748306,-9.202399,1.844060,-0.128925,-0.271421,-0.990845,7.534373,-0.518830,0.094126,0.008383,-0.269937,-0.025595,-1.952406,7.159933,-0.825328,-2.802256,1,0,,38.990496,-76.939739,-10.694000,,,
2026-09-11T19:06:18.771,7.686031,1.878109,8.731211,17.389901,0.000000,25.050918,-8.618435,1.856902,-0.132349,-0.278629,-1.000035,7.564355,-0.573082,0.180934,-0.045683,-0.277146,0.894170,-0.338231,9.667592,-0.801741,-2.759317,1,0,,38.990496,-76.939739,-10.694000,,,
2026-09-11T19:06:18.804,7.719441,1.898105,8.794875,17.575047,0.000000,23.036987,-7.925569,1.879974,-0.113430,-0.238800,-1.008678,7.594388,-0.627961,0.207933,-0.008109,-0.237317,0.202703,-1.778436,10.483211,-0.820499,-2.814560,1,0,,38.990496,-76.939739,-10.694000,,,
2026-09-11T19:06:18.838,7.752854,1.888901,8.857765,17.489825,0.000000,22.681304,-7.803201,1.871410,-0.117483,-0.247333,-1.016800,7.624303,-0.683167,0.204244,-0.030505,-0.245849,-1.367635,0.371672,7.390586,-0.937554,-2.729041,1,0,,38.990496,-76.939739,-10.694000,,,
2026-09-11T19:06:18.871,7.786268,1.821499,8.918535,16.865733,0.000000,22.517196,-7.746742,1.804875,-0.122504,-0.257902,-1.025241,7.652980,-0.737628,0.142951,-0.052770,-0.256419,-1.118645,-1.093245,9.554423,-1.031699,-2.739176,1,0,,38.990496,-76.939739,-10.694000,,,
2026-09-11T19:06:18.904,7.819682,1.802790,8.978963,16.692501,0.000000,23.159896,-7.967854,1.785386,-0.133702,-0.281479,-1.034252,7.680204,-0.791245,0.130624,-0.010352,-0.279995,-1.936029,-1.402449,6.415314,-1.170274,-2.766824,1,0,,38.990496,-76.939739,-10.694000,,,
2026-09-11T19:06:18.938,7.853093,1.745058,9.036953,16.157945,0.000000,25.398360,-8.737968,1.724804,-0.134261,-0.282654,-1.043676,7.706087,-0.844053,0.033481,0.048957,-0.281170,5.776509,-8.593175,9.987779,-0.798949,-3.260941,1,0,,38.990496,-76.939739,-10.694000,,,
2026-09-11T19:06:18.971,7.886507,1.745606,9.095468,16.163020,0.000000,26.477081,-9.109087,1.723592,-0.142068,-0.299091,-1.053396,7.730825,-0.896287,0.224208,0.120701,-0.297607,-1.324094,-0.753739,14.062638,-0.880896,-3.239947,1,0,,38.990496,-76.939739,-10.694000,,,
2026-09-11T19:06:19.005,7.919921,1.745513,9.154027,16.162161,0.000000,26.983825,-9.283426,1.722651,-0.149497,-0.314731,-1.063651,7.754800,-0.948858,0.094877,0.055918,-0.313248,2.985831,0.263897,10.166750,-0.679145,-3.151525,1,0,,38.990496,-76.939739,-10.694000,,,
2026-09-11T19:06:19.038,7.953334,1.765257,9.213727,16.344975,0.000000,27.093002,-9.320987,1.741950,-0.138080,-0.290694,-1.073765,7.778443,-1.001909,0.009734,0.099146,-0.289210,1.031071,-1.765197,5.888795,-0.605376,-3.197870,1,0,,38.990496,-76.939739,-10.694000,,,
2026-09-11T19:06:19.072,7.986749,1.794530,9.273745,16.616019,0.000000,27.131454,-9.334216,1.770769,-0.141850,-0.298631,-1.083611,7.802048,-1.055844,-0.042033,-0.138479,-0.297148,2.344084,-1.022245,4.826245,-0.446477,-3.194112,1,0,,38.990496,-76.939739,-10.694000,,,
2026-09-11T19:06:19.105,8.020162,1.804615,9.333786,16.709398,0.000000,27.402679,-9.427527,1.780241,-0.141799,-0.298525,-1.093588,7.825359,-1.110602,-0.024611,0.055429,-0.297041,1.007633,-0.063155,9.858527,-0.380099,-3.128086,1,0,,38.990496,-76.939739,-10.694000,,,
2026-09-11T19:06:19.138,8.053574,1.795541,9.393143,16.625383,0.000000,27.379333,-9.419495,1.771331,-0.137963,-0.290449,-1.103427,7.848189,-1.165564,-0.065567,-0.022750,-0.288965,0.272135,0.598206,8.201498,-0.366976,-3.021055,1,0,,38.990496,-76.939739,-10.694000,,,
2026-09-11T19:06:19.172,8.086985,1.776193,9.452637,16.446232,0.000000,26.970779,-9.278938,1.752952,-0.116131,-0.244487,-1.112363,7.870683,-1.220139,-0.091844,-0.067902,-0.243003,-0.008434,-0.546132,8.006443,-0.377696,-2.994908,1,1,8.075986,38.990497,-76.939720,-10.725000,4.124842,6.463020,3.332532
2026-09-11T19:06:19.205,8.120399,1.767161,9.511698,16.362605,0.000000,26.363784,-9.070109,1.745065,-0.123558,-0.260122,-1.120794,7.892727,-1.274410,-0.057758,0.024042,-0.258638,1.960447,0.773549,4.486935,-0.267549,-2.881922,1,0,,38.990497,-76.939720,-10.725000,,,
2026-09-11T19:06:19.239,8.153813,1.728728,9.570281,16.006739,0.000000,26.089126,-8.975617,1.707559,-0.119573,-0.251733,-1.129345,7.913932,-1.328208,-0.043341,-0.014306,-0.250249,-0.962719,1.620059,9.114203,-0.351147,-2.716931,1,0,,38.990497,-76.939720,-10.725000,,,
2026-09-11T19:06:19.272,8.187226,1.749006,9.628340,16.194504,0.000000,25.442306,-8.753087,1.728636,-0.114188,-0.240397,-1.137567,7.934707,-1.381867,-0.131669,-0.036414,-0.238913,-0.011572,-0.472484,5.995001,-0.373007,-2.690231,1,0,,38.990497,-76.939720,-10.725000,,,
2026-09-11T19:06:19.305,8.220640,1.749367,9.686307,16.197840,0.000000,23.265640,-8.004234,1.732324,-0.111310,-0.234336,-1.145499,7.955346,-1.436009,-0.008986,0.143900,-0.232853,-0.019025,3.801352,16.738873,-0.393281,-2.387702,1,0,,38.990497,-76.939720,-10.725000,,,
2026-09-11T19:06:19.339,8.254052,1.740382,9.744070,16.114648,0.000000,19.873611,-6.837251,1.728005,-0.099310,-0.209074,-1.152906,7.975792,-1.490196,-0.100375,0.104804,-0.207591,2.412436,-2.960039,4.785155,-0.254837,-2.529234,1,0,,38.990497,-76.939720,-10.725000,,,
2026-09-11T19:06:19.374,8.287463,1.730758,9.801422,16.025538,0.000000,15.198928,-5.228989,1.723555,-0.073072,-0.153836,-1.158969,7.996398,-1.544128,-0.090663,-0.010284,-0.152353,1.251623,-1.614665,12.607724,-0.192429,-2.588314,1,0,,38.990497,-76.939720,-10.725000,,,
2026-09-11T19:06:19.407,8.320883,1.720756,9.859230,15.932929,0.000000,8.811752,-3.031566,1.718348,-0.042226,-0.088897,-1.163025,8.017546,-1.597648,-0.055507,0.031475,-0.087413,-0.218590,-0.816306,8.909734,-0.227049,-2.602327,1,0,,38.990497,-76.939720,-10.725000,,,
2026-09-11T19:06:19.439,8.354298,1.730556,9.917220,16.023669,0.000000,6.137954,-2.111681,1.729381,-0.018636,-0.039233,-1.165166,8.039399,-1.650955,0.026257,0.012371,-0.037749,0.880441,-2.524232,10.636685,-0.193817,-2.732295,1,0,,38.990497,-76.939720,-10.725000,,,
2026-09-11T19:06:19.474,8.387716,1.759887,9.976008,16.295247,0.000000,2.844802,-0.978716,1.759630,0.003021,0.006361,-1.165715,8.062149,-1.704631,-0.008407,0.049185,0.007844,0.902408,0.018633,12.749332,-0.162501,-2.701251,1,0,,38.990497,-76.939720,-10.725000,,,
2026-09-11T19:06:19.506,8.421131,1.779512,10.035137,16.476966,0.000000,1.437179,-0.494442,1.779446,0.003109,0.006544,-1.165499,8.085551,-1.758932,-0.042035,-0.050033,0.008028,-0.125525,1.808739,9.273365,-0.197873,-2.554652,1,0,,38.990497,-76.939720,-10.725000,,,
2026-09-11T19:06:19.539,8.454547,1.789421,10.095064,16.568715,0.000000,1.226379,-0.421919,1.789373,-0.001143,-0.002406,-1.165430,8.109094,-1.813715,-0.065011,-0.052858,-0.000923,1.357731,1.288496,7.666937,-0.135895,-2.442348,1,0,,38.990497,-76.939720,-10.725000,,,
2026-09-11T19:06:19.573,8.487959,1.799342,10.155402,16.660571,0.000000,1.203719,-0.414124,1.799295,0.007465,0.015717,-1.165208,8.132840,-1.868765,-0.067021,-0.034430,0.017200,1.205139,-0.116895,7.822176,-0.085776,-2.424408,1,0,,38.990497,-76.939720,-10.725000,,,
2026-09-11T19:06:19.606,8.521373,1.809668,10.216263,16.756185,0.000000,1.273071,-0.437983,1.809615,0.009003,0.018953,-1.164629,8.156898,-1.924051,-0.091772,-0.030052,0.020436,-0.165929,0.692938,9.214819,-0.128044,-2.354623,1,0,,38.990497,-76.939720,-10.725000,,,
2026-09-11T19:06:19.640,8.554788,1.790496,10.275803,16.578664,0.000000,1.188613,-0.408927,1.790450,0.005457,0.011488,-1.164120,8.180898,-1.979205,-0.040909,-0.033619,0.012972,0.964484,-1.786576,10.150569,-0.099229,-2.445269,1,0,,38.990497,-76.939720,-10.725000,,,
2026-09-11T19:06:19.673,8.588201,1.800852,10.336436,16.674555,0.000000,0.192291,-0.066155,1.800851,0.008662,0.018235,-1.163623,8.204861,-2.034210,-0.035606,-0.069053,0.019719,0.133370,0.451792,8.484420,-0.124795,-2.390772,1,0,,38.990497,-76.939720,-10.725000,,,
2026-09-11T19:06:19.706,8.621612,1.820899,10.397024,16.860177,0.000000,-0.720261,0.247796,1.820882,0.022603,0.047586,-1.162524,8.229331,-2.089546,-0.049287,-0.001728,0.049069,1.263293,-3.113415,6.909962,-0.076218,-2.571201,1,0,,38.990497,-76.939720,-10.725000,,,
2026-09-11T19:06:19.740,8.655024,1.801764,10.456928,16.683002,0.000000,-2.852982,0.981531,1.801500,0.007897,0.016626,-1.161451,8.253855,-2.144873,0.032632,-0.016905,0.018110,-2.576599,4.198521,10.101928,-0.274099,-2.272532,1,0,,38.990497,-76.939720,-10.725000,,,
2026-09-11T19:06:19.773,8.688437,1.802018,10.517151,16.685351,0.000000,-3.639878,1.252252,1.801588,0.010282,0.021647,-1.160812,8.278109,-2.199966,0.092784,0.013312,0.023130,0.060507,1.762353,14.447942,-0.296663,-2.135511,1,0,,38.990497,-76.939720,-10.725000,,,
2026-09-11T19:06:19.807,8.721850,1.811756,10.577375,16.775523,0.000000,-3.893937,1.339657,1.811261,0.014397,0.030310,-1.159944,8.302570,-2.255146,0.078522,-0.080420,0.031794,0.636255,5.462794,6.582126,-0.279896,-1.761541,1,0,,38.990497,-76.939720,-10.725000,,,
2026-09-11T19:06:19.840,8.755262,1.821651,10.638304,16.867143,0.000000,-4.442567,1.528406,1.821003,0.020530,0.043220,-1.158715,8.327374,-2.310529,0.063740,0.029595,0.044704,-0.585163,0.382557,8.464414,-0.338597,-1.722088,1,0,,38.990497,-76.939720,-10.725000,,,
2026-09-11T19:06:19.873,8.788671,1.851302,10.700350,17.141688,0.000000,-4.530457,1.558644,1.850617,0.029180,0.061432,-1.156967,8.352749,-2.366372,0.030734,-0.016863,0.062915,-1.374304,2.445484,10.924216,-0.447064,-1.551851,1,0,,38.990497,-76.939720,-10.725000,,,
2026-09-11T19:06:19.907,8.822082,1.851386,10.761872,17.142460,0.000000,-4.553117,1.566439,1.850694,0.030242,0.063667,-1.154877,8.378580,-2.422559,0.106875,-0.020752,0.065151,1.210337,-0.451400,12.176918,-0.387102,-1.571223,1,0,,38.990497,-76.939720,-10.725000,,,
2026-09-11T19:06:19.941,8.855495,1.861370,10.824306,17.234904,0.000000,-4.486512,1.543525,1.860694,0.023637,0.049762,-1.152982,8.404509,-2.478889,0.087405,0.109037,0.051246,0.169557,-2.221304,6.123174,-0.389460,-1.703289,1,0,,38.990497,-76.939720,-10.725000,,,
2026-09-11T19:06:19.974,8.888986,1.881175,10.887605,17.418289,0.000000,-4.486512,1.543525,1.880493,0.023476,0.049422,-1.151321,8.430698,-2.535806,0.064287,0.109616,0.050906,0.841509,-1.619078,10.049071,-0.346935,-1.795162,1,0,,38.990497,-76.939720,-10.725000,,,
2026-09-11T19:06:20.007,8.922398,1.871791,10.950039,17.331400,0.000000,-4.397935,1.513051,1.871139,0.017617,0.037089,-1.149876,8.456892,-2.592748,0.086999,0.260956,0.038572,-0.568786,0.015200,10.754365,-0.398135,-1.778509,1,0,,38.990497,-76.939720,-10.725000,,,
2026-09-11T19:06:20.042,8.955819,1.872494,11.012814,17.337906,0.000000,-4.398621,1.513287,1.871841,0.000658,0.001385,-1.149233,8.482746,-2.649703,0.042306,0.321342,0.002869,-0.790514,1.919358,11.952345,-0.462554,-1.634446,1,0,,38.990497,-76.939720,-10.725000,,,
2026-09-11T19:06:20.074,8.989235,1.863331,11.074723,17.253068,0.000000,-4.286698,1.474781,1.862714,0.010746,0.022623,-1.148832,8.508463,-2.706553,-0.055308,0.326392,0.024107,-2.398609,1.987122,0.424432,-0.629102,-1.490189,1,0,,38.990497,-76.939720,-10.725000,,,
2026-09-11T19:06:20.107,9.022648,1.834401,11.136177,16.985196,0.000000,-3.626145,1.247527,1.833966,0.023405,0.049274,-1.147631,8.534310,-2.762646,-0.095124,-0.089288,0.050757,-3.780562,1.527876,10.839879,-0.881975,-1.380386,1,0,,38.990497,-76.939720,-10.725000,,,
2026-09-11T19:06:20.141,9.056069,1.844546,11.197745,17.079126,0.000000,-3.698243,1.272331,1.844091,0.010648,0.022416,-1.146433,8.560102,-2.818438,-0.057449,0.028314,0.023899,-1.486198,1.602995,7.577108,-0.984287,-1.263744,1,0,,38.990497,-76.939720,-10.725000,,,
2026-09-11T19:06:20.174,9.089483,1.825492,11.258469,16.902703,0.000000,-3.449677,1.186816,1.825100,0.006018,0.012669,-1.145847,8.585612,-2.874180,0.030136,0.082909,0.014152,0.694899,-3.075464,6.021675,-0.946266,-1.449980,1,1,9.092205,38.990496,-76.939699,-10.650000,5.934034,6.408349,3.399594
2026-09-11T19:06:20.208,9.122896,1.786657,11.318328,16.543119,0.000000,-3.126267,1.075551,1.786342,0.006960,0.014653,-1.145390,8.610696,-2.929052,0.021812,0.066886,0.016136,-0.118562,-5.287255,7.568675,-0.966958,-1.777502,1,0,,38.990496,-76.939699,-10.650000,,,
2026-09-11T19:06:20.242,9.156317,1.806286,11.379098,16.724872,0.000000,-3.241624,1.115237,1.805944,0.007273,0.015311,-1.144890,8.635700,-2.983628,0.095109,0.012845,0.016794,1.060589,-1.467075,9.046733,-0.919903,-1.854299,1,0,,38.990496,-76.939699,-10.650000,,,
2026-09-11T19:06:20.274,9.189728,1.797011,11.438889,16.638988,0.000000,-3.250550,1.118308,1.796668,0.009337,0.019657,-1.144305,8.660834,-3.038313,0.039443,0.001060,0.021140,0.604188,1.171208,8.778129,-0.909110,-1.759970,1,0,,38.990496,-76.939699,-10.650000,,,
2026-09-11T19:06:20.308,9.223141,1.807096,11.498930,16.732367,0.000000,-3.236817,1.113584,1.806754,0.001178,0.002479,-1.143936,8.685907,-3.093042,0.046985,-0.000538,0.003963,-0.238694,0.953991,8.988481,-0.957290,-1.678749,1,0,,38.990496,-76.939699,-10.650000,,,
2026-09-11T19:06:20.342,9.256559,1.797846,11.559221,16.646720,0.000000,-2.923020,1.005626,1.797569,0.001747,0.003678,-1.143833,8.710889,-3.147842,-0.011493,-0.028440,0.005161,-0.111305,1.299479,8.199831,-1.000467,-1.576192,1,0,,38.990496,-76.939699,-10.650000,,,
2026-09-11T19:06:20.375,9.289975,1.827412,11.620424,16.920481,0.000000,-2.647675,0.910897,1.827181,-0.004998,-0.010523,-1.143947,8.735915,-3.202992,0.033517,0.005140,-0.009039,1.160323,-0.771980,11.669129,-0.960862,-1.607175,1,0,,38.990496,-76.939699,-10.650000,,,
2026-09-11T19:06:20.408,9.323389,1.837774,11.681650,17.016427,0.000000,-2.675141,0.920347,1.837537,-0.003199,-0.006735,-1.144235,8.761131,-3.258785,-0.010711,0.020277,-0.005252,-0.438946,-1.157871,9.944237,-1.025732,-1.663231,1,0,,38.990496,-76.939699,-10.650000,,,
2026-09-11T19:06:20.442,9.356804,1.867225,11.744220,17.289121,0.000000,-1.541489,0.530329,1.867145,-0.000016,-0.000034,-1.144349,8.786687,-3.315158,-0.160551,-0.168780,0.001449,2.073322,-0.732459,6.741189,-0.932356,-1.691933,1,0,,38.990496,-76.939699,-10.650000,,,
2026-09-11T19:06:20.475,9.390218,1.955147,11.810026,18.103215,0.000000,0.280868,-0.096629,1.955144,-0.011161,-0.023496,-1.144742,8.812920,-3.373380,-0.260811,-0.174102,-0.022013,2.220324,0.112188,9.022216,-0.831811,-1.662682,1,0,,38.990496,-76.939699,-10.650000,,,
2026-09-11T19:06:20.508,9.423630,2.013836,11.877769,18.646627,0.000000,2.583877,-0.888948,2.013593,-0.018073,-0.038049,-1.145770,8.839845,-3.433970,-0.253723,-0.148377,-0.036566,0.428158,0.838076,10.838996,-0.845857,-1.584796,1,0,,38.990496,-76.939699,-10.650000,,,
2026-09-11T19:06:20.542,9.457054,2.043085,11.946377,18.917455,0.000000,3.832885,-1.318653,2.042544,-0.017652,-0.037162,-1.147027,8.867213,-3.495989,-0.227971,-0.152559,-0.035679,2.003499,2.524526,8.433719,-0.755312,-1.398628,1,0,,38.990496,-76.939699,-10.650000,,,
2026-09-11T19:06:20.575,9.490468,2.072487,12.015966,19.189694,0.000000,2.478133,-0.852569,2.072258,-0.004008,-0.008438,-1.147789,8.895127,-3.558814,-0.005254,-0.004724,-0.006955,-2.757532,-2.275241,21.756936,-0.970073,-1.528967,1,0,,38.990496,-76.939699,-10.650000,,,
2026-09-11T19:06:20.609,9.523879,2.063006,12.084756,19.101908,0.000000,0.264388,-0.090959,2.063003,0.008020,0.016885,-1.147648,8.923552,-3.621777,-0.054516,0.008654,0.018368,-2.108332,1.387347,9.627679,-1.135379,-1.424238,1,0,,38.990496,-76.939699,-10.650000,,,
2026-09-11T19:06:20.642,9.557299,2.053568,12.153091,19.014522,0.000000,-3.210725,1.104607,2.053187,0.010961,0.023075,-1.146980,8.952106,-3.684353,0.020477,-0.026385,0.024559,0.623997,2.307014,6.101404,-1.117646,-1.261940,1,0,,38.990496,-76.939699,-10.650000,,,
2026-09-11T19:06:20.675,9.590717,2.063552,12.221973,19.106967,0.000000,-4.067658,1.399424,2.062937,0.035595,0.074937,-1.145342,8.981149,-3.746699,0.075222,0.012352,0.076421,1.138650,-0.777863,12.324998,-1.063023,-1.308030,1,0,,38.990496,-76.939699,-10.650000,,,
2026-09-11T19:06:20.709,9.624124,2.073756,12.291037,19.201443,0.000000,-4.371155,1.503838,2.073042,0.037076,0.078054,-1.142787,9.010849,-3.809087,0.102704,0.049099,0.079538,-0.667343,1.462564,12.091305,-1.117640,-1.209119,1,0,,38.990496,-76.939699,-10.650000,,,
2026-09-11T19:06:20.742,9.657545,2.064712,12.359737,19.117707,0.000000,-4.424027,1.522028,2.063984,0.025557,0.053804,-1.140583,9.040564,-3.871517,0.119642,0.055089,0.055288,-0.358433,2.361245,14.421071,-1.140983,-1.049822,1,0,,38.990496,-76.939699,-10.650000,,,
2026-09-11T19:06:20.776,9.690958,2.045870,12.428004,18.943244,0.000000,-4.298371,1.478797,2.045189,0.029355,0.061801,-1.138652,9.070089,-3.933500,0.068778,0.030451,0.063284,-0.430904,-2.228954,8.213266,-1.163135,-1.190317,1,0,,38.990496,-76.939699,-10.650000,,,
2026-09-11T19:06:20.809,9.724373,2.027021,12.494972,18.768713,0.000000,-4.554490,1.566912,2.026263,0.044287,0.093237,-1.136062,9.099774,-3.994716,-0.001724,0.003030,0.094720,-0.586242,-0.470915,6.935263,-1.193840,-1.219555,1,0,,38.990496,-76.939699,-10.650000,,,
2026-09-11T19:06:20.843,9.757794,1.988524,12.561917,18.412257,0.000000,-4.174775,1.436276,1.987899,0.030850,0.064947,-1.133418,9.129244,-4.054988,0.037599,0.075182,0.066431,-0.607522,-0.948499,9.083116,-1.226172,-1.275514,1,0,,38.990496,-76.939699,-10.650000,,,
2026-09-11T19:06:20.876,9.791203,1.968997,12.627654,18.231458,0.000000,-4.201554,1.445489,1.968371,0.032673,0.068785,-1.131184,9.158264,-4.114373,-0.018333,0.038701,0.070269,-1.090107,0.088358,10.366218,-1.291841,-1.264157,1,0,,38.990496,-76.939699,-10.650000,,,
2026-09-11T19:06:20.909,9.824613,1.959558,12.692913,18.144053,0.000000,-4.201554,1.445489,1.958934,0.032964,0.069398,-1.128876,9.187245,-4.173241,-0.031400,-0.004200,0.070881,-0.082768,0.016573,9.198148,-1.292242,-1.257606,1,0,,38.990496,-76.939699,-10.650000,,,
2026-09-11T19:06:20.943,9.858035,1.950294,12.757876,18.058277,0.000000,-4.421281,1.521083,1.949607,0.037979,0.079956,-1.126380,9.216323,-4.231738,0.035787,0.050528,0.081439,-0.942223,0.434337,12.830727,-1.348188,-1.225377,1,0,,38.990496,-76.939699,-10.650000,,,
2026-09-11T19:06:20.976,9.891448,1.950614,12.823226,18.061242,0.000000,-5.690888,1.957874,1.949475,0.030259,0.063702,-1.123980,9.245428,-4.290025,0.023773,0.080407,0.065186,3.123124,2.740861,12.195158,-1.142281,-1.042227,1,0,,38.990496,-76.939699,-10.650000,,,
2026-09-11T19:06:21.010,9.924860,1.931513,12.887870,17.884383,0.000000,-5.886582,2.025200,1.930307,0.032856,0.069171,-1.121760,9.274449,-4.347989,0.000414,0.000585,0.070654,-0.507494,2.712127,12.555748,-1.176552,-0.863587,1,0,,38.990496,-76.939699,-10.650000,,,
2026-09-11T19:06:21.043,9.958278,1.951525,12.953493,18.069673,0.000000,-6.854752,2.358286,1.949872,0.052611,0.110760,-1.118754,9.303967,-4.405731,0.014340,0.040867,0.112243,1.520913,2.029977,12.671271,-1.083558,-0.736371,1,0,,38.990496,-76.939699,-10.650000,,,
2026-09-11T19:06:21.076,9.991689,1.971404,13.019322,18.253738,0.000000,-7.255067,2.496009,1.969533,0.067041,0.141140,-1.114546,9.334488,-4.463693,-0.025707,-0.072020,0.142623,-1.764903,0.136214,6.224869,-1.209772,-0.737114,1,0,,38.990496,-76.939699,-10.650000,,,
2026-09-11T19:06:21.110,10.025102,1.981772,13.085242,18.349738,0.000000,-8.164185,2.808779,1.979391,0.063588,0.133869,-1.109951,9.365647,-4.521884,-0.052195,0.044592,0.135352,0.633510,-2.565910,6.207413,-1.183202,-0.911824,1,0,,38.990496,-76.939699,-10.650000,,,
2026-09-11T19:06:21.144,10.058523,1.992096,13.152346,18.445335,0.000000,-9.096650,3.129581,1.989125,0.121509,0.255809,-1.103440,9.398096,-4.579797,-0.110195,0.048017,0.257293,0.110227,-7.770103,2.006539,-1.191502,-1.437252,1,0,,38.990496,-76.939699,-10.650000,,,
2026-09-11T19:06:21.177,10.091932,1.992836,13.217674,18.452189,0.000000,-10.541352,3.626612,1.988846,0.076459,0.160967,-1.096477,9.431188,-4.637519,-0.057499,0.094709,0.162451,5.980291,1.375383,7.648501,-0.821309,-1.352784,1,1,10.094676,38.990497,-76.939676,-10.448000,7.894472,6.530663,3.399594
2026-09-11T19:06:21.210,10.125343,2.012559,13.285713,18.634804,0.000000,-11.210145,3.856701,2.008001,0.086108,0.181280,-1.090760,9.464266,-4.695581,-0.019867,0.007272,0.182763,0.894465,-1.791675,11.288827,-0.786158,-1.477011,1,0,,38.990497,-76.939676,-10.448000,,,
2026-09-11T19:06:21.244,10.158790,2.022115,13.353751,18.723291,0.000000,-11.460770,3.942926,2.017329,0.079386,0.167128,-1.084933,9.497980,-4.753914,-0.033785,0.024998,0.168611,-0.656261,1.115016,8.455588,-0.854519,-1.409972,1,0,,38.990497,-76.939676,-10.448000,,,
2026-09-11T19:06:21.277,10.192204,2.032010,13.421813,18.814911,0.000000,-11.540421,3.970328,2.027134,0.084121,0.177096,-1.079182,9.532117,-4.812291,-0.031059,-0.025054,0.178580,1.206806,-0.355589,7.057650,-0.803590,-1.440323,1,0,,38.990497,-76.939676,-10.448000,,,
2026-09-11T19:06:21.311,10.225617,2.051644,13.490672,18.996701,0.000000,-11.210831,3.856937,2.046997,0.069001,0.145265,-1.073797,9.566661,-4.870994,0.050128,-0.084593,0.146749,-1.997124,2.383114,6.609094,-0.959955,-1.289130,1,0,,38.990497,-76.939676,-10.448000,,,
2026-09-11T19:06:21.344,10.259036,2.061889,13.559440,19.091565,0.000000,-11.859711,4.080176,2.056663,0.052567,0.110668,-1.069520,9.601268,-4.930227,0.020090,-0.027500,0.112151,-1.316249,0.192112,6.769531,-1.069361,-1.276872,1,0,,38.990497,-76.939676,-10.448000,,,
2026-09-11T19:06:21.378,10.292452,2.052827,13.628413,19.007657,0.000000,-12.021073,4.135690,2.047482,0.073821,0.155413,-1.065075,9.636203,-4.989270,0.011349,0.024011,0.156897,-0.211922,5.851236,7.016854,-1.107403,-0.904426,1,0,,38.990497,-76.939676,-10.448000,,,
2026-09-11T19:06:21.411,10.325867,2.043755,13.696612,18.923660,0.000000,-11.512269,3.960643,2.038874,0.076169,0.160356,-1.059799,9.671622,-5.047689,0.071329,0.047406,0.161840,2.134810,1.001847,14.285053,-0.998278,-0.850469,1,0,,38.990497,-76.939676,-10.448000,,,
2026-09-11T19:06:21.445,10.359287,2.054097,13.765334,19.019421,0.000000,-11.692857,4.022772,2.049037,0.079213,0.166765,-1.054333,9.707453,-5.105904,0.055740,-0.034552,0.168249,0.587516,-7.426478,3.115475,-0.991159,-1.343492,1,0,,38.990497,-76.939676,-10.448000,,,
2026-09-11T19:06:21.478,10.392710,2.064487,13.834148,19.115620,0.000000,-11.018571,3.790793,2.059970,0.063918,0.134564,-1.049297,9.743589,-5.164343,-0.023895,-0.127111,0.136047,-2.805585,1.868559,7.366167,-1.200007,-1.225332,1,0,,38.990497,-76.939676,-10.448000,,,
2026-09-11T19:06:21.511,10.426124,2.074651,13.903371,19.209732,0.000000,-8.377045,2.882011,2.072027,0.047231,0.099434,-1.045388,9.779706,-5.223204,0.026001,0.069891,0.100918,0.568884,-1.273786,6.500044,-1.187024,-1.307241,1,0,,38.990497,-76.939676,-10.448000,,,
2026-09-11T19:06:21.545,10.459544,2.094379,13.973529,19.392402,0.000000,-7.338151,2.524593,2.092347,0.033654,0.070850,-1.042542,9.815863,-5.282677,0.067343,0.046940,0.072334,0.053348,-1.581617,7.224559,-1.207478,-1.404445,1,0,,38.990497,-76.939676,-10.448000,,,
2026-09-11T19:06:21.578,10.492955,2.104021,14.043619,19.481677,0.000000,-5.760926,1.981970,2.102762,0.022311,0.046971,-1.040574,9.852052,-5.342697,0.053351,-0.064786,0.048454,0.667735,-2.023014,12.636653,-1.189023,-1.525908,1,0,,38.990497,-76.939676,-10.448000,,,
2026-09-11T19:06:21.611,10.526367,2.104102,14.113800,19.482429,0.000000,-4.465226,1.536202,2.103346,0.017969,0.037829,-1.039157,9.888212,-5.402952,0.075667,-0.083012,0.039313,0.118268,0.444241,8.568463,-1.208418,-1.485133,1,0,,38.990497,-76.939676,-10.448000,,,
2026-09-11T19:06:21.644,10.559783,2.143173,14.185370,19.844195,0.000000,-3.860291,1.328082,2.142597,0.001205,0.002536,-1.038483,9.924472,-5.463927,0.064394,-0.047478,0.004020,1.962115,-2.568656,10.981683,-1.108766,-1.635001,1,0,,38.990497,-76.939676,-10.448000,,,
2026-09-11T19:06:21.678,10.593194,2.192083,14.258445,20.297069,0.000000,-3.695496,1.271386,2.191544,0.000893,0.001881,-1.038409,9.961252,-5.526293,0.107255,-0.049872,0.003364,0.911920,-0.482683,11.478782,-1.077513,-1.648118,1,0,,38.990497,-76.939676,-10.448000,,,
2026-09-11T19:06:21.712,10.626607,2.172757,14.332157,20.118118,0.000000,-3.516968,1.209966,2.172272,0.003694,0.007776,-1.038248,9.998328,-5.589065,0.216406,0.120441,0.009260,-0.377556,0.455323,5.784158,-1.131544,-1.601214,1,0,,38.990497,-76.939676,-10.448000,,,
2026-09-11T19:06:21.745,10.660030,2.163339,14.404184,20.030915,0.000000,-3.132447,1.077677,2.162956,0.017073,0.035943,-1.037517,10.035434,-5.651291,0.154089,0.059329,0.037427,0.597911,-0.582221,2.833828,-1.122806,-1.625920,1,0,,38.990497,-76.939676,-10.448000,,,
2026-09-11T19:06:21.778,10.693446,2.173481,14.476962,20.124828,0.000000,-0.051469,0.017707,2.173481,-0.005671,-0.011938,-1.037116,10.072443,-5.713579,0.084891,-0.022279,-0.010455,0.410506,0.182208,11.367182,-1.123027,-1.594161,1,0,,38.990497,-76.939676,-10.448000,,,
2026-09-11T19:06:21.812,10.726857,2.193663,14.550333,20.311693,0.000000,7.142516,-2.457288,2.191646,-0.036123,-0.076048,-1.038586,10.108891,-5.776742,0.009446,0.006451,-0.074564,-0.083945,-0.260955,9.661119,-1.151562,-1.582330,1,0,,38.990497,-76.939676,-10.448000,,,
2026-09-11T19:06:21.846,10.760278,2.223403,14.624524,20.587064,0.000000,9.884979,-3.400795,2.219488,-0.073748,-0.155258,-1.042451,10.144587,-5.841259,-0.062000,0.030209,-0.153775,-0.729124,-2.115294,9.331126,-1.219116,-1.679144,1,0,,38.990497,-76.939676,-10.448000,,,
2026-09-11T19:06:21.879,10.793691,2.233439,14.699148,20.679988,0.000000,14.706603,-5.059611,2.224736,-0.107606,-0.226539,-1.048830,10.179187,-5.907018,-0.093009,0.028659,-0.225055,1.080497,0.296945,7.174349,-1.163297,-1.608436,1,0,,38.990497,-76.939676,-10.448000,,,
2026-09-11T19:06:21.912,10.827105,2.223880,14.772951,20.591485,0.000000,19.427978,-6.683937,2.208765,-0.136758,-0.287911,-1.057425,10.212294,-5.973401,-0.121182,0.104235,-0.286428,-0.328032,-0.427276,9.831853,-1.191779,-1.576841,1,0,,38.990497,-76.939676,-10.448000,,,
2026-09-11T19:06:21.945,10.860524,2.233860,14.847872,20.683893,0.000000,20.988036,-7.220655,2.216145,-0.148554,-0.312744,-1.067461,10.244116,-6.040308,-0.173341,0.040462,-0.311261,-0.690682,-2.214244,10.501353,-1.240282,-1.657556,1,0,,38.990497,-76.939676,-10.448000,,,
2026-09-11T19:06:21.979,10.893936,2.273127,14.923863,21.047474,0.000000,21.897842,-7.533661,2.253506,-0.155425,-0.327210,-1.078152,10.275318,-6.108335,-0.143876,0.003500,-0.325727,-0.558587,1.144926,10.086238,-1.282825,-1.517111,1,0,,38.990497,-76.939676,-10.448000,,,
2026-09-11T19:06:22.013,10.927345,2.273408,15.000196,21.050077,0.000000,21.968566,-7.557993,2.253657,-0.153226,-0.322581,-1.089007,10.306010,-6.177277,-0.174984,0.035515,-0.321098,-1.161107,0.623507,9.230215,-1.368834,-1.412653,1,0,,38.990497,-76.939676,-10.448000,,,
2026-09-11T19:06:22.046,10.960764,2.254311,15.075663,20.873254,0.000000,21.673995,-7.456650,2.235247,-0.156947,-0.330415,-1.099918,10.335798,-6.246309,-0.172528,-0.020223,-0.328931,2.453428,-3.052320,9.868138,-1.224508,-1.546482,1,0,,38.990497,-76.939676,-10.448000,,,
2026-09-11T19:06:22.079,10.994178,2.245344,15.150674,20.790226,0.000000,20.974303,-7.215930,2.227561,-0.152648,-0.321363,-1.110807,10.364640,-6.315259,-0.180570,-0.138689,-0.319880,-4.717195,2.978574,2.562870,-1.546516,-1.290004,1,0,,38.990497,-76.939676,-10.448000,,,
2026-09-11T19:06:22.113,11.027590,2.226663,15.224546,20.617248,0.000000,21.137725,-7.272153,2.208752,-0.113114,-0.238135,-1.120154,10.393245,-6.383775,-0.009222,-0.008685,-0.236652,-0.292630,-8.200615,1.620255,-1.577258,-1.772071,1,0,,38.990497,-76.939676,-10.448000,,,
2026-09-11T19:06:22.146,11.061010,2.198021,15.298031,20.352050,0.000000,20.445586,-7.034032,2.181478,-0.106822,-0.224889,-1.127891,10.421628,-6.451521,-0.031169,0.089965,-0.223406,1.735091,-6.327937,10.733477,-1.478562,-2.130073,1,0,,38.990497,-76.939676,-10.448000,,,
2026-09-11T19:06:22.179,11.094425,2.198200,15.371698,20.353701,0.000000,20.407821,-7.021039,2.181716,-0.118395,-0.249253,-1.135813,10.449202,-6.519108,-0.000032,0.133972,-0.247769,-0.551330,-0.603697,9.770758,-1.526538,-2.110074,1,1,11.090962,38.990499,-76.939652,-10.644000,9.947531,6.705981,3.400130
2026-09-11T19:06:22.213,11.127838,2.178857,15.444180,20.174605,0.000000,20.331603,-6.994818,2.162640,-0.110079,-0.231746,-1.143849,10.476055,-6.586644,0.009084,0.056907,-0.230263,1.087263,-3.235704,5.646473,-1.458382,-2.263445,1,0,,38.990499,-76.939652,-10.644000,,,
2026-09-11T19:06:22.247,11.161269,2.218100,15.518690,20.537967,0.000000,20.298644,-6.983479,2.201645,-0.123168,-0.259300,-1.152057,10.502432,-6.654769,-0.000403,0.006502,-0.257817,0.889463,-1.780495,8.447056,-1.397780,-2.316430,1,0,,38.990499,-76.939652,-10.644000,,,
2026-09-11T19:06:22.279,11.194685,2.257154,15.594408,20.899570,0.000000,20.008193,-6.883553,2.240884,-0.118540,-0.249559,-1.160559,10.528625,-6.724336,-0.013283,-0.003202,-0.248075,1.279964,-1.954367,11.325112,-1.314005,-2.380820,1,0,,38.990499,-76.939652,-10.644000,,,
2026-09-11T19:06:22.313,11.228092,2.315864,15.671926,21.443182,0.000000,19.846145,-6.827802,2.299439,-0.116590,-0.245452,-1.168828,10.554973,-6.795561,0.045298,-0.042982,-0.243969,1.501398,-1.874639,12.734426,-1.219303,-2.438987,1,0,,38.990499,-76.939652,-10.644000,,,
2026-09-11T19:06:22.347,11.261514,2.316066,15.749648,21.445052,0.000000,19.792587,-6.809376,2.299728,-0.112150,-0.236106,-1.176875,10.581233,-6.867893,0.115282,0.046882,-0.234623,-4.693071,2.703988,4.937452,-1.527003,-2.201405,1,0,,38.990499,-76.939652,-10.644000,,,
2026-09-11T19:06:22.380,11.294930,2.326135,15.827918,21.538284,0.000000,19.693023,-6.775123,2.309891,-0.113649,-0.239261,-1.184817,10.607020,-6.940563,0.016479,-0.002333,-0.237777,-0.691173,-3.570896,8.830398,-1.572882,-2.372159,1,0,,38.990499,-76.939652,-10.644000,,,
2026-09-11T19:06:22.413,11.328344,2.336678,15.905527,21.635912,0.000000,19.031097,-6.547396,2.321438,-0.114832,-0.241751,-1.192854,10.632318,-7.013784,-0.043129,-0.136425,-0.240267,3.186181,-2.618376,20.850703,-1.367357,-2.478797,1,0,,38.990499,-76.939652,-10.644000,,,
2026-09-11T19:06:22.447,11.361768,2.278936,15.981541,21.101258,0.000000,18.518173,-6.370931,2.264862,-0.121472,-0.255731,-1.201168,10.656632,-7.086578,-0.019479,0.204940,-0.254248,0.272919,-0.524264,16.994042,-1.352033,-2.447486,1,0,,38.990499,-76.939652,-10.644000,,,
2026-09-11T19:06:22.480,11.395182,2.230967,16.055937,20.657105,0.000000,18.371230,-6.320377,2.217407,-0.097267,-0.204774,-1.208861,10.680007,-7.157815,0.003818,0.171837,-0.203290,-0.921531,0.212510,9.592179,-1.411427,-2.376929,1,0,,38.990499,-76.939652,-10.644000,,,
2026-09-11T19:06:22.514,11.428594,2.221346,16.130242,20.568017,0.000000,16.865417,-5.802322,2.209965,-0.085608,-0.180227,-1.215293,10.703114,-7.228144,0.022815,0.072515,-0.178743,-2.251018,2.481573,9.908835,-1.554135,-2.163875,1,0,,38.990499,-76.939652,-10.644000,,,
2026-09-11T19:06:22.547,11.462015,2.231167,16.204183,20.658956,0.000000,16.101180,-5.539397,2.220748,-0.082193,-0.173038,-1.221196,10.726047,-7.298598,0.056114,-0.132110,-0.171554,-0.400700,0.099537,9.388985,-1.572017,-2.108292,1,0,,38.990499,-76.939652,-10.644000,,,
2026-09-11T19:06:22.580,11.495424,2.231508,16.278807,20.662109,0.000000,15.529891,-5.342852,2.221813,-0.075799,-0.159577,-1.226752,10.748790,-7.369288,-0.000449,-0.031270,-0.158093,-1.276139,0.035108,7.481788,-1.642033,-2.059440,1,0,,38.990499,-76.939652,-10.644000,,,
2026-09-11T19:06:22.614,11.528966,2.212626,16.353043,20.487280,0.000000,15.525771,-5.341435,2.203018,-0.079247,-0.166835,-1.232227,10.771180,-7.440086,-0.054815,0.004681,-0.165352,-2.114118,-0.755112,6.342941,-1.766617,-2.061444,1,0,,38.990499,-76.939652,-10.644000,,,
2026-09-11T19:06:22.647,11.562388,2.193717,16.426072,20.312196,0.000000,15.508605,-5.335529,2.184212,-0.077551,-0.163266,-1.237743,10.792867,-7.510169,-0.049498,-0.012136,-0.161783,-2.035468,0.497687,10.204506,-1.885395,-1.983010,1,0,,38.990499,-76.939652,-10.644000,,,
2026-09-11T19:06:22.681,11.595798,2.184370,16.498964,20.225652,0.000000,15.442001,-5.312615,2.174987,-0.066797,-0.140626,-1.242819,10.814218,-7.579829,-0.046911,0.091876,-0.139143,-2.097054,1.262998,10.867043,-2.011548,-1.859233,1,0,,38.990499,-76.939652,-10.644000,,,
2026-09-11T19:06:22.714,11.629207,2.165347,16.571492,20.049508,0.000000,14.493057,-4.986143,2.157153,-0.077280,-0.162694,-1.247886,10.835076,-7.649167,0.013652,0.169288,-0.161211,-0.976448,1.124921,10.747892,-2.073002,-1.742852,1,0,,38.990499,-76.939652,-10.644000,,,
2026-09-11T19:06:22.747,11.662627,2.156410,16.643837,19.966755,0.000000,9.802581,-3.372448,2.152675,-0.063582,-0.133857,-1.252842,10.855526,-7.718258,-0.143920,-0.127827,-0.132374,-4.279426,0.025301,2.103821,-2.354780,-1.702977,1,0,,38.990499,-76.939652,-10.644000,,,
2026-09-11T19:06:22.781,11.696037,2.205550,16.717163,20.421757,0.000000,6.370727,-2.191764,2.203936,-0.051405,-0.108221,-1.256886,10.876311,-7.788031,-0.179498,-0.033211,-0.106737,1.450207,3.357307,13.013327,-2.265018,-1.451160,1,0,,38.990499,-76.939652,-10.644000,,,
2026-09-11T19:06:22.814,11.729448,2.196114,16.790625,20.334388,0.000000,4.222213,-1.452596,2.195408,-0.024770,-0.052147,-1.259565,10.897700,-7.858357,-0.091366,-0.146983,-0.050663,-1.808052,2.506776,13.691064,-2.391957,-1.265202,1,0,,38.990499,-76.939652,-10.644000,,,
2026-09-11T19:06:22.848,11.762869,2.196029,16.863904,20.333599,0.000000,1.505843,-0.518065,2.195939,-0.002832,-0.005962,-1.260536,10.919699,-7.928365,-0.101934,-0.109476,-0.004478,-1.469036,1.483942,6.521717,-2.502413,-1.154025,1,0,,38.990499,-76.939652,-10.644000,,,
2026-09-11T19:06:22.882,11.796286,2.215969,16.939075,20.518232,0.000000,-1.257905,0.432765,2.215906,0.024253,0.051060,-1.259782,10.942571,-7.998441,-0.094702,0.012928,0.052543,1.243091,-2.357028,6.467486,-2.440456,-1.300816,1,0,,38.990499,-76.939652,-10.644000,,,
2026-09-11T19:06:22.915,11.829697,2.235692,17.013107,20.700849,0.000000,-3.555421,1.223195,2.235182,0.036188,0.076186,-1.257656,10.966363,-8.068897,-0.115519,-0.007490,0.077669,-0.413841,-0.009414,9.567466,-2.489469,-1.297762,1,0,,38.990499,-76.939652,-10.644000,,,
2026-09-11T19:06:22.948,11.863115,2.245579,17.088369,20.792397,0.000000,-5.059861,1.740778,2.244542,0.051986,0.109445,-1.254555,10.990932,-8.139616,-0.095857,0.011796,0.110928,1.115899,-1.093441,11.517224,-2.442653,-1.369774,1,0,,38.990499,-76.939652,-10.644000,,,
2026-09-11T19:06:22.981,11.896525,2.275182,17.164474,21.066504,0.000000,-6.530656,2.246785,2.273433,0.057588,0.121238,-1.250701,11.016282,-8.210729,-0.033430,0.030035,0.122721,2.164230,1.073240,13.444721,-2.331921,-1.302721,1,0,,38.990499,-76.939652,-10.644000,,,
2026-09-11T19:06:23.015,11.929935,2.304448,17.241467,21.337478,0.000000,-7.274979,2.502860,2.302249,0.075327,0.158582,-1.246027,11.042610,-8.282522,-0.032328,0.060807,0.160066,-0.068058,0.256248,11.118093,-2.361386,-1.295061,1,0,,38.990499,-76.939652,-10.644000,,,
2026-09-11T19:06:23.048,11.963360,2.314515,17.319236,21.430693,0.000000,-7.412308,2.550106,2.312223,0.066053,0.139060,-1.241052,11.069637,-8.354789,-0.022430,0.052435,0.140544,1.025285,0.435611,4.394556,-2.308395,-1.273054,1,0,,38.990499,-76.939652,-10.644000,,,
2026-09-11T19:06:23.082,11.996771,2.392949,17.400263,22.156939,0.000000,-7.441148,2.560028,2.390561,0.065405,0.137695,-1.236429,11.097326,-8.428342,0.033541,-0.200535,0.139179,0.660478,-1.151399,13.826396,-2.268350,-1.354477,1,0,,38.990499,-76.939652,-10.644000,,,
2026-09-11T19:06:23.115,12.030183,2.402920,17.479900,22.249260,0.000000,-7.897080,2.716885,2.400219,0.065780,0.138484,-1.231815,11.125835,-8.503160,0.086181,-0.046746,0.139968,4.462222,-2.837750,17.156146,-1.969665,-1.544338,1,0,,38.990499,-76.939652,-10.644000,,,
2026-09-11T19:06:23.149,12.063600,2.422164,17.560904,22.427444,0.000000,-7.667054,2.637748,2.419598,0.062525,0.131631,-1.227302,11.154806,-8.578331,0.149734,0.041303,0.133114,-0.953697,-3.734372,12.700396,-2.011520,-1.789279,1,0,,38.990499,-76.939652,-10.644000,,,
2026-09-11T19:06:23.182,12.097013,2.422607,17.642682,22.431548,0.000000,-7.735032,2.661135,2.419995,0.057643,0.121354,-1.223075,11.184085,-8.653723,0.185720,0.040436,0.122838,0.470621,-0.075707,13.843460,-1.950186,-1.793090,1,1,12.101516,38.990497,-76.939626,-10.702000,12.195912,6.529737,3.752203
2026-09-11T19:06:23.215,12.130427,2.452135,17.724279,22.704958,0.000000,-7.541398,2.594518,2.449622,0.058697,0.123572,-1.218983,11.213791,-8.729486,0.161304,0.062301,0.125056,-1.151105,-0.453067,5.320696,-1.985723,-1.821867,1,0,,38.990497,-76.939626,-10.702000,,,
2026-09-11T19:06:23.249,12.163846,2.452225,17.806194,22.705784,0.000000,-7.299012,2.511128,2.449870,0.064200,0.135158,-1.214660,11.244096,-8.805567,0.115349,-0.065356,0.136641,-0.638707,-1.820310,7.163071,-1.983377,-1.940683,1,0,,38.990497,-76.939626,-10.702000,,,
2026-09-11T19:06:23.283,12.197259,2.413702,17.887609,22.349092,0.000000,-5.786332,1.990711,2.412245,0.050096,0.105466,-1.210640,11.274357,-8.880973,0.062950,0.055595,0.106949,-2.388508,-1.718223,9.382414,-2.094268,-2.046594,1,0,,38.990497,-76.939626,-10.702000,,,
2026-09-11T19:06:23.315,12.230674,2.317441,17.964010,21.457785,0.000000,-5.189637,1.785426,2.316316,0.038857,0.081803,-1.207511,11.303702,-8.954338,0.059709,0.085109,0.083287,-2.148049,-1.969273,6.691274,-2.183953,-2.163393,1,0,,38.990497,-76.939626,-10.702000,,,
2026-09-11T19:06:23.349,12.264097,2.230667,18.038155,20.654323,0.000000,-5.057801,1.740069,2.229638,0.040571,0.085413,-1.204717,11.332034,-9.024838,0.099055,0.089992,0.086897,-1.863264,-5.277645,3.477830,-2.246732,-2.493265,1,0,,38.990497,-76.939626,-10.702000,,,
2026-09-11T19:06:23.382,12.297510,2.134012,18.109931,19.759368,0.000000,-4.886140,1.681011,2.133093,0.036040,0.075873,-1.202022,11.359409,-9.092402,0.118951,0.146938,0.077356,-4.098003,-1.471586,10.212744,-2.450970,-2.571132,1,0,,38.990497,-76.939626,-10.702000,,,
2026-09-11T19:06:23.416,12.330924,2.066452,18.178448,19.133814,0.000000,-5.215043,1.794166,2.065439,0.052423,0.110364,-1.198911,11.386171,-9.157255,0.085822,0.190842,0.111847,0.899368,-7.585150,5.846529,-2.331590,-3.048402,1,0,,38.990497,-76.939626,-10.702000,,,
2026-09-11T19:06:23.449,12.364344,1.998725,18.245394,18.506714,0.000000,-5.165604,1.777157,1.997764,0.038634,0.081335,-1.195708,11.412360,-9.219917,0.030484,-0.076470,0.082819,-1.039701,0.272233,3.292779,-2.340872,-3.007216,1,0,,38.990497,-76.939626,-10.702000,,,
2026-09-11T19:06:23.483,12.397756,1.969458,18.312521,18.235724,0.000000,-5.057801,1.740069,1.968550,0.027022,0.056889,-1.193399,11.437725,-9.281140,-0.003093,0.162519,0.058372,1.264469,-5.475641,7.606038,-2.201618,-3.335607,1,0,,38.990497,-76.939626,-10.702000,,,
2026-09-11T19:06:23.516,12.431164,1.989125,18.377803,18.417828,0.000000,-5.083894,1.749046,1.988199,0.029947,0.063046,-1.191395,11.463027,-9.342207,0.056766,0.138440,0.064530,1.958486,-0.842587,2.313095,-2.023371,-3.361067,1,0,,38.990497,-76.939626,-10.702000,,,
2026-09-11T19:06:23.550,12.464586,2.008636,18.445181,18.598486,0.000000,-5.271348,1.813537,2.007630,0.029014,0.061082,-1.189321,11.488737,-9.403840,0.003964,-0.106641,0.062566,-0.882599,0.074432,11.497611,-2.042045,-3.326640,1,0,,38.990497,-76.939626,-10.702000,,,
2026-09-11T19:06:23.583,12.498000,2.008735,18.512194,18.599402,0.000000,-5.173844,1.779992,2.007766,0.023364,0.049187,-1.187479,11.514582,-9.465754,0.011277,-0.064638,0.050670,-0.461697,-0.341860,11.908215,-2.047003,-3.318032,1,0,,38.990497,-76.939626,-10.702000,,,
2026-09-11T19:06:23.616,12.531412,1.980210,18.578410,18.335280,0.000000,-4.838074,1.664475,1.979375,0.013929,0.029323,-1.186167,11.540112,-9.527281,0.114507,0.057765,0.030807,-0.641845,0.909273,7.988497,-2.078415,-3.225814,1,0,,38.990497,-76.939626,-10.702000,,,
2026-09-11T19:06:23.650,12.564832,2.000366,18.645857,18.521911,0.000000,-4.658173,1.602583,1.999584,0.005316,0.011191,-1.185490,11.565378,-9.588781,0.017545,0.016654,0.012674,0.446399,1.292124,6.265959,-2.053611,-3.107488,1,0,,38.990497,-76.939626,-10.702000,,,
2026-09-11T19:06:23.684,12.598244,2.030081,18.714602,18.797042,0.000000,-4.608735,1.585574,2.029303,0.014615,0.030768,-1.184789,11.591005,-9.651019,0.066050,0.055304,0.032251,0.611837,1.478254,11.680701,-2.029193,-2.981050,1,0,,38.990497,-76.939626,-10.702000,,,
2026-09-11T19:06:23.717,12.631655,2.059724,18.782139,19.071515,0.000000,-4.728898,1.626914,2.058893,0.015266,0.032140,-1.183738,11.617214,-9.714088,0.093351,0.010958,0.033623,0.951932,-0.008336,13.550045,-1.990393,-2.952558,1,0,,38.990497,-76.939626,-10.702000,,,
2026-09-11T19:06:23.750,12.665072,2.069864,18.851135,19.165410,0.000000,-4.684952,1.611796,2.069045,0.022098,0.046522,-1.182424,11.643869,-9.777704,0.117563,0.013182,0.048005,-0.709217,-2.358794,8.271909,-2.061275,-3.078605,1,0,,38.990497,-76.939626,-10.702000,,,
2026-09-11T19:06:23.783,12.698484,2.089405,18.920769,19.346341,0.000000,-4.467286,1.536910,2.088653,-0.003337,-0.007026,-1.181764,11.670482,-9.841861,0.050160,-0.096841,-0.005542,-0.255757,0.900643,8.473730,-2.098300,-2.984912,1,0,,38.990497,-76.939626,-10.702000,,,
2026-09-11T19:06:23.817,12.731896,2.108827,18.990767,19.526173,0.000000,-2.724580,0.937355,2.108544,0.002505,0.005273,-1.181793,11.697064,-9.906746,0.098916,0.227379,0.006756,0.258503,-0.116503,5.013258,-2.094300,-2.959817,1,0,,38.990497,-76.939626,-10.702000,,,
2026-09-11T19:06:23.850,12.765314,2.118882,19.061882,19.619278,0.000000,1.506530,-0.518302,2.118795,-0.027824,-0.058577,-1.182684,11.723433,-9.972276,0.033007,0.036655,-0.057094,2.665251,-2.489908,13.729801,-1.927237,-3.080007,1,0,,38.990497,-76.939626,-10.702000,,,
2026-09-11T19:06:23.884,12.798726,2.157959,19.134365,19.981099,0.000000,7.882034,-2.711709,2.155542,-0.057070,-0.120146,-1.185670,11.749042,-10.038946,-0.018009,-0.003836,-0.118663,-0.257621,-1.395781,2.456566,-1.942041,-3.119234,1,0,,38.990497,-76.939626,-10.702000,,,
2026-09-11T19:06:23.917,12.832136,2.187246,19.207280,20.252274,0.000000,13.750106,-4.730541,2.179795,-0.089826,-0.189107,-1.190836,11.773798,-10.107048,-0.032680,-0.014218,-0.187624,-0.118759,-2.788031,8.883354,-1.939815,-3.238297,1,0,,38.990497,-76.939626,-10.702000,,,
2026-09-11T19:06:23.951,12.865556,2.206869,19.280947,20.433973,0.000000,21.973373,-7.559647,2.187688,-0.150152,-0.316108,-1.199278,11.796847,-10.176404,-0.036783,-0.079005,-0.314625,1.256820,0.387853,8.395964,-1.844825,-3.132164,1,0,,38.990497,-76.939626,-10.702000,,,
2026-09-11T19:06:23.984,12.898968,2.226918,19.356573,20.619613,0.000000,27.434264,-9.438394,2.196771,-0.181310,-0.381705,-1.210936,11.817866,-10.246786,-0.028497,0.066457,-0.380221,-0.534855,-0.186719,9.195990,-1.864868,-3.054940,1,0,,38.990497,-76.939626,-10.702000,,,
2026-09-11T19:06:24.017,12.932378,2.246902,19.430787,20.804650,0.000000,31.905700,-10.976732,2.205794,-0.189364,-0.398661,-1.223972,11.837503,-10.317926,0.011980,-0.021569,-0.397178,-1.639966,-6.517696,8.921502,-1.957917,-3.386081,1,0,,38.990497,-76.939626,-10.702000,,,
2026-09-11T19:06:24.051,12.965794,2.218512,19.504591,20.541779,0.000000,31.849395,-10.957361,2.178066,-0.223395,-0.470304,-1.238490,11.855399,-10.389280,0.056518,0.075610,-0.468821,-2.313683,-6.101600,12.021090,-2.094111,-3.677360,1,0,,38.990497,-76.939626,-10.702000,,,
2026-09-11T19:06:24.084,12.999204,2.150827,19.576389,19.915068,0.000000,31.900207,-10.974842,2.111491,-0.199036,-0.419024,-1.253346,11.871592,-10.459439,-0.017974,-0.032461,-0.417541,-4.055050,-0.440809,6.892016,-2.337963,-3.607531,1,0,,38.990497,-76.939626,-10.702000,,,
2026-09-11T19:06:24.117,13.032616,2.072731,19.645431,19.191954,0.000000,31.666747,-10.894523,2.035374,-0.177066,-0.372770,-1.266574,11.886807,-10.527317,0.085281,-0.035004,-0.371286,-2.094112,-2.714971,7.240642,-2.448697,-3.694054,1,0,,38.990497,-76.939626,-10.702000,,,
2026-09-11T19:06:24.151,13.066039,1.995354,19.713014,18.475495,0.000000,30.305129,-10.426077,1.962409,-0.174090,-0.366506,-1.278929,11.900823,-10.592901,0.060584,0.066481,-0.365022,-1.817368,-2.343299,14.694383,-2.539409,-3.758112,1,0,,38.990497,-76.939626,-10.702000,,,
2026-09-11T19:06:24.185,13.099447,1.995733,19.779777,18.479011,0.000000,30.136215,-10.367964,1.963147,-0.153117,-0.322352,-1.290436,11.914086,-10.657352,0.015869,-0.052295,-0.320868,-0.067862,-12.864462,4.206563,-2.518280,-4.509380,1,1,13.099037,38.990496,-76.939602,-10.969000,14.302555,6.363315,4.294239
2026-09-11T19:06:24.218,13.132860,1.996191,19.845560,18.483246,0.000000,30.367614,-10.447574,1.963096,-0.177807,-0.374330,-1.302074,11.926547,-10.721983,-0.006254,0.033660,-0.372846,-1.429613,-1.922986,11.442399,-2.588239,-4.536159,1,0,,38.990496,-76.939602,-10.969000,,,
2026-09-11T19:06:24.251,13.166281,2.006176,19.912778,18.575708,0.000000,30.414306,-10.463637,1.972814,-0.168560,-0.354864,-1.314260,11.938032,-10.787003,-0.106495,0.146391,-0.353380,3.906479,-2.611805,6.570161,-2.314413,-4.609622,1,0,,38.990496,-76.939602,-10.969000,,,
2026-09-11T19:06:24.284,13.199693,2.054842,19.981751,19.026313,0.000000,30.725356,-10.570650,2.019970,-0.167404,-0.352429,-1.326076,11.949133,-10.853013,-0.119330,-0.027002,-0.350946,2.593467,0.081101,7.601821,-2.134884,-4.506728,1,0,,38.990496,-76.939602,-10.969000,,,
2026-09-11T19:06:24.318,13.233106,2.055562,20.050519,19.032983,0.000000,30.539275,-10.506631,2.021098,-0.169994,-0.357882,-1.337943,11.959624,-10.919942,-0.190225,-0.020372,-0.356399,-1.229950,-4.292371,10.648355,-2.214688,-4.688064,1,0,,38.990496,-76.939602,-10.969000,,,
2026-09-11T19:06:24.351,13.266526,2.026891,20.118376,18.767505,0.000000,28.829528,-9.918416,1.996597,-0.149428,-0.314586,-1.349179,11.969551,-10.986554,-0.016576,-0.004889,-0.313102,-1.220732,-1.471096,10.024358,-2.301355,-4.690468,1,0,,38.990496,-76.939602,-10.969000,,,
2026-09-11T19:06:24.386,13.299940,2.037065,20.187691,18.861709,0.000000,25.894119,-8.908527,2.012491,-0.127888,-0.269238,-1.358934,11.979429,-11.052965,0.097255,0.004780,-0.267755,1.004887,0.456107,4.987564,-2.252027,-4.573356,1,0,,38.990496,-76.939602,-10.969000,,,
2026-09-11T19:06:24.418,13.333352,2.066490,20.255729,19.134168,0.000000,24.956847,-8.586071,2.043330,-0.139179,-0.293009,-1.368326,11.988997,-11.120189,0.083284,-0.055110,-0.291525,-0.175441,1.410687,6.307441,-2.285414,-4.391946,1,0,,38.990496,-76.939602,-10.969000,,,
2026-09-11T19:06:24.452,13.366804,2.105405,20.325842,19.494488,0.000000,25.135375,-8.647491,2.081471,-0.165190,-0.347768,-1.379044,11.997512,-11.188839,0.090503,-0.101370,-0.346285,2.423321,0.130134,9.943747,-2.148976,-4.287408,1,0,,38.990496,-76.939602,-10.969000,,,
2026-09-11T19:06:24.485,13.400217,2.144274,20.397276,19.854387,0.000000,32.737914,-11.263044,2.102977,-0.184398,-0.388207,-1.391340,12.004670,-11.258621,-0.157775,-0.085886,-0.386724,0.038344,-6.132883,5.678443,-2.168444,-4.584514,1,0,,38.990496,-76.939602,-10.969000,,,
2026-09-11T19:06:24.518,13.433629,2.202782,20.470852,20.396131,0.000000,41.439086,-14.256566,2.134942,-0.253602,-0.533899,-1.406744,12.009555,-11.329618,-0.082274,-0.061005,-0.532415,0.121799,-2.688003,11.122114,-2.179127,-4.633828,1,0,,38.990496,-76.939602,-10.969000,,,
2026-09-11T19:06:24.552,13.467050,2.281094,20.547230,21.121244,0.000000,49.561416,-17.050946,2.180827,-0.323372,-0.680784,-1.427042,12.011073,-11.402348,-0.075391,-0.049935,-0.679301,-0.671756,-3.069972,6.003533,-2.235671,-4.685024,1,0,,38.990496,-76.939602,-10.969000,,,
2026-09-11T19:06:24.586,13.500461,2.339516,20.626480,21.662182,0.000000,58.697921,-20.194239,2.195700,-0.385799,-0.812208,-1.451983,12.008894,-11.476364,-0.095208,-0.444896,-0.810725,-2.637597,5.303633,0.914862,-2.417206,-4.172950,1,0,,38.990496,-76.939602,-10.969000,,,
2026-09-11T19:06:24.619,13.533873,2.310733,20.701992,21.395680,0.000000,59.019958,-20.305031,2.167141,-0.285878,-0.601847,-1.475607,12.005529,-11.550044,0.152258,0.059822,-0.600364,0.393443,-7.605646,13.166114,-2.398902,-4.535176,1,0,,38.990496,-76.939602,-10.969000,,,
2026-09-11T19:06:24.652,13.567290,2.350058,20.780763,21.759796,0.000000,62.690078,-21.567687,2.185516,-0.415383,-0.874491,-1.500274,11.999866,-11.623460,0.128962,-0.040438,-0.873008,-0.322933,-1.148849,-0.428845,-2.423039,-4.435087,1,0,,38.990496,-76.939602,-10.969000,,,
2026-09-11T19:06:24.686,13.600701,2.369828,20.860127,21.942853,0.000000,66.177551,-22.767506,2.185178,-0.450760,-0.948969,-1.530736,11.989455,-11.697144,0.060998,-0.177985,-0.947485,-3.373292,-10.136742,9.494308,-2.637753,-4.908893,1,0,,38.990496,-76.939602,-10.969000,,,
2026-09-11T19:06:24.719,13.634114,2.379848,20.939445,22.035627,0.000000,70.802108,-24.358523,2.168000,-0.499178,-1.050902,-1.564146,11.975294,-11.770197,-0.004254,-0.147282,-1.049418,1.198373,1.797559,16.435259,-2.548682,-4.589542,1,0,,38.990496,-76.939602,-10.969000,,,
2026-09-11T19:06:24.752,13.667532,2.409182,21.020153,22.307242,0.000000,70.967590,-24.415455,2.193734,-0.507695,-1.068832,-1.599566,11.957660,-11.842874,-0.093188,-0.195820,-1.067348,-0.398640,-0.324992,13.123259,-2.561200,-4.407240,1,0,,38.990496,-76.939602,-10.969000,,,
2026-09-11T19:06:24.786,13.700943,2.389843,21.100450,22.128178,0.000000,71.030761,-24.437188,2.175750,-0.503142,-1.059247,-1.635116,11.937404,-11.914993,-0.109163,-0.206298,-1.057763,-0.390010,-1.272021,10.897738,-2.568240,-4.291073,1,0,,38.990496,-76.939602,-10.969000,,,
2026-09-11T19:06:24.819,13.734353,2.371000,21.178834,21.953700,0.000000,70.990936,-24.423487,2.158829,-0.487106,-1.025485,-1.669941,11.915013,-11.985804,-0.176567,0.016632,-1.024002,-2.542276,-1.537879,1.267510,-2.712789,-4.199344,1,0,,38.990496,-76.939602,-10.969000,,,
2026-09-11T19:06:24.853,13.767773,2.332477,21.256762,21.597009,0.000000,70.167648,-24.140246,2.128495,-0.471839,-0.993345,-1.703676,11.890816,-12.055106,-0.221015,-0.037341,-0.991861,-0.491804,-2.961314,12.477786,-2.729447,-4.207418,1,0,,38.990496,-76.939602,-10.969000,,,
2026-09-11T19:06:24.886,13.801184,2.313299,21.333915,21.419434,0.000000,67.999908,-23.394464,2.123129,-0.440348,-0.927048,-1.735758,11.865211,-12.123084,-0.174955,-0.028392,-0.925564,0.617623,-0.456990,12.052373,-2.677762,-4.062453,1,0,,38.990496,-76.939602,-10.969000,,,
2026-09-11T19:06:24.919,13.834595,2.265448,21.409564,20.976367,0.000000,61.739761,-21.240743,2.111548,-0.397563,-0.836975,-1.765226,11.838799,-12.190188,-0.010312,0.065798,-0.835492,-3.102138,0.658909,10.168908,-2.867539,-3.859800,1,0,,38.990496,-76.939602,-10.969000,,,
2026-09-11T19:06:24.954,13.868016,2.217485,21.483140,20.532270,0.000000,56.383926,-19.398140,2.091606,-0.350452,-0.737794,-1.791541,11.812096,-12.256346,0.101790,-0.001457,-0.736311,-3.190692,-0.494746,6.234774,-3.061629,-3.748714,1,0,,38.990496,-76.939602,-10.969000,,,
2026-09-11T19:06:24.986,13.901426,2.208301,21.556876,20.447230,0.000000,56.220504,-19.341917,2.083662,-0.352051,-0.741160,-1.816247,11.784571,-12.321492,0.163279,-0.047317,-0.739676,-0.108167,0.742952,12.635476,-3.049246,-3.558614,1,0,,38.990496,-76.939602,-10.969000,,,
2026-09-11T19:06:25.019,13.934837,2.228200,21.631294,20.631479,0.000000,56.116821,-19.306246,2.102897,-0.354256,-0.745803,-1.841088,11.755325,-12.386102,0.131343,-0.306436,-0.744319,-6.360986,0.925650,7.527879,-3.436290,-3.357261,1,0,,38.990496,-76.939602,-10.969000,,,
2026-09-11T19:06:25.053,13.968252,2.218531,21.705098,20.541952,0.000000,57.523757,-19.790283,2.087500,-0.362446,-0.763043,-1.866297,11.724289,-12.449983,0.059302,-0.044095,-0.761560,1.268784,-0.740402,8.656232,-3.326639,-3.264518,1,0,,38.990496,-76.939602,-10.969000,,,
2026-09-11T19:06:25.086,14.001670,2.286411,21.781272,21.170476,0.000000,60.322524,-20.753162,2.138059,-0.427737,-0.900499,-1.894092,11.690212,-12.513190,0.021340,0.069267,-0.899015,-0.707354,-1.681154,12.935756,-3.348308,-3.212223,1,0,,38.990496,-76.939602,-10.969000,,,
2026-09-11T19:06:25.120,14.035079,2.325874,21.859291,21.535869,0.000000,60.862228,-20.938840,2.172279,-0.426307,-0.897487,-1.924127,11.652853,-12.576367,-0.016127,0.071534,-0.896004,-0.474642,3.410851,15.785667,-3.353585,-2.829126,1,0,,38.990496,-76.939602,-10.969000,,,
2026-09-11T19:06:25.153,14.068489,2.335943,21.937971,21.629101,0.000000,60.391876,-20.777021,2.184032,-0.423492,-0.891563,-1.954014,11.613411,-12.639142,0.037518,-0.165019,-0.890080,4.834777,-11.538407,-7.725973,-3.012935,-3.418825,1,0,,38.990496,-76.939602,-10.969000,,,
2026-09-11T19:06:25.187,14.101910,2.345883,22.016787,21.721140,0.000000,60.271026,-20.735445,2.193929,-0.431949,-0.909366,-1.984108,11.571866,-12.701021,0.176071,0.041989,-0.907882,-0.331465,-2.278379,12.729915,-3.008068,-3.398995,1,1,14.077631,38.990486,-76.939582,-10.776000,16.004002,5.329202,4.294620
2026-09-11T19:06:25.219,14.135321,2.326974,22.093690,21.546057,0.000000,60.325271,-20.754107,2.175976,-0.420342,-0.884931,-2.014082,11.528604,-12.761511,-0.016085,-0.107004,-0.883447,-2.832161,-8.113630,5.938809,-3.162708,-3.762086,1,0,,38.990486,-76.939582,-10.776000,,,
2026-09-11T19:06:25.254,14.168728,2.278897,22.170980,21.100899,0.000000,60.978957,-20.978999,2.127833,-0.425369,-0.895514,-2.043822,11.484154,-12.819736,0.051209,0.011174,-0.894030,-1.367930,-4.292469,9.876964,-3.219075,-3.874822,1,0,,38.990486,-76.939582,-10.776000,,,
2026-09-11T19:06:25.287,14.202150,2.250479,22.246151,20.837769,0.000000,61.002303,-20.987031,2.101186,-0.433462,-0.912551,-2.074036,11.438348,-12.875417,0.042425,0.001582,-0.911068,-2.199141,-1.032542,8.681827,-3.329249,-3.774170,1,0,,38.990486,-76.939582,-10.776000,,,
2026-09-11T19:06:25.321,14.235560,2.261027,22.321640,20.935435,0.000000,60.469466,-20.803716,2.113614,-0.407496,-0.857887,-2.103612,11.391277,-12.929631,-0.017936,-0.029427,-0.856403,-0.623016,-3.986796,8.658782,-3.334882,-3.872949,1,0,,38.990486,-76.939582,-10.776000,,,
2026-09-11T19:06:25.354,14.268971,2.232099,22.395831,20.667580,0.000000,60.157043,-20.696230,2.088055,-0.408497,-0.859995,-2.132310,11.343129,-12.982479,0.013973,-0.044029,-0.858511,-0.508279,-1.497279,9.560994,-3.330164,-3.810371,1,0,,38.990486,-76.939582,-10.776000,,,
2026-09-11T19:06:25.387,14.302391,2.203113,22.469681,20.399192,0.000000,60.130264,-20.687017,2.061065,-0.402876,-0.848160,-2.160853,11.294015,-13.033250,-0.094022,0.011683,-0.846676,0.470131,-2.716638,15.183146,-3.263587,-3.830631,1,0,,38.990486,-76.939582,-10.776000,,,
2026-09-11T19:06:25.421,14.335803,2.174139,22.541525,20.130914,0.000000,59.840499,-20.587328,2.035292,-0.382708,-0.805700,-2.188483,11.244360,-13.082131,-0.238574,0.061809,-0.804217,0.862593,0.737558,12.987437,-3.175810,-3.633755,1,0,,38.990486,-76.939582,-10.776000,,,
2026-09-11T19:06:25.455,14.369214,2.126046,22.613095,19.685612,0.000000,58.958846,-20.284007,1.994201,-0.368691,-0.776193,-2.214909,11.194527,-13.129086,-0.195575,0.010230,-0.774709,-0.040992,-3.834989,9.078703,-3.154751,-3.741433,1,0,,38.990486,-76.939582,-10.776000,,,
2026-09-11T19:06:25.487,14.402635,2.097054,22.684188,19.417168,0.000000,58.040115,-19.967929,1.970987,-0.343512,-0.723183,-2.239964,11.144656,-13.174307,-0.127882,-0.008109,-0.721700,-0.102381,1.150908,7.289185,-3.147607,-3.532614,1,0,,38.990486,-76.939582,-10.776000,,,
2026-09-11T19:06:25.521,14.436047,2.087810,22.753503,19.331576,0.000000,54.429046,-18.725589,1.977296,-0.309837,-0.652288,-2.262943,11.094663,-13.218700,-0.053232,0.031045,-0.650804,0.458265,-0.605168,8.644562,-3.112771,-3.448801,1,0,,38.990486,-76.939582,-10.776000,,,
2026-09-11T19:06:25.554,14.469457,2.078347,22.823045,19.243953,0.000000,50.344192,-17.320249,1.984106,-0.290681,-0.611961,-2.284062,11.044240,-13.262714,-0.003792,0.045322,-0.610477,0.421882,-2.257785,8.420186,-3.083720,-3.477915,1,0,,38.990486,-76.939582,-10.776000,,,
2026-09-11T19:06:25.589,14.502876,2.069240,22.892816,19.159629,0.000000,45.509521,-15.656945,1.992460,-0.275862,-0.580763,-2.303992,10.993168,-13.306260,0.005704,0.018121,-0.579279,0.781002,-1.849142,10.926275,-3.032851,-3.483923,1,0,,38.990486,-76.939582,-10.776000,,,
2026-09-11T19:06:25.621,14.536283,2.098851,22.962586,19.433809,0.000000,44.461013,-15.296220,2.024499,-0.254994,-0.536829,-2.322660,10.941262,-13.349698,0.033752,0.047616,-0.535345,-1.433340,-0.169067,-1.159244,-3.126783,-3.385557,1,0,,38.990486,-76.939582,-10.776000,,,
2026-09-11T19:06:25.655,14.569695,2.128706,23.033724,19.710239,0.000000,42.287093,-14.548312,2.060451,-0.244555,-0.514852,-2.340229,10.888168,-13.393374,0.062452,0.099528,-0.513369,-1.330468,1.148653,3.034079,-3.211858,-3.204583,1,0,,38.990486,-76.939582,-10.776000,,,
2026-09-11T19:06:25.688,14.603116,2.167573,23.106594,20.070121,0.000000,41.850387,-14.398069,2.099493,-0.254971,-0.536781,-2.357802,10.833423,-13.437013,-0.040534,0.025240,-0.535298,1.084812,-1.189252,5.477799,-3.141925,-3.172809,1,0,,38.990486,-76.939582,-10.776000,,,
2026-09-11T19:06:25.721,14.636528,2.235458,23.181013,20.698682,0.000000,41.914245,-14.420038,2.165032,-0.273103,-0.574953,-2.376375,10.776329,-13.480521,0.002536,0.074784,-0.573469,-0.175735,-1.218869,5.671676,-3.156925,-3.135681,1,0,,38.990486,-76.939582,-10.776000,,,
2026-09-11T19:06:25.755,14.669938,2.255162,23.256799,20.881132,0.000000,42.004882,-14.451221,2.183810,-0.273134,-0.575018,-2.395585,10.717195,-13.523692,-0.026992,0.008531,-0.573535,-0.758054,-3.888435,9.035455,-3.207102,-3.271208,1,0,,38.990486,-76.939582,-10.776000,,,
2026-09-11T19:06:25.788,14.703355,2.294297,23.333656,21.243487,0.000000,41.919738,-14.421928,2.221999,-0.281222,-0.592047,-2.415085,10.656426,-13.566256,0.032752,0.041883,-0.590563,1.087263,0.259484,10.684640,-3.132841,-3.132600,1,0,,38.990486,-76.939582,-10.776000,,,
2026-09-11T19:06:25.822,14.736767,2.284778,23.410057,21.155350,0.000000,40.738021,-14.015374,2.216762,-0.261327,-0.550162,-2.434167,10.594575,-13.608150,0.093600,0.059371,-0.548678,0.830819,-0.758250,6.850926,-3.073152,-3.067714,1,0,,38.990486,-76.939582,-10.776000,,,
2026-09-11T19:06:25.855,14.770177,2.285316,23.486321,21.160334,0.000000,38.016845,-13.079190,2.226031,-0.252609,-0.531808,-2.452241,10.532213,-13.649294,0.029840,0.036744,-0.530325,0.007257,0.361865,8.292896,-3.065093,-2.933313,1,0,,38.990486,-76.939582,-10.776000,,,
2026-09-11T19:06:25.889,14.803595,2.227580,23.560763,20.625740,0.000000,34.850723,-11.989927,2.178983,-0.240759,-0.506861,-2.469596,10.469831,-13.689211,0.089377,0.077590,-0.505378,-1.916023,-0.320776,10.299140,-3.177343,-2.849753,1,0,,38.990486,-76.939582,-10.776000,,,
2026-09-11T19:06:25.922,14.837008,2.199255,23.633450,20.363471,0.000000,33.414260,-11.495732,2.155137,-0.213828,-0.450164,-2.485585,10.408128,-13.727857,0.070940,0.005433,-0.448680,0.556920,-1.456386,5.154866,-3.122374,-2.849384,1,0,,38.990486,-76.939582,-10.776000,,,
2026-09-11T19:06:25.955,14.870421,2.190070,23.706753,20.278430,0.000000,33.136855,-11.400294,2.146861,-0.220244,-0.463672,-2.500852,10.346465,-13.765479,0.072524,-0.038046,-0.462188,1.645066,0.476603,7.601233,-2.991081,-2.722187,1,0,,38.990486,-76.939582,-10.776000,,,
2026-09-11T19:06:25.989,14.903840,2.170940,23.779736,20.101299,0.000000,32.141219,-11.057759,2.130635,-0.190613,-0.401291,-2.515305,10.284797,-13.802260,0.006993,0.223981,-0.399808,1.826979,-1.577007,14.755870,-2.845515,-2.738504,1,0,,38.990486,-76.939582,-10.776000,,,
2026-09-11T19:06:26.022,14.937250,2.132338,23.850623,19.743872,0.000000,31.724426,-10.914367,2.093767,-0.182164,-0.383504,-2.528415,10.223737,-13.838181,-0.115034,-0.100817,-0.382020,1.067062,4.814771,4.822224,-2.749647,-2.344142,1,0,,38.990486,-76.939582,-10.776000,,,
2026-09-11T19:06:26.055,14.970663,2.113156,23.921442,19.566262,0.000000,31.834975,-10.952400,2.074666,-0.170823,-0.359627,-2.540830,10.163174,-13.873060,-0.105121,-0.202922,-0.358143,-0.057173,-0.310479,9.625717,-2.727983,-2.289689,1,0,,38.990486,-76.939582,-10.776000,,,
2026-09-11T19:06:26.089,15.004080,2.103800,23.991964,19.479627,0.000000,32.208511,-11.080910,2.064578,-0.184563,-0.388554,-2.553331,10.102557,-13.906878,-0.167755,-0.066108,-0.387071,-1.653107,0.537306,9.612871,-2.810523,-2.177311,1,0,,38.990486,-76.939582,-10.776000,,,
