timestamp,time_s,speed_mps,distance_m,wheel_omega_rad_s,motor_current_A,steer_motor_deg,steer_column_deg,vx_mps,vy_mps,yaw_rate_rad_s,heading_rad,x_m,y_m,gyro_x_rad_s,gyro_y_rad_s,gyro_z_rad_s,accel_x_mps2,accel_y_mps2,accel_z_mps2,grade_deg,bank_deg,moving,gps_new_fix,gps_time_s,gps_latitude_deg,gps_longitude_deg,gps_altitude_m,gps_east_m,gps_north_m,gps_sigma_m
2026-09-11T19:19:29.026,0.000007,0.009820,0.000034,0.090922,0.000000,22.564436,-7.762994,0.009730,-0.002373,-0.004996,0.000000,0.000000,0.000000,0.032952,0.000634,-0.003512,0.202507,0.677149,9.712997,-0.462935,2.881537,0,1,-0.272936,38.990211,-76.938747,-11.361000,0.000000,0.000000,3.228018
2026-09-11T19:19:29.060,0.033421,0.009820,0.000363,0.090922,0.000000,22.564436,-7.762994,0.009730,0.000550,0.001158,-0.000064,0.000325,-0.000030,0.031844,0.000348,0.002641,0.317441,0.591145,9.646704,-0.455498,2.875956,0,0,,38.990211,-76.938747,-11.361000,,,
2026-09-11T19:19:29.094,0.066835,0.009820,0.000693,0.090922,0.000000,22.564436,-7.762994,0.009730,0.000099,0.000209,-0.000041,0.000650,-0.000020,0.019458,-0.000398,0.001692,0.285570,0.610562,9.632778,-0.450206,2.871696,0,0,,38.990211,-76.938747,-11.361000,,,
2026-09-11T19:19:29.127,0.100276,0.009820,0.001022,0.090922,0.000000,22.505384,-7.742678,0.009730,-0.000281,-0.000591,-0.000048,0.000976,-0.000023,-0.004284,0.000934,0.000892,0.347646,0.642924,9.677497,-0.440949,2.869582,0,0,,38.990211,-76.938747,-11.361000,,,
2026-09-11T19:19:29.162,0.133693,0.009820,0.001351,0.090922,0.000000,22.388655,-7.702519,0.009731,0.000372,0.000784,-0.000044,0.001301,-0.000021,-0.017831,-0.000071,0.002268,0.350686,0.588203,9.668180,-0.431605,2.863942,0,0,,38.990211,-76.938747,-11.361000,,,
2026-09-11T19:19:29.195,0.167112,0.009820,0.001677,0.090922,0.000000,22.037092,-7.581568,0.009734,-0.000005,-0.000010,-0.000032,0.001626,-0.000015,-0.016577,-0.000402,0.001473,0.341369,0.651162,9.693285,-0.422967,2.862448,0,0,,38.990211,-76.938747,-11.361000,,,
2026-09-11T19:19:29.229,0.200529,0.009820,0.002007,0.090922,0.000000,21.690336,-7.462272,0.009736,0.002444,0.005145,0.000054,0.001951,0.000026,-0.028545,0.000343,0.006628,0.334897,0.583398,9.626600,-0.414845,2.856574,0,0,,38.990211,-76.938747,-11.361000,,,
2026-09-11T19:19:29.262,0.234051,0.009820,0.002337,0.090922,0.000000,21.685530,-7.460618,0.009736,-0.000685,-0.001442,0.000116,0.002278,0.000055,-0.048063,-0.000916,0.000041,0.309008,0.604090,9.765756,-0.408468,2.852096,0,0,,38.990211,-76.938747,-11.361000,,,
2026-09-11T19:19:29.295,0.267476,0.009820,0.002663,0.090922,0.000000,21.685530,-7.460618,0.009736,-0.000598,-0.001260,0.000071,0.002603,0.000034,-0.046881,-0.000237,0.000224,0.316951,0.614877,9.714958,-0.402901,2.848381,0,0,,38.990211,-76.938747,-11.361000,,,
2026-09-11T19:19:29.330,0.300905,0.009820,0.002991,0.090922,0.000000,21.685530,-7.460618,0.009736,0.000615,0.001294,0.000072,0.002929,0.000034,-0.022056,0.001451,0.002777,0.334309,0.547309,9.722313,-0.397507,2.840321,0,0,,38.990211,-76.938747,-11.361000,,,
2026-09-11T19:19:29.363,0.334320,0.009820,0.003320,0.090922,0.000000,21.469236,-7.386205,0.009738,0.001052,0.002215,0.000130,0.003254,0.000062,-0.007115,0.000316,0.003698,0.408545,0.532795,9.614832,-0.387371,2.831413,0,0,,38.990211,-76.938747,-11.361000,,,
2026-09-11T19:19:29.396,0.367736,0.009820,0.003647,0.090922,0.000000,20.821043,-7.163203,0.009743,0.000445,0.000936,0.000183,0.003579,0.000087,0.016951,0.001381,0.002420,0.398346,0.434042,9.678477,-0.378005,2.816200,0,0,,38.990211,-76.938747,-11.361000,,,
2026-09-11T19:19:29.430,0.401155,0.009820,0.003976,0.090922,0.000000,19.856306,-6.831298,0.009750,-0.000058,-0.000122,0.000197,0.003905,0.000094,0.038203,0.000141,0.001361,0.385696,0.450714,9.636113,-0.369562,2.802236,0,0,,38.990211,-76.938747,-11.361000,,,
2026-09-11T19:19:29.463,0.434566,0.009820,0.004302,0.090922,0.000000,19.351622,-6.657668,0.009753,0.000278,0.000585,0.000204,0.004231,0.000097,0.039297,-0.000044,0.002068,0.383048,0.448948,9.652097,-0.370720,2.788316,0,0,,38.990211,-76.938747,-11.361000,,,
2026-09-11T19:19:29.497,0.467988,0.009820,0.004631,0.090922,0.000000,19.268537,-6.629084,0.009754,-0.003036,-0.006392,0.000107,0.004557,0.000051,0.032006,0.001873,-0.004909,0.529559,0.512594,9.687205,-0.366075,2.778678,0,0,,38.990211,-76.938747,-11.361000,,,
2026-09-11T19:19:29.530,0.501410,0.009820,0.004959,0.090922,0.000000,19.406553,-6.676566,0.009753,-0.003259,-0.006862,-0.000114,0.004883,-0.000054,0.008919,-0.001685,-0.005378,0.561627,0.582123,9.768306,-0.349361,2.773656,0,0,,38.990211,-76.938747,-11.361000,,,
2026-09-11T19:19:29.563,0.534827,0.029107,0.005962,0.269505,0.000000,20.130278,-6.925554,0.028894,-0.007026,-0.014792,-0.000476,0.005529,-0.000226,0.004448,-0.003065,-0.013308,0.423157,0.456303,9.795176,-0.337402,2.760554,0,0,,38.990211,-76.938747,-11.361000,,,
2026-09-11T19:19:29.597,0.568246,0.029107,0.006930,0.269505,0.000000,20.788084,-7.151864,0.028880,-0.002851,-0.006001,-0.000823,0.006494,-0.000392,-0.015134,0.001389,-0.004518,0.494549,0.454734,9.657589,-0.320955,2.747480,0,0,,38.990211,-76.938747,-11.361000,,,
2026-09-11T19:19:29.630,0.601664,0.029107,0.007901,0.269505,0.000000,21.005064,-7.226513,0.028875,-0.004047,-0.008520,-0.001066,0.007459,-0.000508,-0.013645,-0.000100,-0.007036,0.488862,0.529657,9.684459,-0.305057,2.739414,0,0,,38.990211,-76.938747,-11.361000,,,
2026-09-11T19:19:29.663,0.635088,0.029107,0.008876,0.269505,0.000000,21.092955,-7.256750,0.028873,-0.004068,-0.008565,-0.001352,0.008424,-0.000645,-0.010729,-0.002571,-0.007081,0.426295,0.717455,9.686323,-0.310636,2.743615,0,0,,38.990211,-76.938747,-11.361000,,,
2026-09-11T19:19:29.697,0.668510,0.029107,0.009848,0.269505,0.000000,21.092955,-7.256750,0.028873,-0.002247,-0.004730,-0.001574,0.009389,-0.000752,-0.012435,-0.001047,-0.003247,0.472190,0.479251,9.617088,-0.316742,2.732315,0,0,,38.990211,-76.938747,-11.361000,,,
2026-09-11T19:19:29.731,0.701929,0.174975,0.017580,1.620137,0.000000,21.092955,-7.256750,0.173573,-0.003609,-0.007597,-0.001780,0.012771,-0.000855,-0.010330,-0.003033,-0.006114,0.523381,0.603011,9.644546,-0.302041,2.729243,0,0,,38.990211,-76.938747,-11.361000,,,
2026-09-11T19:19:29.763,0.735342,0.086741,0.020911,0.803156,0.000000,21.092955,-7.256750,0.086046,-0.003144,-0.006619,-0.002017,0.017108,-0.000976,-0.015218,-0.001434,-0.005136,0.416881,0.713140,9.870491,-0.291287,2.733297,0,1,0.727932,38.990211,-76.938747,-11.431000,-0.018870,-0.004262,3.227493
2026-09-11T19:19:29.797,0.768756,0.018114,0.020948,0.167726,0.000000,21.092955,-7.256750,0.017969,-0.003868,-0.008143,-0.002264,0.018846,-0.001097,-0.022643,0.001186,-0.006659,0.522106,0.453067,9.688382,-0.273230,2.720416,0,0,,38.990211,-76.938747,-11.431000,,,
2026-09-11T19:19:29.830,0.802176,0.018114,0.021421,0.167726,0.000000,21.026350,-7.233836,0.017970,-0.003064,-0.006451,-0.002508,0.019446,-0.001214,-0.029283,-0.002442,-0.004968,0.424726,0.758937,9.663375,-0.277484,2.727509,0,0,,38.990211,-76.938747,-11.431000,,,
2026-09-11T19:19:29.863,0.835589,0.018114,0.022023,0.167726,0.000000,21.026350,-7.233836,0.017970,-0.003925,-0.008262,-0.002754,0.020046,-0.001333,-0.037540,-0.001367,-0.006779,0.275077,0.385009,9.696227,-0.296038,2.710282,0,0,,38.990211,-76.938747,-11.431000,,,
2026-09-11T19:19:29.897,0.869006,0.018114,0.022630,0.167726,0.000000,21.026350,-7.233836,0.017970,-0.004332,-0.009121,-0.003044,0.020646,-0.001472,-0.044506,0.003165,-0.007637,0.156710,0.531717,9.573938,-0.307187,2.702756,0,0,,38.990211,-76.938747,-11.431000,,,
2026-09-11T19:19:29.930,0.902424,0.287527,0.034062,2.662286,0.000000,21.026350,-7.233836,0.285238,-0.002084,-0.004388,-0.003270,0.025712,-0.001596,-0.025967,0.001020,-0.002904,0.154259,0.575846,9.706622,-0.329688,2.698246,0,0,,38.990211,-76.938747,-11.431000,,,
2026-09-11T19:19:29.964,0.935842,0.073714,0.036396,0.682538,0.000000,21.026350,-7.233836,0.073127,-0.005243,-0.011038,-0.003528,0.031700,-0.001738,-0.009843,0.003124,-0.009555,0.432571,0.374222,9.798315,-0.333960,2.680684,0,0,,38.990211,-76.938747,-11.431000,,,
2026-09-11T19:19:29.997,0.969259,0.015402,0.036316,0.142608,0.000000,21.026350,-7.233836,0.015279,-0.005468,-0.011511,-0.003904,0.033176,-0.001923,0.002581,0.004617,-0.010028,0.411291,0.764232,9.712899,-0.326393,2.688564,0,0,,38.990211,-76.938747,-11.431000,,,
2026-09-11T19:19:30.031,1.002675,0.025120,0.037323,0.232596,0.000000,21.026350,-7.233836,0.024920,-0.004447,-0.009362,-0.004253,0.033847,-0.002091,0.031182,0.004753,-0.007879,0.551722,0.392658,9.662198,-0.321643,2.672268,0,0,,38.990211,-76.938747,-11.431000,,,
2026-09-11T19:19:30.064,1.036093,0.025120,0.038159,0.232596,0.000000,19.740263,-6.791375,0.024944,-0.003607,-0.007593,-0.004536,0.034680,-0.002229,0.054021,0.005753,-0.006109,0.718631,0.645866,9.756440,-0.314855,2.672567,0,0,,38.990211,-76.938747,-11.431000,,,
2026-09-11T19:19:30.097,1.069517,0.290249,0.048376,2.687493,0.000000,16.060530,-5.525412,0.288901,0.004375,0.009211,-0.004509,0.039925,-0.002240,0.074257,-0.000336,0.010695,0.662733,0.843470,9.691030,-0.311125,2.685492,0,0,,38.990211,-76.938747,-11.431000,,,
2026-09-11T19:19:30.131,1.102933,0.097379,0.051930,0.901661,0.000000,10.017362,-3.446340,0.097203,0.004981,0.010487,-0.004180,0.046376,-0.002112,0.070887,0.006592,0.011970,0.562313,0.584182,9.872061,-0.315135,2.681566,0,0,,38.990211,-76.938747,-11.431000,,,
2026-09-11T19:19:30.164,1.136356,0.058805,0.053335,0.544495,0.000000,8.528715,-2.934191,0.058728,0.007260,0.015284,-0.003750,0.048983,-0.001918,0.021894,0.007992,0.016768,0.808951,0.503277,9.441058,-0.287021,2.672445,0,0,,38.990211,-76.938747,-11.431000,,,
2026-09-11T19:19:30.198,1.169778,0.272746,0.059857,2.525422,0.000000,7.309919,-2.514880,0.272483,-0.001182,-0.002488,-0.003536,0.054518,-0.001836,-0.048817,0.006856,-0.001004,0.708825,0.585849,9.801060,-0.265165,2.668882,0,0,,38.990211,-76.938747,-11.431000,,,
2026-09-11T19:19:30.231,1.203193,0.204119,0.067627,1.889992,0.000000,7.024961,-2.416845,0.203938,0.003208,0.006754,-0.003464,0.062478,-0.001830,-0.087510,0.013578,0.008238,0.527402,0.665872,9.837933,-0.273938,2.670413,0,0,,38.990211,-76.938747,-11.431000,,,
2026-09-11T19:19:30.264,1.236614,0.125689,0.070478,1.163787,0.000000,4.870954,-1.675787,0.125635,0.008936,0.018813,-0.003037,0.067986,-0.001646,-0.105790,0.014341,0.020297,0.853375,0.263505,9.731139,-0.265303,2.645774,0,0,,38.990211,-76.938747,-11.431000,,,
2026-09-11T19:19:30.298,1.270037,0.231530,0.078007,2.143792,0.000000,-3.549385,1.221119,0.231477,0.016281,0.034276,-0.002150,0.073955,-0.001239,-0.052482,0.001510,0.035760,0.326856,1.430986,9.779388,-0.294041,2.696753,0,0,,38.990211,-76.938747,-11.431000,,,
2026-09-11T19:19:30.331,1.303457,0.192654,0.084583,1.783838,0.000000,-5.664253,1.948711,0.192543,0.026165,0.055085,-0.000657,0.081041,-0.000540,-0.028294,0.009928,0.056568,0.093163,0.673325,9.217761,-0.321864,2.697860,0,0,,38.990211,-76.938747,-11.431000,,,
2026-09-11T19:19:30.365,1.336877,0.222113,0.091701,2.056604,0.000000,-11.002922,3.785409,0.221629,0.020090,0.042295,0.000970,0.087962,0.000234,-0.022708,0.011150,0.043778,0.738245,0.640472,9.847446,-0.303630,2.696906,0,0,,38.990211,-76.938747,-11.431000,,,
2026-09-11T19:19:30.398,1.370299,0.212470,0.098907,1.967313,0.000000,-18.680992,6.426947,0.211134,0.025813,0.054343,0.002585,0.095192,0.001014,0.069704,0.012541,0.055827,0.853963,0.586045,10.099673,-0.292400,2.692296,0,0,,38.990211,-76.938747,-11.431000,,,
2026-09-11T19:19:30.432,1.403717,0.241643,0.106653,2.237439,0.000000,-23.157234,7.966938,0.239311,0.031253,0.065796,0.004593,0.102715,0.001995,0.092297,0.016375,0.067280,0.808558,-0.565550,9.617284,-0.269842,2.612797,0,0,,38.990211,-76.938747,-11.431000,,,
2026-09-11T19:19:30.465,1.437136,0.261251,0.115175,2.418990,0.000000,-26.698265,9.185183,0.257901,0.015063,0.031711,0.006222,0.111020,0.002814,0.070743,0.018525,0.033195,0.685387,-0.209764,9.975521,-0.247428,2.557738,0,0,,38.990211,-76.938747,-11.431000,,,
2026-09-11T19:19:30.499,1.470558,0.261251,0.123889,2.418990,0.000000,-25.388832,8.734690,0.258221,0.005003,0.010532,0.006928,0.119642,0.003206,-0.029627,0.005158,0.012015,0.900054,0.390991,9.075270,-0.222812,2.542592,0,0,,38.990211,-76.938747,-11.431000,,,
2026-09-11T19:19:30.532,1.503977,0.270970,0.132915,2.508979,0.000000,-23.077583,7.939535,0.268372,0.010402,0.021898,0.007470,0.128439,0.003527,-0.060856,-0.016902,0.023382,0.096399,1.116193,11.017085,-0.250031,2.574426,0,0,,38.990211,-76.938747,-11.431000,,,
2026-09-11T19:19:30.565,1.537396,0.320068,0.143891,2.963589,0.000000,-21.411094,7.366202,0.317426,0.019148,0.040312,0.008509,0.138223,0.004099,-0.056575,-0.047856,0.041796,-0.124544,1.024108,8.317020,-0.288243,2.599489,0,0,,38.990211,-76.938747,-11.431000,,,
2026-09-11T19:19:30.599,1.570822,0.291218,0.152775,2.696465,0.000000,-21.342430,7.342579,0.288830,0.016184,0.034072,0.009753,0.148350,0.004782,0.019930,-0.021160,0.035555,0.980567,0.818659,8.979557,-0.257741,2.611149,0,0,,38.990211,-76.938747,-11.431000,,,
2026-09-11T19:19:30.632,1.604241,0.330433,0.163801,3.059568,0.000000,-21.205101,7.295333,0.327758,0.016634,0.035020,0.010907,0.158646,0.005437,-0.020560,-0.005094,0.036503,0.082866,0.005296,10.915096,-0.286452,2.569838,0,0,,38.990211,-76.938747,-11.431000,,,
2026-09-11T19:19:30.665,1.637659,0.282324,0.173040,2.614110,0.000000,-21.138496,7.272418,0.280053,0.021913,0.046133,0.012263,0.168794,0.006198,-0.022904,0.003583,0.047617,0.340487,0.400307,9.739867,-0.298326,2.554502,1,0,,38.990211,-76.938747,-11.431000,,,
2026-09-11T19:19:30.699,1.671082,0.282324,0.182461,2.614110,0.000000,-21.205101,7.295333,0.280038,0.023294,0.049040,0.013854,0.178143,0.007076,-0.014173,-0.014459,0.050524,0.675090,1.705965,10.523320,-0.289835,2.623939,1,0,,38.990211,-76.938747,-11.431000,,,
2026-09-11T19:19:30.734,1.704497,0.302315,0.193452,2.799216,0.000000,-19.831810,6.822870,0.300174,0.014735,0.031022,0.015191,0.187827,0.007852,-0.013254,-0.016486,0.032505,0.393443,0.233791,9.412129,-0.300363,2.597444,1,0,,38.990211,-76.938747,-11.431000,,,
2026-09-11T19:19:30.766,1.737916,0.312040,0.203860,2.889258,0.000000,-16.714439,5.750380,0.310470,0.005847,0.012309,0.015915,0.198024,0.008355,-0.030351,-0.018296,0.013792,0.140235,1.177288,9.517844,-0.326511,2.632767,1,1,1.728677,38.990210,-76.938749,-11.490000,-0.155424,-0.121017,3.328111
2026-09-11T19:19:30.800,1.771337,0.322026,0.215065,2.981718,0.000000,-14.999199,5.160275,0.320720,0.010528,0.022163,0.016491,0.208566,0.008799,-0.084487,0.007632,0.023647,0.922119,1.347728,9.544813,-0.299842,2.678541,1,0,,38.990210,-76.938749,-11.490000,,,
2026-09-11T19:19:30.833,1.804755,0.331744,0.225902,3.071706,0.000000,-12.196312,4.195979,0.330855,0.000458,0.000965,0.016878,0.219448,0.009165,-0.069353,-0.014324,0.002448,1.079418,0.674403,9.776544,-0.262622,2.680587,1,0,,38.990210,-76.938749,-11.490000,,,
2026-09-11T19:19:30.866,1.838173,0.361379,0.238558,3.346103,0.000000,-7.311516,2.515430,0.361031,0.001889,0.003976,0.016960,0.231007,0.009399,-0.061453,0.001219,0.005459,0.900349,-0.167007,10.005627,-0.238654,2.627984,1,0,,38.990210,-76.938749,-11.490000,,,
2026-09-11T19:19:30.900,1.871593,0.361379,0.250471,3.346103,0.000000,-2.306556,0.793540,0.361344,0.008666,0.018245,0.017332,0.243073,0.009783,-0.055312,-0.026832,0.019729,1.206904,-1.041074,9.943747,-0.196334,2.518964,1,0,,38.990210,-76.938749,-11.490000,,,
2026-09-11T19:19:30.933,1.905010,0.381169,0.263586,3.529339,0.000000,-2.623100,0.902443,0.381121,-0.003627,-0.007635,0.017509,0.255475,0.010083,-0.040066,0.035445,-0.006152,1.081674,0.864750,8.000461,-0.165085,2.535326,1,0,,38.990210,-76.938749,-11.490000,,,
2026-09-11T19:19:30.967,1.938425,0.430166,0.276722,3.983016,0.000000,-2.588081,0.890395,0.430114,0.006687,0.014079,0.017617,0.269026,0.010372,-0.009515,-0.009183,0.015562,0.406290,-0.164458,9.823518,-0.179150,2.484211,1,0,,38.990210,-76.938749,-11.490000,,,
2026-09-11T19:19:31.000,1.971848,0.410879,0.291177,3.804433,0.000000,-2.417793,0.831810,0.410835,-0.000082,-0.000172,0.017849,0.283075,0.010732,0.012219,-0.009774,0.001312,0.133959,0.816894,9.205503,-0.208139,2.497674,1,0,,38.990210,-76.938749,-11.490000,,,
2026-09-11T19:19:31.033,2.005263,0.430566,0.305300,3.986718,0.000000,-2.396507,0.824486,0.430521,0.004099,0.008629,0.017990,0.297129,0.011051,0.013909,0.002295,0.010113,1.435399,-0.966445,11.883208,-0.150051,2.395150,1,0,,38.990210,-76.938749,-11.490000,,,
2026-09-11T19:19:31.066,2.038690,0.440284,0.319938,4.076706,0.000000,-2.373848,0.816691,0.440240,0.004703,0.009902,0.018300,0.311677,0.011462,-0.009677,0.001557,0.011385,1.253388,3.125968,10.064467,-0.107508,2.559039,1,0,,38.990210,-76.938749,-11.490000,,,
2026-09-11T19:19:31.100,2.072105,0.440636,0.334979,4.079967,0.000000,-2.423286,0.833699,0.440590,-0.008152,-0.017163,0.018179,0.326392,0.011673,0.004435,0.009017,-0.015679,0.087279,-0.324404,8.527667,-0.137724,2.498177,1,0,,38.990210,-76.938749,-11.490000,,,
2026-09-11T19:19:31.133,2.105522,0.470048,0.350510,4.352295,0.000000,-2.660179,0.915199,0.469988,0.007409,0.015598,0.018152,0.341604,0.011937,0.018194,-0.012323,0.017082,0.527598,2.412926,11.146631,-0.131547,2.614469,1,0,,38.990210,-76.938749,-11.490000,,,
2026-09-11T19:19:31.170,2.138938,0.450804,0.365429,4.174112,0.000000,-2.616234,0.900080,0.450749,0.008352,0.017584,0.018707,0.356980,0.012483,-0.006994,-0.001856,0.019067,0.471111,0.388932,8.625635,-0.127242,2.598225,1,0,,38.990210,-76.938749,-11.490000,,,
2026-09-11T19:19:31.201,2.172363,0.460976,0.381456,4.268296,0.000000,-2.704124,0.930318,0.460915,-0.000547,-0.001152,0.018981,0.372211,0.012901,-0.015501,0.015067,0.000331,0.349607,-1.383032,10.400443,-0.127068,2.467811,1,0,,38.990210,-76.938749,-11.490000,,,
2026-09-11T19:19:31.234,2.205779,0.490466,0.397206,4.541356,0.000000,-2.542762,0.874804,0.490409,0.004302,0.009057,0.019114,0.388102,0.013266,-0.040485,0.003765,0.010541,1.076770,1.657814,9.894125,-0.078592,2.535670,1,0,,38.990210,-76.938749,-11.490000,,,
2026-09-11T19:19:31.267,2.239197,0.451882,0.412081,4.184094,0.000000,-2.461738,0.846928,0.451833,0.013525,0.028473,0.019741,0.403837,0.013870,-0.011374,0.017031,0.029957,0.323031,-1.597699,9.998370,-0.081350,2.391202,1,0,,38.990210,-76.938749,-11.490000,,,
2026-09-11T19:19:31.301,2.272621,0.471874,0.428519,4.369200,0.000000,-2.813301,0.967879,0.471806,0.007338,0.015448,0.020475,0.419263,0.014529,-0.069321,0.004051,0.016932,0.231731,2.159228,8.926405,-0.086243,2.492245,1,0,,38.990210,-76.938749,-11.490000,,,
2026-09-11T19:19:31.334,2.306040,0.520972,0.445419,4.823812,0.000000,-3.626976,1.247813,0.520848,0.018238,0.038395,0.021374,0.435837,0.015304,-0.003968,-0.009227,0.039879,1.508851,-2.030859,8.837655,-0.005956,2.319726,1,0,,38.990210,-76.938749,-11.490000,,,
2026-09-11T19:19:31.367,2.339454,0.462756,0.460856,4.284779,0.000000,-4.262123,1.466327,0.462605,0.010820,0.022779,0.022396,0.452253,0.016148,0.015417,-0.029102,0.024263,-1.205532,2.215420,10.569411,-0.101014,2.424955,1,0,,38.990210,-76.938749,-11.490000,,,
2026-09-11T19:19:31.401,2.372982,0.434354,0.476002,4.021796,0.000000,-4.330101,1.489714,0.434207,0.020972,0.044151,0.023518,0.467271,0.017026,0.043805,0.024639,0.045635,-1.123058,1.088146,9.655726,-0.187456,2.455506,1,0,,38.990210,-76.938749,-11.490000,,,
2026-09-11T19:19:31.434,2.406398,0.454199,0.490483,4.205548,0.000000,-4.778480,1.643973,0.454012,0.010392,0.021877,0.024622,0.482094,0.017907,0.063515,0.035825,0.023361,2.342907,-2.130789,7.944858,-0.047070,2.277588,1,0,,38.990210,-76.938749,-11.490000,,,
2026-09-11T19:19:31.468,2.439813,0.444577,0.505285,4.116457,0.000000,-4.262123,1.466327,0.444432,0.023456,0.049381,0.025812,0.497086,0.018851,0.041689,-0.010393,0.050864,0.425903,0.334505,9.649155,-0.027247,2.260646,1,0,,38.990210,-76.938749,-11.490000,,,
2026-09-11T19:19:31.501,2.473236,0.464569,0.521352,4.301563,0.000000,-3.697014,1.271908,0.464454,-0.004327,-0.009109,0.026485,0.512262,0.019568,0.015813,0.025219,-0.007626,-0.140823,1.280552,9.457828,-0.044917,2.306906,1,0,,38.990210,-76.938749,-11.490000,,,
2026-09-11T19:19:31.535,2.506656,0.474610,0.536667,4.394539,0.000000,-3.296699,1.134186,0.474517,0.009665,0.020346,0.026673,0.527944,0.020074,0.037403,0.028353,0.021830,0.295965,0.727555,7.295755,-0.039687,2.315908,1,0,,38.990210,-76.938749,-11.490000,,,
2026-09-11T19:19:31.568,2.540080,0.435929,0.551233,4.036380,0.000000,-2.936210,1.010164,0.435861,0.002567,0.005405,0.027103,0.543147,0.020687,0.040827,0.012448,0.006889,0.308811,-0.180933,9.059481,-0.033558,2.266394,1,0,,38.990210,-76.938749,-11.490000,,,
2026-09-11T19:19:31.602,2.573508,0.446453,0.566858,4.133824,0.000000,-1.984520,0.682748,0.446421,-0.011353,-0.023902,0.026794,0.557892,0.020937,0.035813,-0.040948,-0.022418,-0.926042,-1.039701,11.235479,-0.113631,2.162599,1,0,,38.990210,-76.938749,-11.490000,,,
2026-09-11T19:19:31.635,2.606929,0.446611,0.581461,4.135291,0.000000,-2.220726,0.764011,0.446572,0.014695,0.030938,0.026912,0.572807,0.021394,0.075802,-0.055786,0.032421,0.096399,-1.605545,8.175608,-0.137205,2.021738,1,0,,38.990210,-76.938749,-11.490000,,,
2026-09-11T19:19:31.669,2.640349,0.417746,0.595311,3.868017,0.000000,-1.926841,0.662904,0.417718,0.003258,0.006858,0.027543,0.587237,0.022087,0.099223,-0.036128,0.008342,0.146609,0.291944,10.362687,-0.162812,2.006109,1,0,,38.990210,-76.938749,-11.490000,,,
2026-09-11T19:19:31.702,2.673768,0.417847,0.609120,3.868951,0.000000,-1.529274,0.526126,0.417829,-0.007220,-0.015199,0.027404,0.601195,0.022404,0.014291,-0.023514,-0.013716,0.079924,0.415704,9.033102,-0.197391,1.999271,1,0,,38.990210,-76.938749,-11.490000,,,
2026-09-11T19:19:31.735,2.707185,0.379029,0.621793,3.509532,0.000000,0.543709,-0.187056,0.379027,-0.001002,-0.002110,0.027115,0.614508,0.022630,-0.053959,-0.002724,-0.000626,0.796202,0.715984,9.760265,-0.189494,2.011604,1,0,,38.990210,-76.938749,-11.490000,,,
2026-09-11T19:19:31.770,2.740605,0.418063,0.635911,3.870951,0.000000,4.653970,-1.601136,0.417899,-0.004727,-0.009952,0.026913,0.627822,0.022894,-0.047167,0.006681,-0.008469,2.024191,-1.288202,10.305907,-0.105062,1.894160,1,1,2.731447,38.990208,-76.938753,-11.539000,-0.512510,-0.323392,3.289372
2026-09-11T19:19:31.802,2.774021,0.447421,0.650164,4.142784,0.000000,9.456369,-3.253338,0.446700,-0.015753,-0.033163,0.026193,0.642271,0.022935,-0.048250,0.025457,-0.031680,1.610154,0.285079,10.912448,-0.053798,1.880650,1,0,,38.990208,-76.938753,-11.539000,,,
2026-09-11T19:19:31.835,2.807436,0.486076,0.666733,4.500701,0.000000,11.205255,-3.855019,0.484976,-0.019171,-0.040361,0.024964,0.657848,0.022750,-0.027436,0.011184,-0.038877,1.311836,-0.084239,9.199815,-0.026656,1.843673,1,0,,38.990208,-76.938753,-11.539000,,,
2026-09-11T19:19:31.869,2.840854,0.534731,0.684632,4.951211,0.000000,12.217371,-4.203224,0.533293,-0.022450,-0.047263,0.023500,0.674874,0.022466,0.004730,-0.002434,-0.045780,1.121390,1.277414,10.318557,-0.013809,1.895682,1,0,,38.990208,-76.938753,-11.539000,,,
2026-09-11T19:19:31.902,2.874270,0.564089,0.703499,5.223043,0.000000,13.055765,-4.491662,0.562356,-0.024977,-0.052583,0.021832,0.693193,0.022088,-0.013098,0.011288,-0.051099,1.203472,-0.295180,10.189796,-0.000548,1.845522,1,0,,38.990208,-76.938753,-11.539000,,,
2026-09-11T19:19:31.935,2.907686,0.612789,0.724023,5.673971,0.000000,14.131052,-4.861600,0.610584,-0.025688,-0.054080,0.020050,0.712804,0.021652,-0.038941,-0.004566,-0.052597,0.860632,1.847181,8.867565,-0.015088,1.934925,1,0,,38.990208,-76.938753,-11.539000,,,
2026-09-11T19:19:31.969,2.941104,0.651866,0.745806,6.035792,0.000000,15.368387,-5.287289,0.649092,-0.027051,-0.056949,0.018195,0.733865,0.021172,-0.039786,0.004846,-0.055465,1.722440,0.018829,9.416640,0.018838,1.905147,1,0,,38.990208,-76.938753,-11.539000,,,
2026-09-11T19:19:32.002,2.974524,0.690762,0.768751,6.395944,0.000000,17.107660,-5.885663,0.687121,-0.033704,-0.070955,0.016058,0.756207,0.020539,-0.028522,0.010759,-0.069472,1.527092,-0.818659,9.793803,0.034242,1.822202,1,0,,38.990208,-76.938753,-11.539000,,,
2026-09-11T19:19:32.036,3.007943,0.729742,0.792906,6.756868,0.000000,21.850322,-7.517313,0.723470,-0.042943,-0.090406,0.013361,0.779793,0.019604,-0.075735,0.019486,-0.088922,1.286436,-0.532011,9.728099,0.036679,1.759834,1,0,,38.990208,-76.938753,-11.539000,,,
2026-09-11T19:19:32.069,3.041361,0.749349,0.817744,6.938419,0.000000,22.423671,-7.714566,0.742567,-0.051458,-0.108333,0.010040,0.804306,0.018313,-0.095244,-0.024514,-0.106849,0.522793,-0.055506,10.351704,-0.004262,1.730001,1,0,,38.990208,-76.938753,-11.539000,,,
2026-09-11T19:19:32.102,3.074777,0.769089,0.843292,7.121197,0.000000,23.871120,-8.212541,0.761202,-0.057949,-0.121998,0.006192,0.829445,0.016689,-0.095652,-0.020599,-0.120514,1.355769,1.965547,10.333169,0.016885,1.832218,1,0,,38.990208,-76.938753,-11.539000,,,
2026-09-11T19:19:32.136,3.108194,0.788798,0.869757,7.303681,0.000000,26.089671,-8.975804,0.779138,-0.051245,-0.107884,0.002351,0.855189,0.014973,-0.116240,0.000699,-0.106400,0.055113,-2.233170,9.523238,-0.038395,1.660761,1,0,,38.990208,-76.938753,-11.539000,,,
2026-09-11T19:19:32.170,3.141613,0.818181,0.897241,7.575751,0.000000,28.608974,-9.842537,0.806139,-0.064361,-0.135496,-0.001715,0.881678,0.013049,-0.081213,-0.053964,-0.134012,1.526111,0.492098,9.701425,0.014968,1.669362,1,0,,38.990208,-76.938753,-11.539000,,,
2026-09-11T19:19:32.203,3.175031,0.847592,0.925546,7.848078,0.000000,28.643306,-9.854348,0.835087,-0.086797,-0.182730,-0.007033,0.909089,0.010402,-0.045129,-0.044793,-0.181246,1.426377,-0.085710,9.272874,0.075820,1.643250,1,0,,38.990208,-76.938753,-11.539000,,,
2026-09-11T19:19:32.236,3.208455,0.896483,0.955560,8.300765,0.000000,28.628886,-9.849387,0.883269,-0.078909,-0.166124,-0.012863,0.937777,0.007345,-0.010089,-0.121705,-0.164641,0.336760,-3.516174,10.045638,0.073724,1.394831,1,0,,38.990208,-76.938753,-11.539000,,,
2026-09-11T19:19:32.271,3.241867,0.935563,0.987039,8.662623,0.000000,30.007670,-10.323740,0.920417,-0.086735,-0.182601,-0.018689,0.967862,0.004101,-0.060516,-0.103793,-0.181117,3.222367,-3.069285,8.038609,0.262700,1.179610,1,0,,38.990208,-76.938753,-11.539000,,,
2026-09-11T19:19:32.304,3.275288,0.926117,1.018412,8.575159,0.000000,33.151134,-11.405207,0.907829,-0.082966,-0.174665,-0.024659,0.998344,0.000605,-0.186541,-0.041695,-0.173181,-0.088750,6.779337,12.661464,0.237849,1.603933,1,0,,38.990208,-76.938753,-11.539000,,,
2026-09-11T19:19:32.337,3.308712,0.916905,1.049157,8.489860,0.000000,37.840236,-13.018430,0.893338,-0.075653,-0.159269,-0.030239,1.028361,-0.002871,-0.331006,0.023821,-0.157786,-0.818463,0.850040,9.229529,0.163986,1.638493,1,0,,38.990208,-76.938753,-11.539000,,,
2026-09-11T19:19:32.371,3.342128,0.898140,1.078942,8.316108,0.000000,38.035930,-13.085756,0.874817,-0.112205,-0.236222,-0.036847,1.057780,-0.006997,-0.197375,-0.003436,-0.234738,2.261315,1.405783,12.081499,0.285287,1.712831,1,0,,38.990208,-76.938753,-11.539000,,,
2026-09-11T19:19:32.404,3.375541,0.869535,1.107916,8.051251,0.000000,37.994044,-13.071346,0.847005,-0.081706,-0.172012,-0.043668,1.086394,-0.011391,-0.160204,-0.003925,-0.170528,-3.254729,1.303892,9.421543,0.046409,1.775794,1,0,,38.990208,-76.938753,-11.539000,,,
2026-09-11T19:19:32.437,3.408961,0.772847,1.133717,7.155990,0.000000,37.295039,-12.830862,0.753549,-0.054709,-0.115177,-0.048466,1.113006,-0.014895,-0.104427,0.012197,-0.113694,-1.772748,-3.454687,10.825365,-0.093737,1.526015,1,0,,38.990208,-76.938753,-11.539000,,,
2026-09-11T19:19:32.471,3.442383,0.724992,1.158664,6.712893,0.000000,35.486415,-12.208629,0.708596,-0.083681,-0.176171,-0.053335,1.137290,-0.018446,-0.095459,0.040900,-0.174688,0.389030,1.447265,8.672217,-0.091363,1.598992,1,0,,38.990208,-76.938753,-11.539000,,,
2026-09-11T19:19:32.504,3.475809,0.715796,1.182954,6.627742,0.000000,32.445949,-11.162597,0.702255,-0.060157,-0.126646,-0.058396,1.160699,-0.022163,0.014172,-0.019424,-0.125163,1.279179,2.780185,8.950922,-0.028679,1.755205,1,0,,38.990208,-76.938753,-11.539000,,,
2026-09-11T19:19:32.537,3.509230,0.725867,1.207630,6.720990,0.000000,26.848414,-9.236840,0.716455,-0.049814,-0.104872,-0.062265,1.184253,-0.025427,0.131239,-0.000136,-0.103389,-0.539268,0.094340,9.837835,-0.082839,1.734784,1,0,,38.990208,-76.938753,-11.539000,,,
2026-09-11T19:19:32.571,3.542648,0.726231,1.232380,6.724363,0.000000,25.252650,-8.687838,0.717898,-0.064163,-0.135080,-0.066274,1.208047,-0.028867,0.047413,0.015741,-0.133596,1.357535,-3.475771,8.535512,-0.013064,1.484771,1,0,,38.990208,-76.938753,-11.539000,,,
2026-09-11T19:19:32.604,3.576076,0.795006,1.259323,7.361166,0.000000,25.324748,-8.712643,0.785832,-0.068394,-0.143988,-0.070939,1.232969,-0.032803,0.097697,-0.011905,-0.142505,2.209536,2.252882,8.079797,0.108463,1.609652,1,0,,38.990208,-76.938753,-11.539000,,,
2026-09-11T19:19:32.638,3.609494,0.843625,1.287654,7.811342,0.000000,27.340739,-9.406218,0.832282,-0.068812,-0.144867,-0.075765,1.259765,-0.037073,-0.045020,0.017562,-0.143384,0.168969,2.331825,10.697584,0.092137,1.738720,1,0,,38.990208,-76.938753,-11.539000,,,
2026-09-11T19:19:32.671,3.642965,0.872732,1.316735,8.080848,0.000000,29.737132,-10.230665,0.858856,-0.082731,-0.174171,-0.081104,1.287781,-0.041820,-0.050174,0.037240,-0.172687,1.581518,1.361555,7.549650,0.159072,1.805499,1,0,,38.990208,-76.938753,-11.539000,,,
2026-09-11T19:19:32.704,3.676387,0.902040,1.347016,8.352224,0.000000,32.053187,-11.027473,0.885385,-0.097943,-0.206196,-0.087461,1.316570,-0.047283,-0.100081,0.033567,-0.204712,1.619470,-1.609369,8.007620,0.218866,1.681107,1,0,,38.990208,-76.938753,-11.539000,,,
2026-09-11T19:19:32.738,3.709801,0.940951,1.378523,8.712506,0.000000,35.318873,-12.150989,0.919870,-0.090729,-0.191009,-0.094097,1.346320,-0.053158,-0.132340,-0.041355,-0.189525,0.207803,7.100603,4.953241,0.188745,2.121881,1,0,,38.990208,-76.938753,-11.539000,,,
2026-09-11T19:19:32.771,3.743224,0.950749,1.410728,8.803227,0.000000,35.892222,-12.348242,0.928754,-0.101703,-0.214111,-0.100867,1.376753,-0.059366,-0.106780,-0.027031,-0.212628,-1.038132,2.209536,9.767031,0.081927,2.242498,1,1,3.729930,38.990205,-76.938760,-11.611000,-1.122970,-0.606939,3.288858
2026-09-11T19:19:32.805,3.776645,0.941047,1.442086,8.713402,0.000000,35.156825,-12.095238,0.920157,-0.099799,-0.210102,-0.107956,1.407131,-0.065935,-0.027592,0.103048,-0.208619,-1.849142,-1.523365,13.368916,-0.077006,2.119484,1,0,,38.990205,-76.938760,-11.611000,,,
2026-09-11T19:19:32.838,3.810066,0.911990,1.471701,8.444353,0.000000,34.059566,-11.717740,0.892984,-0.073985,-0.155758,-0.114069,1.436922,-0.072176,-0.108386,-0.108033,-0.154275,0.950362,-0.650083,5.256168,-0.052084,2.050925,1,0,,38.990205,-76.938760,-11.611000,,,
2026-09-11T19:19:32.871,3.843486,0.941273,1.503016,8.715489,0.000000,27.618144,-9.501655,0.928359,-0.102470,-0.215727,-0.120277,1.466801,-0.078664,0.021152,-0.161731,-0.214243,2.721051,0.225847,10.769075,0.092382,2.043853,1,0,,38.990205,-76.938760,-11.611000,,,
2026-09-11T19:19:32.905,3.876908,0.922278,1.534158,8.539613,0.000000,21.237834,-7.306594,0.914789,-0.063568,-0.133827,-0.126118,1.497030,-0.085202,0.101107,0.002645,-0.132343,-0.362160,-0.623899,10.976191,0.038145,1.976750,1,0,,38.990205,-76.938760,-11.611000,,,
2026-09-11T19:19:32.938,3.910329,0.942317,1.565408,8.725158,0.000000,15.938304,-5.483361,0.938005,-0.062361,-0.131286,-0.130549,1.527467,-0.091253,0.269690,-0.051881,-0.129802,0.022359,-2.019091,8.776363,0.010417,1.820051,1,0,,38.990205,-76.938760,-11.611000,,,
2026-09-11T19:19:32.972,3.943746,0.913434,1.595779,8.457720,0.000000,9.253810,-3.183650,0.912024,-0.035902,-0.075583,-0.134005,1.557892,-0.096956,0.174695,-0.048419,-0.074100,-1.080104,3.329554,8.700166,-0.087951,2.008102,1,0,,38.990205,-76.938760,-11.611000,,,
2026-09-11T19:19:33.005,3.977163,0.855297,1.624774,7.919420,0.000000,10.166362,-3.497602,0.853704,-0.001777,-0.003741,-0.135330,1.587044,-0.101541,0.201073,0.033760,-0.002257,-2.115491,-1.482471,15.117442,-0.253040,1.878060,1,0,,38.990205,-76.938760,-11.611000,,,
2026-09-11T19:19:33.039,4.010582,0.865372,1.653700,8.012705,0.000000,10.675166,-3.672649,0.863595,-0.039147,-0.082414,-0.136770,1.615380,-0.106110,0.046817,-0.026492,-0.080931,1.277414,-1.507576,8.022330,-0.200479,1.752246,1,0,,38.990205,-76.938760,-11.611000,,,
2026-09-11T19:19:33.072,4.043994,0.884814,1.683460,8.192719,0.000000,13.553584,-4.662930,0.881885,-0.024449,-0.051472,-0.139007,1.644118,-0.111171,0.019772,0.127592,-0.049989,1.876503,-4.092315,10.760347,-0.116493,1.458815,1,0,,38.990205,-76.938760,-11.611000,,,
2026-09-11T19:19:33.105,4.077411,0.923687,1.714409,8.552654,0.000000,16.025508,-5.513363,0.919413,-0.044680,-0.094063,-0.141438,1.673758,-0.116522,0.012999,-0.040040,-0.092579,0.444634,-0.101695,7.827276,-0.128884,1.429724,1,0,,38.990205,-76.938760,-11.611000,,,
2026-09-11T19:19:33.139,4.110829,0.923963,1.745367,8.555218,0.000000,22.338527,-7.685273,0.915664,-0.054362,-0.114446,-0.144922,1.703870,-0.122535,-0.022025,-0.072833,-0.112963,0.837194,-0.459343,8.561108,-0.116421,1.378980,1,0,,38.990205,-76.938760,-11.611000,,,
2026-09-11T19:19:33.172,4.144248,0.963552,1.778361,8.921780,0.000000,23.380168,-8.043636,0.954073,-0.065484,-0.137861,-0.149138,1.734481,-0.129094,0.005189,0.063287,-0.136378,0.826210,-1.282514,10.786040,-0.103614,1.277224,1,0,,38.990205,-76.938760,-11.611000,,,
2026-09-11T19:19:33.206,4.177673,0.964001,1.810896,8.925934,0.000000,25.150340,-8.652640,0.953029,-0.074144,-0.156093,-0.154051,1.765635,-0.136214,-0.034967,0.021029,-0.154610,0.525833,0.244382,12.312249,-0.108092,1.276590,1,0,,38.990205,-76.938760,-11.611000,,,
2026-09-11T19:19:33.239,4.211089,1.022790,1.845121,9.470277,0.000000,27.511027,-9.464803,1.008866,-0.089348,-0.188101,-0.159802,1.797583,-0.144037,-0.025401,-0.025151,-0.186617,0.783649,1.242110,11.990885,-0.099397,1.343222,1,0,,38.990205,-76.938760,-11.611000,,,
2026-09-11T19:19:33.272,4.244516,1.023106,1.879662,9.473208,0.000000,27.816585,-9.569926,1.008868,-0.084676,-0.178266,-0.165925,1.830389,-0.152376,0.010859,-0.035910,-0.176783,1.529543,0.137783,8.486185,-0.043755,1.336965,1,0,,38.990205,-76.938760,-11.611000,,,
2026-09-11T19:19:33.306,4.277940,1.081980,1.915494,10.018338,0.000000,27.335246,-9.404328,1.067438,-0.086256,-0.181591,-0.171939,1.864113,-0.161028,0.081119,-0.047323,-0.180108,2.534333,0.018044,10.751913,0.079959,1.323929,1,0,,38.990205,-76.938760,-11.611000,,,
2026-09-11T19:19:33.340,4.311363,1.091947,1.952308,10.110617,0.000000,26.906779,-9.256920,1.077726,-0.089063,-0.187501,-0.178107,1.898903,-0.170156,0.045295,-0.123289,-0.186017,1.040289,-0.273900,10.498607,0.109749,1.292663,1,0,,38.990205,-76.938760,-11.611000,,,
2026-09-11T19:19:33.372,4.344781,1.131368,1.990204,10.475626,0.000000,24.789851,-8.528619,1.118857,-0.089906,-0.189276,-0.184403,1.934465,-0.179716,0.053669,-0.018796,-0.187793,1.764118,-0.327640,11.201352,0.190553,1.258898,1,0,,38.990205,-76.938760,-11.611000,,,
2026-09-11T19:19:33.407,4.378226,1.121823,2.027986,10.387251,0.000000,23.967937,-8.245850,1.110225,-0.082643,-0.173986,-0.190477,1.970551,-0.189497,0.191314,0.016742,-0.172503,0.419921,0.680385,9.751537,0.186018,1.289600,1,0,,38.990205,-76.938760,-11.611000,,,
2026-09-11T19:19:33.440,4.411648,1.121671,2.065393,10.385842,0.000000,23.974803,-8.248212,1.110068,-0.075157,-0.158225,-0.196029,2.006457,-0.199210,0.178148,-0.087531,-0.156741,-0.587811,-1.217496,7.967021,0.118404,1.195899,1,0,,38.990205,-76.938760,-11.611000,,,
2026-09-11T19:19:33.473,4.445068,1.082804,2.101237,10.025961,0.000000,23.714564,-8.158680,1.071845,-0.069933,-0.147228,-0.201133,2.041722,-0.208778,0.078822,-0.004751,-0.145745,2.308191,2.019974,4.989526,0.242241,1.311730,1,0,,38.990205,-76.938760,-11.611000,,,
2026-09-11T19:19:33.507,4.478490,1.092532,2.138130,10.116040,0.000000,24.227489,-8.335145,1.080992,-0.080088,-0.168605,-0.206411,2.076447,-0.218514,0.003324,-0.018192,-0.167122,-0.574964,-1.511499,9.446354,0.181478,1.199170,1,0,,38.990205,-76.938760,-11.611000,,,
2026-09-11T19:19:33.540,4.511907,1.054039,2.172970,9.759622,0.000000,24.344905,-8.375541,1.042797,-0.069719,-0.146777,-0.211680,2.110641,-0.228325,-0.065723,-0.010350,-0.145294,0.573591,2.115687,7.668114,0.198833,1.320846,1,0,,38.990205,-76.938760,-11.611000,,,
2026-09-11T19:19:33.573,4.545324,1.063981,2.208226,9.851679,0.000000,24.278987,-8.352862,1.052695,-0.093898,-0.197680,-0.217436,2.144267,-0.238451,-0.022242,-0.011545,-0.196196,0.017750,4.533320,11.331486,0.183136,1.601323,1,0,,38.990205,-76.938760,-11.611000,,,
2026-09-11T19:19:33.607,4.578752,1.044927,2.243160,9.675253,0.000000,24.037288,-8.269709,1.034062,-0.073974,-0.155734,-0.223343,2.177689,-0.248813,0.005818,-0.026938,-0.154250,-0.446595,-1.139729,9.431644,0.138912,1.508222,1,0,,38.990205,-76.938760,-11.611000,,,
2026-09-11T19:19:33.640,4.612169,1.025905,2.277146,9.499124,0.000000,22.052882,-7.587001,1.016924,-0.043958,-0.092544,-0.227491,2.210652,-0.258393,0.038681,-0.046190,-0.091061,0.444143,-4.249614,6.327643,0.153604,1.210473,1,0,,38.990205,-76.938760,-11.611000,,,
2026-09-11T19:19:33.673,4.645583,1.035885,2.311831,9.591529,0.000000,19.280894,-6.633335,1.028951,-0.064436,-0.135654,-0.231304,2.243524,-0.267929,0.040160,-0.043751,-0.134170,1.717929,4.985113,8.413910,0.249330,1.516945,1,0,,38.990205,-76.938760,-11.611000,,,
2026-09-11T19:19:33.707,4.678994,1.026362,2.346264,9.503355,0.000000,16.106532,-5.541238,1.021566,-0.048119,-0.101302,-0.235262,2.276417,-0.277677,-0.007095,-0.001683,-0.099819,0.339898,3.982284,9.885398,0.251044,1.752782,1,0,,38.990205,-76.938760,-11.611000,,,
2026-09-11T19:19:33.741,4.712416,1.036461,2.380949,9.596857,0.000000,11.970866,-4.118417,1.033784,-0.027162,-0.057183,-0.237911,2.309513,-0.286951,-0.058219,-0.023337,-0.055700,2.706341,5.311968,8.785386,0.403384,2.069422,1,0,,38.990205,-76.938760,-11.611000,,,
2026-09-11T19:19:33.774,4.745839,1.027078,2.414820,9.509982,0.000000,11.935847,-4.106369,1.024441,-0.036183,-0.076175,-0.240139,2.342680,-0.296122,-0.011478,0.007145,-0.074691,0.992629,1.851397,7.148754,0.440518,2.159573,1,1,4.727111,38.990203,-76.938771,-11.631000,-2.054505,-0.840078,3.226396
2026-09-11T19:19:33.807,4.779265,1.047119,2.449622,9.695544,0.000000,11.688655,-4.021326,1.044541,-0.040725,-0.085737,-0.242845,2.375948,-0.305640,-0.094826,-0.022774,-0.084254,2.159326,-0.473073,9.121067,0.549705,2.098818,1,0,,38.990203,-76.938771,-11.631000,,,
2026-09-11T19:19:33.841,4.812685,1.047496,2.484773,9.699041,0.000000,11.604198,-3.992270,1.044955,-0.026551,-0.055897,-0.245212,2.409558,-0.315167,-0.072360,0.048914,-0.054413,1.051077,3.351815,9.823027,0.584110,2.284609,1,0,,38.990203,-76.938771,-11.631000,,,
2026-09-11T19:19:33.874,4.846106,1.077481,2.520430,9.976679,0.000000,11.828731,-4.069517,1.074765,-0.027480,-0.057853,-0.247113,2.443691,-0.324675,-0.054806,-0.018008,-0.056370,3.155878,0.855140,9.397811,0.750923,2.306784,1,0,,38.990203,-76.938771,-11.631000,,,
2026-09-11T19:19:33.908,4.879526,1.068435,2.555345,9.892918,0.000000,11.795772,-4.058178,1.065756,-0.015003,-0.031586,-0.248607,2.478193,-0.334138,-0.099907,-0.063934,-0.030102,0.786003,-3.274342,4.910092,0.760995,2.059233,1,0,,38.990203,-76.938771,-11.631000,,,
2026-09-11T19:19:33.941,4.912984,1.088312,2.592024,10.076963,0.000000,12.369121,-4.255431,1.085312,-0.032217,-0.067826,-0.250270,2.512868,-0.343787,-0.013323,-0.077847,-0.066343,0.258994,0.465718,7.980456,0.735713,2.059406,1,0,,38.990203,-76.938771,-11.631000,,,
2026-09-11T19:19:33.974,4.946404,1.088601,2.628773,10.079640,0.000000,12.361568,-4.252833,1.085604,-0.037789,-0.079556,-0.252733,2.547712,-0.353948,0.008095,-0.032365,-0.078073,0.552409,-3.495384,11.742287,0.729124,1.803755,1,0,,38.990203,-76.938771,-11.631000,,,
2026-09-11T19:19:34.008,4.979829,1.099125,2.666021,10.177081,0.000000,12.493403,-4.298189,1.096033,-0.041865,-0.088138,-0.255536,2.582666,-0.364403,0.009002,0.071095,-0.086654,0.518576,-0.809049,10.417506,0.718735,1.725652,1,0,,38.990203,-76.938771,-11.631000,,,
2026-09-11T19:19:34.041,5.013253,1.099390,2.702666,10.179535,0.000000,12.442592,-4.280708,1.096323,-0.040370,-0.084989,-0.258429,2.617752,-0.375044,-0.016014,0.027009,-0.083506,1.587599,0.616250,9.472341,0.774766,1.740539,1,0,,38.990203,-76.938771,-11.631000,,,
2026-09-11T19:19:34.075,5.046671,1.118829,2.740147,10.359532,0.000000,12.579234,-4.327718,1.115639,-0.044869,-0.094460,-0.261427,2.653104,-0.385920,-0.029365,0.067938,-0.092977,0.044228,-0.379027,12.748155,0.729107,1.691580,1,0,,38.990203,-76.938771,-11.631000,,,
2026-09-11T19:19:34.108,5.080086,1.118849,2.777627,10.359716,0.000000,13.013194,-4.477016,1.115435,-0.044316,-0.093297,-0.264564,2.688712,-0.397050,-0.005551,0.036891,-0.091813,1.888957,-2.312702,5.849863,0.804085,1.517849,1,0,,38.990203,-76.938771,-11.631000,,,
2026-09-11T19:19:34.141,5.113505,1.138196,2.815661,10.538850,0.000000,13.901027,-4.782463,1.134233,-0.058227,-0.122584,-0.268172,2.724524,-0.408598,-0.053907,0.033914,-0.121100,1.155518,6.188683,11.485843,0.830206,1.898966,1,0,,38.990203,-76.938771,-11.631000,,,
2026-09-11T19:19:34.175,5.146922,1.138469,2.853658,10.541376,0.000000,16.931880,-5.825188,1.132590,-0.057598,-0.121258,-0.272246,2.760509,-0.420573,-0.038582,0.045516,-0.119775,1.301146,0.340487,8.735077,0.863047,1.896928,1,0,,38.990203,-76.938771,-11.631000,,,
2026-09-11T19:19:34.209,5.180341,1.167917,2.892828,10.814050,0.000000,24.149211,-8.308215,1.155660,-0.067696,-0.142517,-0.276653,2.796745,-0.432952,-0.061949,0.103690,-0.141033,1.657716,-4.228824,6.205844,0.916254,1.600690,1,0,,38.990203,-76.938771,-11.631000,,,
2026-09-11T19:19:34.242,5.213764,1.158288,2.932053,10.724885,0.000000,23.401454,-8.050959,1.146871,-0.077275,-0.162685,-0.281754,2.833066,-0.445885,-0.054523,0.084559,-0.161201,-0.601736,-0.789141,7.387252,0.819530,1.531972,1,0,,38.990203,-76.938771,-11.631000,,,
2026-09-11T19:19:34.275,5.247182,1.197629,2.972389,11.089161,0.000000,24.596904,-8.462238,1.184591,-0.086704,-0.182534,-0.287522,2.869684,-0.459455,0.021840,0.014324,-0.181050,0.091496,1.445794,10.198132,0.768091,1.610697,1,0,,38.990203,-76.938771,-11.631000,,,
2026-09-11T19:19:34.309,5.280600,1.217354,3.012968,11.271792,0.000000,25.619319,-8.813986,1.202978,-0.101305,-0.213274,-0.294136,2.907001,-0.473905,-0.017260,-0.005554,-0.211791,0.434042,-4.059757,11.141139,0.740358,1.334600,1,0,,38.990203,-76.938771,-11.631000,,,
2026-09-11T19:19:34.342,5.314018,1.237157,3.053666,11.455157,0.000000,25.751155,-8.859342,1.222397,-0.100554,-0.211693,-0.301236,2.944754,-0.489017,0.051113,0.013901,-0.210210,2.170016,-1.179838,10.243242,0.827553,1.248230,1,0,,38.990203,-76.938771,-11.631000,,,
2026-09-11T19:19:34.375,5.347438,1.237531,3.095455,11.458617,0.000000,25.839046,-8.889580,1.222665,-0.102137,-0.215026,-0.308367,2.982711,-0.504508,0.021999,0.009348,-0.213543,-0.137293,-2.075283,12.773064,0.768510,1.105105,1,0,,38.990203,-76.938771,-11.631000,,,
2026-09-11T19:19:34.409,5.380853,1.267134,3.138095,11.732720,0.000000,26.140483,-8.993285,1.251556,-0.104721,-0.220464,-0.315643,3.020992,-0.520489,0.139170,0.046608,-0.218981,-1.042839,-0.279391,10.928041,0.655466,1.080701,1,0,,38.990203,-76.938771,-11.631000,,,
2026-09-11T19:19:34.442,5.414266,1.287097,3.181404,11.917568,0.000000,26.621821,-9.158884,1.270688,-0.118774,-0.250049,-0.323503,3.059822,-0.537273,0.074753,-0.056081,-0.248566,1.600543,4.220880,9.913445,0.719582,1.350624,1,0,,38.990203,-76.938771,-11.631000,,,
2026-09-11T19:19:34.475,5.447685,1.326524,3.225465,12.282631,0.000000,27.816585,-9.569926,1.308063,-0.112963,-0.237817,-0.331655,3.099373,-0.554806,0.118111,0.036434,-0.236334,-0.340781,-1.904942,13.037941,0.660226,1.220506,1,0,,38.990203,-76.938771,-11.631000,,,
2026-09-11T19:19:34.509,5.481110,1.346610,3.270469,12.468613,0.000000,27.849544,-9.581265,1.327826,-0.119381,-0.251328,-0.339830,3.139685,-0.572986,0.001852,-0.002871,-0.249844,0.119053,-0.354216,11.937145,0.633413,1.193711,1,0,,38.990203,-76.938771,-11.631000,,,
2026-09-11T19:19:34.542,5.514529,1.347253,3.315209,12.474565,0.000000,27.000850,-9.289283,1.329585,-0.121477,-0.255740,-0.348303,3.180128,-0.591753,0.039140,0.014021,-0.254257,1.104817,-3.054085,8.889336,0.676742,0.992822,1,0,,38.990203,-76.938771,-11.631000,,,
2026-09-11T19:19:34.576,5.547953,1.347677,3.360083,12.478486,0.000000,24.868815,-8.555785,1.332679,-0.092528,-0.194797,-0.355832,3.220659,-0.610454,0.072610,-0.095678,-0.193313,-1.234755,1.846984,6.967527,0.571133,1.106293,1,0,,38.990203,-76.938771,-11.631000,,,
2026-09-11T19:19:34.610,5.581374,1.328393,3.404449,12.299939,0.000000,24.051707,-8.274670,1.314564,-0.104112,-0.219183,-0.362750,3.260916,-0.629083,0.051004,-0.206459,-0.217700,-1.074024,5.769154,22.440459,0.477129,1.474367,1,0,,38.990203,-76.938771,-11.631000,,,
2026-09-11T19:19:34.643,5.614793,1.299457,3.447235,12.032010,0.000000,23.000453,-7.913000,1.287084,-0.075983,-0.159965,-0.369086,3.300434,-0.647446,-0.038698,-0.079563,-0.158481,0.957619,-1.602799,7.830904,0.515694,1.355623,1,0,,38.990203,-76.938771,-11.631000,,,
2026-09-11T19:19:34.676,5.648218,1.279747,3.489826,11.849509,0.000000,20.300563,-6.984139,1.270251,-0.069012,-0.145289,-0.374187,3.339377,-0.665224,0.008545,0.080782,-0.143806,1.135512,3.467631,8.495795,0.565283,1.565229,1,0,,38.990203,-76.938771,-11.631000,,,
2026-09-11T19:19:34.710,5.681638,1.240704,3.531450,11.487998,0.000000,16.181377,-5.566987,1.234852,-0.038793,-0.081670,-0.377980,3.377651,-0.682273,-0.073571,0.050751,-0.080186,-0.892994,-0.006472,10.382104,0.485313,1.542052,1,0,,38.990203,-76.938771,-11.631000,,,
2026-09-11T19:19:34.743,5.715062,1.240939,3.572866,11.490178,0.000000,9.029277,-3.106403,1.239116,-0.010777,-0.022689,-0.379724,3.415758,-0.698335,0.064615,0.055963,-0.021206,-0.980567,-1.941717,10.583141,0.404166,1.389067,1,0,,38.990203,-76.938771,-11.631000,,,
2026-09-11T19:19:34.777,5.748484,1.231594,3.613424,11.403650,0.000000,4.787868,-1.647202,1.231085,0.017929,0.037745,-0.379472,3.454144,-0.713520,0.045825,-0.010854,0.039229,0.815325,-2.051845,8.215521,0.439620,1.225838,1,1,5.726676,38.990202,-76.938784,-11.694000,-3.202827,-1.025032,3.225872
2026-09-11T19:19:34.810,5.781902,1.202527,3.653859,11.134512,0.000000,-4.238777,1.458295,1.202138,0.009300,0.019580,-0.378514,3.492083,-0.728140,-0.083676,0.033188,0.021063,0.768449,-2.463921,7.103349,0.469987,1.039265,1,0,,38.990202,-76.938784,-11.694000,,,
2026-09-11T19:19:34.843,5.815318,1.222060,3.694804,11.315366,0.000000,-4.094581,1.408686,1.221690,0.023597,0.049678,-0.377357,3.529926,-0.742572,0.044800,0.005530,0.051162,0.445026,6.535250,8.980832,0.478029,1.435029,1,0,,38.990202,-76.938784,-11.694000,,,
2026-09-11T19:19:34.877,5.848738,1.222240,3.735622,11.317033,0.000000,-5.261879,1.810279,1.221630,0.032699,0.068839,-0.375377,3.568241,-0.756703,0.068082,-0.067123,0.070323,0.924375,4.136445,7.555141,0.515893,1.669656,1,0,,38.990202,-76.938784,-11.694000,,,
2026-09-11T19:19:34.910,5.882162,1.251710,3.777707,11.589907,0.000000,-4.840965,1.665470,1.251181,0.027312,0.057499,-0.373265,3.607072,-0.770880,0.056611,-0.018368,0.058983,0.346861,2.471080,10.049365,0.513038,1.794637,1,0,,38.990202,-76.938784,-11.694000,,,
2026-09-11T19:19:34.943,5.915576,1.271312,3.819988,11.771404,0.000000,-4.395332,1.512156,1.270869,0.037616,0.079192,-0.370982,3.646719,-0.785189,-0.086278,-0.033457,0.080675,1.760392,-6.082771,8.497855,0.594578,1.362368,1,0,,38.990202,-76.938784,-11.694000,,,
2026-09-11T19:19:34.977,5.948993,1.271733,3.862690,11.775305,0.000000,-3.810310,1.310887,1.271400,0.028198,0.059364,-0.368667,3.686722,-0.799518,-0.027552,-0.026226,0.060848,1.636534,-1.465310,7.777850,0.662688,1.235564,1,0,,38.990202,-76.938784,-11.694000,,,
2026-09-11T19:19:35.011,5.982421,1.272360,3.905739,11.781112,0.000000,-3.552818,1.222300,1.272071,0.055669,0.117198,-0.365715,3.726903,-0.813471,-0.096343,0.020710,0.118682,-0.939183,-3.952178,8.059301,0.561070,0.944311,1,0,,38.990202,-76.938784,-11.694000,,,
2026-09-11T19:19:35.044,6.015835,1.302248,3.948560,12.057854,0.000000,-3.364677,1.157572,1.301982,0.014759,0.031072,-0.363238,3.767502,-0.827700,-0.034433,-0.030886,0.032556,2.090778,1.010771,11.570474,0.648697,0.984725,1,0,,38.990202,-76.938784,-11.694000,,,
2026-09-11T19:19:35.077,6.049252,1.302865,3.991816,12.063568,0.000000,-3.447075,1.185920,1.302586,0.015493,0.032616,-0.362174,3.808369,-0.842668,0.038086,-0.002541,0.034099,0.427374,2.086659,9.796255,0.620178,1.094221,1,0,,38.990202,-76.938784,-11.694000,,,
2026-09-11T19:19:35.111,6.082669,1.303502,4.035242,12.069467,0.000000,-3.632469,1.249703,1.303192,0.028847,0.060730,-0.360615,3.849357,-0.857370,-0.004033,0.010602,0.062213,-0.695488,-3.834694,9.750066,0.515699,0.816793,1,0,,38.990202,-76.938784,-11.694000,,,
2026-09-11T19:19:35.144,6.116084,1.274708,4.077667,11.802855,0.000000,-3.340645,1.149304,1.274452,0.014376,0.030266,-0.359094,3.889919,-0.871859,-0.038215,0.028997,0.031749,0.469346,0.324404,9.420268,0.483581,0.814312,1,0,,38.990202,-76.938784,-11.694000,,,
2026-09-11T19:19:35.178,6.149502,1.304060,4.121583,12.074631,0.000000,-2.987022,1.027645,1.303850,0.021082,0.044382,-0.357847,3.930469,-0.886419,-0.063993,0.069392,0.045866,1.544351,-4.254125,10.489585,0.518437,0.514249,1,0,,38.990202,-76.938784,-11.694000,,,
2026-09-11T19:19:35.211,6.182956,1.333070,4.165955,12.343241,0.000000,-2.340889,0.805352,1.332938,0.005138,0.010818,-0.356924,3.971941,-0.901437,-0.105964,-0.000456,0.012301,0.288021,-2.581699,9.644546,0.469835,0.328400,1,0,,38.990202,-76.938784,-11.694000,,,
2026-09-11T19:19:35.244,6.216373,1.342789,4.210790,12.433229,0.000000,-1.890449,0.650384,1.342702,-0.002231,-0.004698,-0.356821,4.013848,-0.917009,0.008827,0.017006,-0.003214,2.121865,2.184627,11.820740,0.536340,0.454626,1,0,,38.990202,-76.938784,-11.694000,,,
2026-09-11T19:19:35.278,6.249788,1.362766,4.256636,12.618203,0.000000,-1.224403,0.421240,1.362729,-0.017196,-0.036201,-0.357505,4.056082,-0.933116,-0.112565,0.067683,-0.034718,0.927807,5.695604,8.670059,0.521447,0.809477,1,0,,38.990202,-76.938784,-11.694000,,,
2026-09-11T19:19:35.311,6.283201,1.431018,4.304554,13.250171,0.000000,2.050210,-0.705347,1.430910,-0.004405,-0.009273,-0.358264,4.099671,-0.949804,-0.061834,-0.046263,-0.007790,1.348709,-5.389048,8.109707,0.532509,0.440671,1,0,,38.990202,-76.938784,-11.694000,,,
2026-09-11T19:19:35.344,6.316616,1.470087,4.353808,13.611919,0.000000,5.778008,-1.987847,1.469203,-0.014761,-0.031075,-0.358938,4.144929,-0.967109,-0.093956,-0.006690,-0.029592,1.847573,-0.801301,4.896068,0.572804,0.374959,1,0,,38.990202,-76.938784,-11.694000,,,
2026-09-11T19:19:35.378,6.350036,1.509237,4.404530,13.974418,0.000000,11.257440,-3.872973,1.505790,-0.040137,-0.084499,-0.360870,4.191133,-0.985476,-0.044373,0.024260,-0.083015,1.408431,3.636894,8.246706,0.581219,0.602515,1,0,,38.990202,-76.938784,-11.694000,,,
2026-09-11T19:19:35.411,6.383456,1.568032,4.457305,14.518818,0.000000,11.940653,-4.108023,1.564004,-0.070285,-0.147968,-0.364754,4.238434,-1.005408,-0.083298,-0.003627,-0.146484,0.194662,-4.797609,11.345510,0.510998,0.288357,1,0,,38.990202,-76.938784,-11.694000,,,
2026-09-11T19:19:35.445,6.416874,1.607355,4.510764,14.882914,0.000000,14.183237,-4.879554,1.601529,-0.058022,-0.122151,-0.369268,4.287034,-1.026389,0.091785,0.051025,-0.120667,1.281631,5.465246,9.928449,0.517489,0.639609,1,0,,38.990202,-76.938784,-11.694000,,,
2026-09-11T19:19:35.478,6.450290,1.617348,4.564903,14.975449,0.000000,15.623819,-5.375167,1.610236,-0.071007,-0.149489,-0.373806,4.336252,-1.047880,0.068634,0.055670,-0.148006,-0.890444,-5.682071,8.247295,0.392311,0.268434,1,0,,38.990202,-76.938784,-11.694000,,,
2026-09-11T19:19:35.512,6.483710,1.676239,4.621218,15.520731,0.000000,16.935999,-5.826605,1.667579,-0.101339,-0.213344,-0.379869,4.386119,-1.070716,0.090884,-0.013362,-0.211861,2.372033,1.480314,7.889548,0.489087,0.372365,1,0,,38.990202,-76.938784,-11.694000,,,
2026-09-11T19:19:35.545,6.517129,1.705866,4.677909,15.795057,0.000000,20.698131,-7.120917,1.692708,-0.085243,-0.179459,-0.386433,4.437030,-1.094599,0.101003,0.033660,-0.177975,2.550808,0.061586,10.500176,0.605194,0.379954,1,0,,38.990202,-76.938784,-11.694000,,,
2026-09-11T19:19:35.579,6.550543,1.735369,4.735411,16.068232,0.000000,21.679347,-7.458491,1.720686,-0.107800,-0.226947,-0.393222,4.488551,-1.119255,-0.005643,0.010416,-0.225463,1.347924,-2.603666,9.731237,0.650559,0.220603,1,0,,38.990202,-76.938784,-11.694000,,,
2026-09-11T19:19:35.612,6.583960,1.755097,4.794047,16.250902,0.000000,22.183345,-7.631885,1.739550,-0.107500,-0.226316,-0.400796,4.540478,-1.144929,0.040937,-0.125570,-0.224833,1.085694,2.787246,6.678427,0.686284,0.412085,1,0,,38.990202,-76.938784,-11.694000,,,
2026-09-11T19:19:35.645,6.617379,1.755100,4.852623,16.250922,0.000000,22.460063,-7.727086,1.739163,-0.115290,-0.242717,-0.408633,4.592444,-1.171239,-0.076687,-0.070609,-0.241233,0.498276,-3.294054,7.716951,0.691566,0.209714,1,0,,38.990202,-76.938784,-11.694000,,,
2026-09-11T19:19:35.679,6.650798,1.755040,4.911458,16.250371,0.000000,22.247203,-7.653854,1.739404,-0.101127,-0.212899,-0.416246,4.644246,-1.197852,0.058084,-0.035067,-0.211415,-0.731772,-0.755897,10.908820,0.623320,0.170506,1,0,,38.990202,-76.938784,-11.694000,,,
2026-09-11T19:19:35.712,6.684221,1.726131,4.968775,15.982697,0.000000,21.611369,-7.435104,1.711618,-0.094737,-0.199447,-0.423137,4.695580,-1.224339,0.040196,-0.071521,-0.197963,-0.308419,1.283592,10.327187,0.583691,0.261860,1,0,,38.990202,-76.938784,-11.694000,,,
2026-09-11T19:19:35.745,6.717642,1.648945,5.023346,15.268009,0.000000,18.682826,-6.427578,1.638580,-0.073566,-0.154876,-0.429058,4.745397,-1.250036,-0.120060,-0.076877,-0.153393,1.155714,-1.683606,9.523924,0.640365,0.154489,1,0,,38.990202,-76.938784,-11.694000,,,
2026-09-11T19:19:35.779,6.751052,1.600781,5.076745,14.822043,0.000000,11.879542,-4.086999,1.596710,-0.030201,-0.063581,-0.432708,4.793781,-1.274184,-0.058744,-0.050460,-0.062097,-0.583986,0.150728,8.612494,0.587762,0.157170,1,1,6.730145,38.990200,-76.938800,-11.733000,-4.596889,-1.195901,3.225348
2026-09-11T19:19:35.812,6.784461,1.591695,5.129330,14.737921,0.000000,7.572215,-2.605120,1.590050,-0.025021,-0.052676,-0.434650,4.841698,-1.297390,0.019656,-0.028467,-0.051193,0.391285,3.992483,5.443868,0.600374,0.407231,1,0,,38.990200,-76.938800,-11.733000,,,
2026-09-11T19:19:35.846,6.817882,1.572626,5.182160,14.561351,0.000000,-0.517842,0.178157,1.572618,0.014023,0.029522,-0.435036,4.889552,-1.319821,-0.118209,0.009406,0.031005,1.164442,-7.044117,9.437234,0.663421,-0.068115,1,0,,38.990200,-76.938800,-11.733000,,,
2026-09-11T19:19:35.879,6.851290,1.543893,5.233845,14.295309,0.000000,-3.026161,1.041110,1.543638,0.031310,0.065917,-0.433442,4.937093,-1.341034,0.098693,-0.009514,0.067400,0.479741,-1.368224,6.495141,0.680716,-0.174377,1,0,,38.990200,-76.938800,-11.733000,,,
2026-09-11T19:19:35.912,6.884699,1.544629,5.286083,14.302125,0.000000,-5.650520,1.943986,1.543740,0.039052,0.082214,-0.430968,4.984416,-1.361570,0.134922,-0.028103,0.083697,3.034766,-0.601932,6.022460,0.861292,-0.231520,1,0,,38.990200,-76.938800,-11.733000,,,
2026-09-11T19:19:35.946,6.918117,1.545095,5.337950,14.306431,0.000000,-7.113762,2.447395,1.543685,0.031017,0.065299,-0.428503,5.031802,-1.381998,-0.151567,-0.002310,0.066782,-1.620451,-2.875408,4.325615,0.734736,-0.433459,1,0,,38.990200,-76.938800,-11.733000,,,
2026-09-11T19:19:35.980,6.951534,1.584229,5.391754,14.668786,0.000000,-6.593284,2.268332,1.582988,0.038880,0.081853,-0.426044,5.079830,-1.402583,0.167583,-0.029174,0.083337,2.468334,2.886195,9.554913,0.866538,-0.262230,1,0,,38.990200,-76.938800,-11.733000,,,
2026-09-11T19:19:36.013,6.984944,1.594387,5.444175,14.762844,0.000000,-5.601768,1.927214,1.593485,0.038874,0.081840,-0.423310,5.128715,-1.423262,0.162375,0.013780,0.083324,2.758905,5.549878,6.889956,1.007593,0.079346,1,0,,38.990200,-76.938800,-11.733000,,,
2026-09-11T19:19:36.046,7.018359,1.604209,5.497547,14.853787,0.000000,-4.038276,1.389315,1.603737,0.023909,0.050334,-0.421102,5.177873,-1.444195,0.024305,-0.044424,0.051817,1.249367,4.554503,8.620144,1.047439,0.356042,1,0,,38.990200,-76.938800,-11.733000,,,
2026-09-11T19:19:36.080,7.051771,1.623724,5.551589,15.034481,0.000000,-3.619423,1.245214,1.623340,0.019787,0.041656,-0.419565,5.227389,-1.465528,0.000418,-0.162259,0.043140,0.842587,1.164638,6.077573,1.060129,0.411153,1,0,,38.990200,-76.938800,-11.733000,,,
2026-09-11T19:19:36.113,7.085188,1.643181,5.605879,15.214640,0.000000,-3.615303,1.243797,1.642794,0.034160,0.071916,-0.417667,5.277615,-1.486887,0.052903,-0.045255,0.073399,1.412746,-0.406976,8.487754,1.109644,0.360682,1,0,,38.990200,-76.938800,-11.733000,,,
2026-09-11T19:19:36.146,7.118610,1.653179,5.661138,15.307212,0.000000,-3.504066,1.205527,1.652813,0.023349,0.049157,-0.415644,5.328365,-1.508296,0.032123,0.008221,0.050640,1.885721,1.205433,12.518091,1.192943,0.417518,1,0,,38.990200,-76.938800,-11.733000,,,
2026-09-11T19:19:36.180,7.152016,1.673083,5.716885,15.491512,0.000000,-3.688087,1.268837,1.672673,0.035427,0.074583,-0.413577,5.379601,-1.529773,-0.031306,-0.010747,0.076066,0.387755,0.319305,8.565128,1.180725,0.413554,1,0,,38.990200,-76.938800,-11.733000,,,
2026-09-11T19:19:36.213,7.185436,1.683265,5.773306,15.585787,0.000000,-3.746452,1.288917,1.682839,0.030809,0.064862,-0.411247,5.431413,-1.551233,0.102261,-0.004060,0.066345,-0.226239,-1.400978,8.290542,1.133859,0.299302,1,0,,38.990200,-76.938800,-11.733000,,,
2026-09-11T19:19:36.246,7.218857,1.693285,5.829211,15.678561,0.000000,-3.626976,1.247813,1.692883,0.034701,0.073055,-0.408942,5.483582,-1.572719,0.016190,-0.054135,0.074538,2.808036,-1.136591,10.107812,1.290433,0.202488,1,0,,38.990200,-76.938800,-11.733000,,,
2026-09-11T19:19:36.280,7.252267,1.693562,5.885979,15.681126,0.000000,-3.547325,1.220410,1.693177,0.030286,0.063760,-0.406657,5.535939,-1.594156,0.000542,-0.038134,0.065243,2.373896,2.303288,9.890007,1.420994,0.330358,1,0,,38.990200,-76.938800,-11.733000,,,
2026-09-11T19:19:36.313,7.285678,1.674352,5.942091,15.503261,0.000000,-3.277473,1.127571,1.674028,0.026200,0.055157,-0.404670,5.587996,-1.615487,0.085415,-0.018583,0.056641,0.164458,-0.753837,11.050231,1.411418,0.260021,1,0,,38.990200,-76.938800,-11.733000,,,
2026-09-11T19:19:36.347,7.319094,1.674960,5.998162,15.508886,0.000000,-2.476158,0.851889,1.674775,0.006205,0.013064,-0.403530,5.639654,-1.636989,0.067336,-0.003624,0.014547,0.355197,-1.270648,11.865066,1.419285,0.161570,1,0,,38.990200,-76.938800,-11.733000,,,
2026-09-11T19:19:36.380,7.352503,1.627171,6.052533,15.066402,0.000000,-1.226463,0.421948,1.627127,-0.002686,-0.005656,-0.403407,5.690405,-1.658590,0.074716,-0.026216,-0.004172,0.435415,-0.057957,8.898260,1.434732,0.144699,1,0,,38.990200,-76.938800,-11.733000,,,
2026-09-11T19:19:36.414,7.385924,1.588904,6.106087,14.712075,0.000000,0.369988,-0.127289,1.588900,-0.017481,-0.036803,-0.404116,5.739694,-1.680014,0.112493,-0.006012,-0.035319,-0.303222,0.856219,10.866847,1.403410,0.190363,1,0,,38.990200,-76.938800,-11.733000,,,
2026-09-11T19:19:36.447,7.419343,1.589433,6.158596,14.716973,0.000000,1.588784,-0.546600,1.589361,-0.016104,-0.033903,-0.405298,5.788290,-1.701441,0.017121,-0.006100,-0.032420,0.720789,1.047644,12.111801,1.441280,0.247611,1,0,,38.990200,-76.938800,-11.733000,,,
2026-09-11T19:19:36.481,7.452858,1.550968,6.209994,14.360815,0.000000,2.072869,-0.713143,1.550848,-0.013410,-0.028232,-0.406339,5.836443,-1.722668,0.060527,0.026751,-0.026749,1.895331,1.875130,9.957967,1.557056,0.357441,1,0,,38.990200,-76.938800,-11.733000,,,
2026-09-11T19:19:36.514,7.486273,1.541065,6.261387,14.269124,0.000000,2.399026,-0.825353,1.540906,-0.019752,-0.041583,-0.407505,5.883660,-1.743621,-0.027754,0.015874,-0.040099,-0.009414,-0.354608,9.007016,1.549695,0.322750,1,0,,38.990200,-76.938800,-11.733000,,,
2026-09-11T19:19:36.547,7.519693,1.511878,6.311513,13.998867,0.000000,2.491036,-0.857008,1.511709,-0.022272,-0.046888,-0.408984,5.930200,-1.764516,0.002654,0.022061,-0.045404,0.980469,-5.534775,11.743071,1.605279,-0.046371,1,0,,38.990200,-76.938800,-11.733000,,,
2026-09-11T19:19:36.581,7.553101,1.502497,6.361912,13.912011,0.000000,2.471123,-0.850157,1.502332,-0.009181,-0.019327,-0.410090,5.976173,-1.785045,-0.123243,0.029448,-0.017844,1.581518,-2.471962,8.145207,1.700422,-0.215810,1,0,,38.990200,-76.938800,-11.733000,,,
2026-09-11T19:19:36.615,7.586512,1.473804,6.411838,13.646334,0.000000,1.901894,-0.654321,1.473708,-0.021707,-0.045698,-0.411176,6.021551,-1.805364,-0.013039,0.017615,-0.044214,-0.362356,-2.055768,10.694544,1.668630,-0.353981,1,0,,38.990200,-76.938800,-11.733000,,,
2026-09-11T19:19:36.648,7.619935,1.493590,6.461416,13.829535,0.000000,1.590157,-0.547072,1.493522,-0.009060,-0.019073,-0.412258,6.066788,-1.825679,-0.039157,0.040385,-0.017590,0.718043,-5.957050,8.766753,1.702892,-0.745630,1,0,,38.990200,-76.938800,-11.733000,,,
2026-09-11T19:19:36.681,7.653343,1.484051,6.510747,13.741214,0.000000,0.675545,-0.232412,1.484039,-0.010165,-0.021399,-0.412935,6.112223,-1.845918,-0.047038,0.069516,-0.019916,0.367651,-0.842097,10.985213,1.712234,-0.801712,1,0,,38.990200,-76.938800,-11.733000,,,
2026-09-11T19:19:36.714,7.686766,1.484413,6.560271,13.744565,0.000000,0.144082,-0.049569,1.484412,-0.007035,-0.014811,-0.413540,6.157539,-1.866102,-0.053062,0.072132,-0.013328,-0.191622,-1.978492,9.694462,1.682769,-0.931363,1,0,,38.990200,-76.938800,-11.733000,,,
2026-09-11T19:19:36.748,7.720187,1.475163,6.609455,13.658918,0.000000,-0.538444,0.185244,1.475155,0.000271,0.000571,-0.413778,6.202778,-1.886085,-0.050858,0.032598,0.002054,0.458951,0.152690,10.381516,1.692689,-0.923149,1,0,,38.990200,-76.938800,-11.733000,,,
2026-09-11T19:19:36.781,7.753596,1.465984,6.658206,13.573927,0.000000,-1.746253,0.600775,1.465904,0.012257,0.025803,-0.413337,6.247850,-1.905637,-0.059864,0.024871,0.027287,0.969976,0.776294,8.886492,1.731843,-0.877085,1,1,7.730964,38.990199,-76.938818,-11.760000,-6.139317,-1.339343,3.521029
2026-09-11T19:19:36.814,7.787006,1.476322,6.707598,13.669646,0.000000,-2.007865,0.690779,1.476215,0.010281,0.021644,-0.412544,6.293017,-1.925015,0.005052,-0.001625,0.023127,0.253110,2.997305,8.181100,1.723498,-0.687490,1,0,,38.990199,-76.938818,-11.760000,,,
2026-09-11T19:19:36.848,7.820426,1.428419,6.756086,13.226099,0.000000,-2.927971,1.007329,1.428198,0.011796,0.024833,-0.411768,6.337633,-1.944119,-0.077398,-0.019438,0.026316,-1.340863,1.299185,7.603978,1.612027,-0.610034,1,0,,38.990199,-76.938818,-11.760000,,,
2026-09-11T19:19:36.881,7.853836,1.428777,6.803812,13.229417,0.000000,-4.201011,1.445302,1.428322,0.038965,0.082031,-0.409983,6.381719,-1.962401,-0.054902,0.047277,0.083515,0.122877,-3.953061,10.899307,1.596302,-0.878487,1,0,,38.990199,-76.938818,-11.760000,,,
2026-09-11T19:19:36.915,7.887244,1.409694,6.851359,13.052721,0.000000,-4.946708,1.701849,1.409072,0.036427,0.076689,-0.407331,6.425711,-1.980079,-0.016297,0.016261,0.078173,-0.017750,-1.007437,4.291684,1.573709,-0.952832,1,0,,38.990199,-76.938818,-11.760000,,,
2026-09-11T19:19:36.949,7.920664,1.419692,6.899286,13.145294,0.000000,-5.942344,2.044385,1.418788,0.038087,0.080182,-0.404710,6.469616,-1.997599,-0.032617,-0.000199,0.081666,-0.419725,-0.257032,10.162730,1.527934,-0.978197,1,0,,38.990199,-76.938818,-11.760000,,,
2026-09-11T19:19:36.982,7.954072,1.410131,6.946860,13.056773,0.000000,-6.883049,2.368021,1.408927,0.050786,0.106919,-0.401585,6.513644,-2.014764,-0.069355,0.006809,0.108402,-0.756289,-4.237944,7.681353,1.464773,-1.263135,1,0,,38.990199,-76.938818,-11.760000,,,
2026-09-11T19:19:37.015,7.987482,1.420046,6.994010,13.148575,0.000000,-7.763328,2.670870,1.418504,0.048285,0.101653,-0.398101,6.557796,-2.031625,-0.039265,0.050098,0.103137,0.739323,1.671151,8.506386,1.502336,-1.162300,1,0,,38.990199,-76.938818,-11.760000,,,
2026-09-11T19:19:37.049,8.020906,1.429846,7.041585,13.239313,0.000000,-8.289299,2.851823,1.428075,0.060645,0.127673,-0.394268,6.602385,-2.048303,-0.056292,0.062858,0.129156,0.435415,0.334897,10.404267,1.521676,-1.151481,1,0,,38.990199,-76.938818,-11.760000,,,
2026-09-11T19:19:37.082,8.054322,1.391384,7.088316,12.883187,0.000000,-8.865394,3.050021,1.389413,0.055721,0.117307,-0.390175,6.646628,-2.064502,0.002086,0.060719,0.118791,0.004609,0.858082,10.441925,1.509721,-1.105684,1,0,,38.990199,-76.938818,-11.760000,,,
2026-09-11T19:19:37.115,8.087738,1.391762,7.135028,12.886684,0.000000,-11.117592,3.824860,1.388662,0.057069,0.120144,-0.386208,6.690303,-2.080327,-0.015459,0.078272,0.121628,0.199271,0.187209,10.800260,1.506697,-1.104046,1,0,,38.990199,-76.938818,-11.760000,,,
2026-09-11T19:19:37.149,8.121159,1.392300,7.181824,12.891665,0.000000,-15.523109,5.340519,1.386256,0.076773,0.161626,-0.381499,6.734136,-2.095618,0.055521,-0.008774,0.163110,0.549270,-3.226290,11.135157,1.527508,-1.327000,1,0,,38.990199,-76.938818,-11.760000,,,
2026-09-11T19:19:37.182,8.154579,1.373118,7.228012,12.714052,0.000000,-15.770988,5.425799,1.366965,0.079208,0.166753,-0.376012,6.777844,-2.110209,0.057770,-0.022753,0.168237,0.297240,0.512692,6.328918,1.532745,-1.305805,1,0,,38.990199,-76.938818,-11.760000,,,
2026-09-11T19:19:37.216,8.187996,1.344233,7.273350,12.446598,0.000000,-17.784919,6.118665,1.336575,0.083187,0.175130,-0.370299,6.820896,-2.124151,0.037873,0.021883,0.176613,-2.656229,-1.801482,9.994742,1.343158,-1.434965,1,0,,38.990199,-76.938818,-11.760000,,,
2026-09-11T19:19:37.249,8.221413,1.306163,7.317587,12.094099,0.000000,-18.696098,6.432144,1.297941,0.076876,0.161843,-0.364669,6.862936,-2.137472,-0.081721,-0.046801,0.163327,-2.085482,-2.887666,7.163268,1.187386,-1.631415,1,0,,38.990199,-76.938818,-11.760000,,,
2026-09-11T19:19:37.283,8.254819,1.277691,7.360527,11.830470,0.000000,-19.047661,6.553094,1.269343,0.090948,0.191469,-0.358768,6.904033,-2.150026,-0.029401,0.007222,0.192952,0.983117,1.286338,9.121067,1.229345,-1.557794,1,0,,38.990199,-76.938818,-11.760000,,,
2026-09-11T19:19:37.316,8.288227,1.278405,7.402943,11.837082,0.000000,-19.101219,6.571520,1.270005,0.075474,0.158893,-0.352915,6.944763,-2.162198,-0.080162,-0.034715,0.160377,0.138568,2.958764,6.672935,1.212278,-1.374141,1,0,,38.990199,-76.938818,-11.760000,,,
2026-09-11T19:19:37.349,8.321667,1.288745,7.445852,11.932822,0.000000,-18.715324,6.438758,1.280616,0.086080,0.181222,-0.347229,6.985748,-2.174286,0.032414,-0.030482,0.182705,0.973114,-4.266677,10.079863,1.244375,-1.662101,1,0,,38.990199,-76.938818,-11.760000,,,
2026-09-11T19:19:37.383,8.355074,1.289307,7.488349,11.938024,0.000000,-18.788109,6.463799,1.281111,0.077486,0.163129,-0.341477,7.026949,-2.186160,0.027038,0.010992,0.164613,2.334081,1.915043,10.737007,1.360222,-1.545269,1,0,,38.990199,-76.938818,-11.760000,,,
2026-09-11T19:19:37.416,8.388491,1.250814,7.530070,11.581608,0.000000,-17.210884,5.921176,1.244140,0.076866,0.161824,-0.336047,7.067600,-2.197750,0.025154,-0.018084,0.163308,-0.093948,-1.151007,9.917760,1.311685,-1.627574,1,0,,38.990199,-76.938818,-11.760000,,,
2026-09-11T19:19:37.450,8.421911,1.261256,7.572797,11.678298,0.000000,-14.809685,5.095075,1.256273,0.050136,0.105549,-0.331579,7.107772,-2.209435,0.045364,0.016716,0.107032,1.546803,-1.231029,10.512435,1.361726,-1.709708,1,0,,38.990199,-76.938818,-11.760000,,,
2026-09-11T19:19:37.483,8.455324,1.300428,7.616276,12.040996,0.000000,-12.567100,4.323544,1.296727,0.038167,0.080351,-0.328474,7.148600,-2.221860,0.031093,0.025194,0.081835,1.289476,2.413515,10.776038,1.385739,-1.553306,1,0,,38.990199,-76.938818,-11.760000,,,
2026-09-11T19:19:37.518,8.488750,1.339336,7.660789,12.401261,0.000000,-7.731056,2.659767,1.337893,0.031607,0.066541,-0.326019,7.190672,-2.234909,-0.133716,-0.086366,0.068024,2.199239,-4.859293,8.012622,1.459944,-1.868278,1,0,,38.990199,-76.938818,-11.760000,,,
2026-09-11T19:19:37.550,8.522167,1.358772,7.705937,12.581222,0.000000,-2.244072,0.772043,1.358649,0.018568,0.039091,-0.324254,7.233634,-2.248507,-0.108735,-0.061682,0.040574,1.372931,-0.086593,8.955335,1.473893,-1.868550,1,0,,38.990199,-76.938818,-11.760000,,,
2026-09-11T19:19:37.583,8.555580,1.368849,7.751905,12.674524,0.000000,-2.479591,0.853070,1.368697,0.003829,0.008061,-0.323466,7.276949,-2.262652,-0.095870,-0.079779,0.009544,1.401665,-0.623115,9.123225,1.488375,-1.900807,1,0,,38.990199,-76.938818,-11.760000,,,
2026-09-11T19:19:37.617,8.589001,1.398319,7.798839,12.947397,0.000000,-2.675972,0.920632,1.398138,0.008310,0.017495,-0.323039,7.320854,-2.277146,-0.088162,-0.034476,0.018979,2.361637,3.331025,9.811750,1.563556,-1.677710,1,0,,38.990199,-76.938818,-11.760000,,,
2026-09-11T19:19:37.650,8.622413,1.427762,7.846264,13.220017,0.000000,-2.289390,0.787634,1.427627,0.019890,0.041875,-0.322047,7.365776,-2.291662,-0.073875,0.051467,0.043358,2.645148,-0.738048,8.645249,1.649558,-1.722667,1,0,,38.990199,-76.938818,-11.760000,,,
2026-09-11T19:19:37.684,8.655830,1.466836,7.895065,13.581819,0.000000,-0.958671,0.329818,1.466812,0.002752,0.005794,-0.321251,7.411778,-2.306592,-0.087154,0.032930,0.007278,1.338412,-1.706651,11.578516,1.644925,-1.826488,1,0,,38.990199,-76.938818,-11.760000,,,
2026-09-11T19:19:37.717,8.689250,1.505832,7.944988,13.942888,0.000000,2.152520,-0.740546,1.505706,-0.016348,-0.034417,-0.321729,7.458832,-2.322503,-0.093270,-0.071434,-0.032933,2.868837,-1.791479,5.662164,1.739041,-1.930754,1,0,,38.990199,-76.938818,-11.760000,,,
2026-09-11T19:19:37.750,8.722661,1.535350,7.996829,14.216207,0.000000,7.041436,-2.422512,1.533978,-0.031919,-0.067199,-0.323426,7.506736,-2.339366,-0.132983,-0.067038,-0.065715,1.002828,-1.842375,10.489683,1.711624,-2.033815,1,0,,38.990199,-76.938818,-11.760000,,,
2026-09-11T19:19:37.784,8.756082,1.574758,8.049791,14.581091,0.000000,12.722055,-4.376854,1.570165,-0.057080,-0.120167,-0.326557,7.555417,-2.357338,-0.100769,-0.057372,-0.118684,1.105798,0.776981,8.102156,1.692879,-1.960721,1,1,8.728566,38.990196,-76.938834,-11.723000,-7.485700,-1.619739,3.024028
2026-09-11T19:19:37.817,8.789496,1.604205,8.102851,14.853749,0.000000,15.927316,-5.479581,1.596874,-0.075700,-0.159368,-0.331228,7.604775,-2.376529,-0.140662,-0.005427,-0.157885,0.390403,0.010493,4.659238,1.629275,-1.933786,1,0,,38.990196,-76.938834,-11.723000,,,
2026-09-11T19:19:37.851,8.822904,1.614389,8.157405,14.948045,0.000000,22.533534,-7.752363,1.599634,-0.090094,-0.189671,-0.337058,7.654307,-2.396656,-0.139719,-0.056589,-0.188188,2.440091,-3.349756,11.399446,1.702618,-2.121356,1,0,,38.990196,-76.938834,-11.723000,,,
2026-09-11T19:19:37.884,8.856317,1.644192,8.211820,15.224003,0.000000,22.717555,-7.815673,1.628919,-0.108762,-0.228972,-0.344052,7.704035,-2.417804,-0.064526,0.028555,-0.227488,0.548976,-0.244872,10.281684,1.659320,-2.101498,1,0,,38.990196,-76.938834,-11.723000,,,
2026-09-11T19:19:37.918,8.889737,1.683362,8.268118,15.586686,0.000000,23.388408,-8.046471,1.666789,-0.128501,-0.270527,-0.352399,7.754445,-2.440325,-0.092747,-0.036416,-0.269044,1.343413,-1.837178,8.545025,1.675302,-2.179856,1,0,,38.990196,-76.938834,-11.723000,,,
2026-09-11T19:19:37.951,8.923150,1.702887,8.325111,15.767470,0.000000,26.224254,-9.022106,1.681819,-0.133207,-0.280435,-0.361603,7.805333,-2.463973,-0.073983,-0.005062,-0.278951,2.133437,-2.971317,10.397795,1.747221,-2.329376,1,0,,38.990196,-76.938834,-11.723000,,,
2026-09-11T19:19:37.984,8.956564,1.751297,8.384089,16.215709,0.000000,27.838557,-9.577485,1.726886,-0.156317,-0.329089,-0.371787,7.856758,-2.488908,0.039156,0.041748,-0.327606,1.372146,0.394227,8.483341,1.772009,-2.253220,1,0,,38.990196,-76.938834,-11.723000,,,
2026-09-11T19:19:38.018,8.989984,1.780544,8.443675,16.486516,0.000000,27.348979,-9.409052,1.756589,-0.158200,-0.333053,-0.382851,7.908934,-2.515242,0.061600,0.040848,-0.331569,0.224278,3.082720,10.177342,1.729377,-2.002833,1,0,,38.990196,-76.938834,-11.723000,,,
2026-09-11T19:19:38.051,9.023392,1.780908,8.502850,16.489887,0.000000,23.941844,-8.236873,1.762536,-0.141870,-0.298673,-0.393403,7.961448,-2.542129,0.103045,-0.004333,-0.297190,-0.156808,-2.192669,8.867467,1.669043,-2.100365,1,0,,38.990196,-76.938834,-11.723000,,,
2026-09-11T19:19:38.084,9.056804,1.781270,8.562129,16.493241,0.000000,20.840266,-7.169816,1.767342,-0.094553,-0.199058,-0.401719,8.014293,-2.568604,0.276479,-0.060178,-0.197575,-0.923198,3.147444,8.128634,1.562804,-1.862641,1,0,,38.990196,-76.938834,-11.723000,,,
2026-09-11T19:19:38.118,9.090227,1.752563,8.620667,16.227435,0.000000,10.916865,-3.755802,1.748799,-0.051145,-0.107675,-0.406845,8.067359,-2.593956,0.274112,0.000516,-0.106191,-0.096988,-0.362258,7.649481,1.515200,-1.865192,1,0,,38.990196,-76.938834,-11.723000,,,
2026-09-11T19:19:38.151,9.123642,1.723982,8.677925,15.962801,0.000000,6.205791,-2.135020,1.722786,-0.021909,-0.046124,-0.409414,8.120113,-2.618096,0.129186,0.019924,-0.044641,-0.031774,-1.091480,9.897754,1.477955,-1.921936,1,0,,38.990196,-76.938834,-11.723000,,,
2026-09-11T19:19:38.185,9.157064,1.704872,8.735429,15.785848,0.000000,4.459651,-1.534284,1.704260,-0.013566,-0.028561,-0.410662,8.172399,-2.641470,0.084467,0.005290,-0.027077,-0.546623,-4.343071,10.190286,1.413655,-2.190486,1,0,,38.990196,-76.938834,-11.723000,,,
2026-09-11T19:19:38.219,9.190484,1.724867,8.792698,15.970991,0.000000,2.605708,-0.896459,1.724656,-0.005195,-0.010937,-0.411322,8.224799,-2.664649,0.035088,0.030705,-0.009453,0.998317,-1.445206,12.079439,1.454037,-2.270454,1,0,,38.990196,-76.938834,-11.723000,,,
2026-09-11T19:19:38.252,9.223897,1.725506,8.850586,15.976910,0.000000,3.560832,-1.225057,1.725112,-0.011407,-0.024015,-0.411906,8.277508,-2.687962,-0.066092,0.044765,-0.022531,-1.033817,-1.479529,7.676744,1.365878,-2.350283,1,0,,38.990196,-76.938834,-11.723000,,,
2026-09-11T19:19:38.285,9.257315,1.677370,8.906617,15.531201,0.000000,3.610271,-1.242066,1.676976,-0.013015,-0.027401,-0.412765,8.329426,-2.711116,-0.119144,0.015819,-0.025917,-0.832388,-2.396647,7.801582,1.293396,-2.488302,1,0,,38.990196,-76.938834,-11.723000,,,
2026-09-11T19:19:38.319,9.290734,1.687645,8.963245,15.626340,0.000000,2.869380,-0.987172,1.687394,-0.006071,-0.012780,-0.413437,8.380787,-2.733977,-0.052663,-0.041277,-0.011297,0.518478,3.155486,9.910208,1.309263,-2.267050,1,0,,38.990196,-76.938834,-11.723000,,,
2026-09-11T19:19:38.352,9.324151,1.658758,9.019193,15.358867,0.000000,0.943339,-0.324543,1.658731,-0.010086,-0.021233,-0.414005,8.431869,-2.756700,-0.041388,0.039478,-0.019750,1.419611,4.794667,10.345918,1.382989,-1.941341,1,0,,38.990196,-76.938834,-11.723000,,,
2026-09-11T19:19:38.385,9.357566,1.658580,9.074529,15.357219,0.000000,-1.056172,0.363362,1.658546,0.009530,0.020064,-0.414024,8.482607,-2.779005,-0.037796,0.030482,0.021548,-0.820817,-1.126000,11.479370,1.308413,-2.006771,1,0,,38.990196,-76.938834,-11.723000,,,
2026-09-11T19:19:38.419,9.390982,1.639417,9.129174,15.179787,0.000000,-1.787450,0.614948,1.639323,0.016011,0.033707,-0.413126,8.533234,-2.800758,-0.136828,0.036581,0.035191,0.331367,-4.915485,10.616581,1.304443,-2.318109,1,0,,38.990196,-76.938834,-11.723000,,,
2026-09-11T19:19:38.452,9.424395,1.620318,9.183596,15.002944,0.000000,-2.440450,0.839604,1.620144,0.021985,0.046284,-0.411790,8.583375,-2.822006,0.052302,0.016946,0.047768,-0.337251,1.515226,8.617790,1.254777,-2.211171,1,0,,38.990196,-76.938834,-11.723000,,,
2026-09-11T19:19:38.486,9.457817,1.640238,9.238509,15.187393,0.000000,-4.106941,1.412938,1.639740,0.028655,0.060326,-0.410008,8.633655,-2.842989,0.052220,-0.003771,0.061809,-1.194352,2.651914,12.383347,1.147882,-2.033379,1,0,,38.990196,-76.938834,-11.723000,,,
2026-09-11T19:19:38.519,9.491242,1.640682,9.293383,15.191497,0.000000,-5.375175,1.849258,1.639827,0.042875,0.090264,-0.407491,8.684424,-2.863677,0.194002,-0.021484,0.091747,1.406372,4.471636,8.293974,1.204094,-1.742962,1,0,,38.990196,-76.938834,-11.723000,,,
2026-09-11T19:19:38.552,9.524663,1.650581,9.348399,15.283153,0.000000,-5.408821,1.860833,1.649710,0.039691,0.083561,-0.404587,8.735469,-2.884120,0.060902,-0.044787,0.085044,1.073926,-1.951229,6.335390,1.233205,-1.870764,1,0,,38.990196,-76.938834,-11.723000,,,
2026-09-11T19:19:38.586,9.558084,1.650761,9.403402,15.284821,0.000000,-4.507255,1.550661,1.650156,0.036182,0.076173,-0.401917,8.786686,-2.904593,0.053702,-0.086417,0.077657,1.608977,2.209634,9.350347,1.290056,-1.727117,1,0,,38.990196,-76.938834,-11.723000,,,
2026-09-11T19:19:38.619,9.591494,1.641657,9.458302,15.200531,0.000000,-3.466987,1.192771,1.641302,0.013234,0.027861,-0.400180,8.837630,-2.925298,0.003561,0.061682,0.029344,1.038426,2.971023,9.443216,1.299817,-1.530684,1,0,,38.990196,-76.938834,-11.723000,,,
2026-09-11T19:19:38.653,9.624905,1.642099,9.513639,15.204619,0.000000,-2.879905,0.990793,1.641853,0.013087,0.027552,-0.399254,8.888325,-2.946237,0.030154,-0.005728,0.029036,-0.928003,0.988903,9.057716,1.173142,-1.464614,1,0,,38.990196,-76.938834,-11.723000,,,
2026-09-11T19:19:38.686,9.658324,1.671999,9.569613,15.481474,0.000000,-0.072212,0.024843,1.671999,-0.009098,-0.019155,-0.399114,8.939370,-2.967697,-0.045418,-0.028207,-0.017671,1.482079,-1.540527,11.068472,1.194892,-1.557921,1,0,,38.990196,-76.938834,-11.723000,,,
2026-09-11T19:19:38.720,9.691740,1.682003,9.626161,15.574101,0.000000,4.621011,-1.589797,1.681355,-0.039844,-0.083883,-0.400835,8.990656,-2.990267,-0.020973,-0.009505,-0.082399,1.817565,-2.337611,8.325846,1.232639,-1.694703,1,0,,38.990196,-76.938834,-11.723000,,,
2026-09-11T19:19:38.753,9.725153,1.731137,9.683582,16.029045,0.000000,10.794641,-3.713753,1.727502,-0.047985,-0.101021,-0.403924,9.042482,-3.013920,-0.007716,-0.007376,-0.099538,1.635945,-2.398707,10.848705,1.254446,-1.831751,1,1,9.725492,38.990195,-76.938853,-11.633000,-9.123773,-1.784123,3.944399
2026-09-11T19:19:38.787,9.758574,1.740864,9.742301,16.119108,0.000000,13.195154,-4.539617,1.735402,-0.084752,-0.178425,-0.408594,9.094761,-3.038825,-0.037595,-0.019916,-0.176941,1.092559,-0.196623,8.241803,1.238100,-1.816074,1,0,,38.990195,-76.938853,-11.633000,,,
2026-09-11T19:19:38.820,9.791990,1.779871,9.801501,16.480288,0.000000,20.675471,-7.113121,1.766172,-0.112429,-0.236692,-0.415530,9.147047,-3.065276,-0.067024,0.036120,-0.235208,0.684210,0.009905,11.631570,1.195128,-1.780197,1,0,,38.990195,-76.938853,-11.633000,,,
2026-09-11T19:19:38.853,9.825404,1.838306,9.863357,17.021352,0.000000,23.970683,-8.246795,1.819297,-0.129807,-0.273278,-0.424050,9.200095,-3.093388,-0.086584,-0.003386,-0.271794,0.674894,0.254385,10.407700,1.154157,-1.723783,1,0,,38.990195,-76.938853,-11.633000,,,
2026-09-11T19:19:38.886,9.858847,1.906440,9.927252,17.652224,0.000000,25.486110,-8.768157,1.884160,-0.152495,-0.321042,-0.433988,9.254442,-3.123445,-0.039172,-0.011662,-0.319558,0.449929,-1.420101,8.164232,1.103507,-1.769397,1,0,,38.990195,-76.938853,-11.633000,,,
2026-09-11T19:19:38.920,9.892261,1.965059,9.992896,18.194995,0.000000,27.283748,-9.386610,1.938748,-0.175243,-0.368932,-0.445515,9.309898,-3.155593,-0.018736,-0.015294,-0.367448,0.659007,1.537879,11.252837,1.071881,-1.615960,1,0,,38.990195,-76.938853,-11.633000,,,
2026-09-11T19:19:38.953,9.925671,2.014035,10.060466,18.648472,0.000000,27.684749,-9.524570,1.986271,-0.174255,-0.366852,-0.457806,9.366341,-3.189468,-0.058348,-0.032828,-0.365369,0.555841,-3.990816,6.664501,1.040743,-1.821012,1,0,,38.990195,-76.938853,-11.633000,,,
2026-09-11T19:19:38.987,9.959093,2.053298,10.129123,19.012017,0.000000,28.124202,-9.675758,2.024089,-0.180499,-0.379997,-0.470287,9.423613,-3.224766,-0.017074,0.010003,-0.378514,0.874263,0.382655,8.666529,1.040068,-1.738234,1,0,,38.990195,-76.938853,-11.633000,,,
2026-09-11T19:19:39.020,9.992512,2.092790,10.199281,19.377688,0.000000,27.568019,-9.484410,2.064183,-0.179289,-0.377452,-0.482944,9.481553,-3.261452,-0.031534,0.023521,-0.375968,0.192308,-0.193387,9.097433,1.003614,-1.693005,1,0,,38.990195,-76.938853,-11.633000,,,
2026-09-11T19:19:39.053,10.025925,2.103174,10.269006,19.473833,0.000000,26.783183,-9.214398,2.076035,-0.187246,-0.394202,-0.495835,9.539719,-3.299371,0.026832,0.003557,-0.392718,-0.265172,-0.529265,8.259455,0.945293,-1.667477,1,0,,38.990195,-76.938853,-11.633000,,,
2026-09-11T19:19:39.087,10.059345,2.103693,10.339003,19.478636,0.000000,25.023311,-8.608937,2.079990,-0.175426,-0.369317,-0.508593,9.597674,-3.338113,-0.061769,-0.061425,-0.367834,2.633772,3.720741,6.339509,1.083139,-1.370478,1,0,,38.990195,-76.938853,-11.633000,,,
2026-09-11T19:19:39.120,10.092756,2.055295,10.407723,19.030507,0.000000,23.399394,-8.050250,2.035041,-0.154345,-0.324936,-0.520191,9.654815,-3.376728,0.031342,-0.021480,-0.323453,-0.845137,6.625177,6.082869,1.002923,-0.895892,1,0,,38.990195,-76.938853,-11.633000,,,
2026-09-11T19:19:39.154,10.126174,2.016220,10.474989,18.668706,0.000000,19.518474,-6.715071,2.002389,-0.110303,-0.232216,-0.529501,9.710983,-3.414357,0.084533,-0.108686,-0.230732,-2.282400,1.009889,10.467618,0.837521,-0.802474,1,0,,38.990195,-76.938853,-11.633000,,,
2026-09-11T19:19:39.188,10.159596,1.997058,10.541506,18.491275,0.000000,14.133800,-4.862546,1.989870,-0.068588,-0.144395,-0.535794,9.766941,-3.450812,0.097835,-0.027481,-0.142912,-1.566318,4.037104,8.813335,0.724334,-0.525682,1,0,,38.990195,-76.938853,-11.633000,,,
2026-09-11T19:19:39.221,10.193013,1.939260,10.606090,17.956110,0.000000,8.981212,-3.089866,1.936441,-0.053241,-0.112086,-0.540080,9.822236,-3.486172,0.102289,-0.017381,-0.110603,-2.589740,3.695440,8.610729,0.550991,-0.278644,1,0,,38.990195,-76.938853,-11.633000,,,
2026-09-11T19:19:39.254,10.226426,1.901273,10.669327,17.604381,0.000000,9.110301,-3.134278,1.898429,-0.033483,-0.070491,-0.543130,9.876388,-3.520440,0.043292,-0.092955,-0.069008,0.200546,2.079206,9.576586,0.563960,-0.144310,1,0,,38.990195,-76.938853,-11.633000,,,
2026-09-11T19:19:39.288,10.259845,1.862673,10.731343,17.246976,0.000000,7.779582,-2.676462,1.860642,-0.018246,-0.038413,-0.544950,9.929684,-3.553690,-0.084503,0.020496,-0.036930,0.089927,-2.910123,9.644939,0.571145,-0.338321,1,0,,38.990195,-76.938853,-11.633000,,,
2026-09-11T19:19:39.321,10.293259,1.824236,10.792249,16.891074,0.000000,5.070766,-1.744529,1.823390,-0.006526,-0.013738,-0.545821,9.982090,-3.585972,-0.091059,0.044409,-0.012255,-0.714905,-4.979817,11.291377,0.526105,-0.667046,1,0,,38.990195,-76.938853,-11.633000,,,
2026-09-11T19:19:39.354,10.326669,1.824662,10.853101,16.895015,0.000000,-2.719228,0.935514,1.824418,0.014110,0.029704,-0.545554,10.034243,-3.617490,-0.009948,-0.095388,0.031188,0.541915,2.844419,8.101078,0.557265,-0.491095,1,0,,38.990195,-76.938853,-11.633000,,,
2026-09-11T19:19:39.388,10.360092,1.805672,10.913500,16.719181,0.000000,-3.017235,1.038039,1.805375,0.036422,0.076679,-0.543777,10.086561,-3.648197,-0.026995,-0.006035,0.078162,0.072765,-6.993514,7.334099,0.548911,-0.959086,1,0,,38.990195,-76.938853,-11.633000,,,
2026-09-11T19:19:39.422,10.393518,1.835748,10.975251,16.997667,0.000000,-3.710747,1.276633,1.835292,0.028216,0.059402,-0.541502,10.139226,-3.678693,0.134395,-0.044717,0.060885,2.080187,-0.783747,6.563297,0.666462,-1.018166,1,0,,38.990195,-76.938853,-11.633000,,,
2026-09-11T19:19:39.455,10.426933,1.845734,11.036660,17.090131,0.000000,-3.234215,1.112688,1.845386,0.038108,0.080228,-0.539169,10.192530,-3.709377,0.052781,-0.027638,0.081711,0.173284,-2.509130,8.888944,0.656174,-1.190716,1,0,,38.990195,-76.938853,-11.633000,,,
2026-09-11T19:19:39.488,10.460346,1.846095,11.098357,17.093468,0.000000,-1.885643,0.648730,1.845976,-0.000261,-0.000550,-0.537838,10.245797,-3.740462,0.062434,0.047536,0.000934,0.222905,2.686532,10.687287,0.643903,-1.015599,1,0,,38.990195,-76.938853,-11.633000,,,
2026-09-11T19:19:39.522,10.493774,1.865722,11.160826,17.275205,0.000000,2.212258,-0.761098,1.865558,-0.040705,-0.085694,-0.539280,10.298698,-3.772867,0.041303,0.022186,-0.084211,1.113055,3.246786,8.820591,0.682580,-0.795806,1,0,,38.990195,-76.938853,-11.633000,,,
2026-09-11T19:19:39.555,10.527199,1.875435,11.223216,17.365140,0.000000,5.556908,-1.911780,1.874391,-0.027300,-0.057475,-0.541672,10.351709,-3.806003,0.040919,0.002815,-0.055991,1.968783,0.268408,10.657965,0.773177,-0.774578,1,0,,38.990195,-76.938853,-11.633000,,,
2026-09-11T19:19:39.588,10.560622,1.885336,11.286307,17.456813,0.000000,9.851876,-3.389407,1.882038,-0.057864,-0.121820,-0.544669,10.404712,-3.839667,0.034039,0.052135,-0.120336,1.312914,2.516288,11.641278,0.823494,-0.600264,1,0,,38.990195,-76.938853,-11.633000,,,
2026-09-11T19:19:39.622,10.594044,1.924545,11.350925,17.819860,0.000000,10.064736,-3.462638,1.921031,-0.074314,-0.156450,-0.549319,10.457842,-3.874609,0.050450,0.041522,-0.154966,-0.220748,-2.603568,8.724486,0.776466,-0.754567,1,0,,38.990195,-76.938853,-11.633000,,,
2026-09-11T19:19:39.655,10.627452,1.944331,11.415682,18.003064,0.000000,10.310555,-3.547209,1.940606,-0.062258,-0.131069,-0.554122,10.511581,-3.910364,-0.011413,-0.019725,-0.129585,2.002126,-1.778730,11.028167,0.877677,-0.856734,1,0,,38.990195,-76.938853,-11.633000,,,
2026-09-11T19:19:39.689,10.660871,1.944537,11.480386,18.004970,0.000000,10.269356,-3.533035,1.940841,-0.060558,-0.127489,-0.558442,10.565575,-3.946353,0.029049,0.071106,-0.126006,0.225357,2.041058,12.054727,0.869622,-0.711104,1,0,,38.990195,-76.938853,-11.633000,,,
2026-09-11T19:19:39.722,10.694291,1.925345,11.545088,17.827268,0.000000,10.213738,-3.513901,1.921725,-0.068750,-0.144737,-0.562991,10.619087,-3.982506,0.057057,0.054635,-0.143254,0.946538,-0.952618,10.932159,0.911452,-0.758797,1,0,,38.990195,-76.938853,-11.633000,,,
2026-09-11T19:19:39.755,10.727703,1.935499,11.610186,17.921288,0.000000,10.511742,-3.616425,1.931645,-0.050706,-0.106750,-0.567192,10.672385,-4.018664,0.038750,0.015486,-0.105267,1.381169,-6.593011,7.588386,0.981507,-1.175465,1,1,10.726231,38.990195,-76.938874,-11.555000,-10.991308,-1.722409,3.362665
2026-09-11T19:19:39.789,10.761128,1.955601,11.675707,18.107421,0.000000,10.414238,-3.582880,1.951779,-0.063193,-0.133037,-0.571200,10.726027,-4.055247,-0.059505,-0.008639,-0.131554,-0.830917,-0.628999,9.024472,0.908582,-1.198273,1,0,,38.990195,-76.938874,-11.555000,,,
2026-09-11T19:19:39.823,10.794550,1.907710,11.739975,17.663983,0.000000,10.124474,-3.483191,1.904186,-0.059958,-0.126226,-0.575532,10.779044,-4.091929,-0.028319,0.013563,-0.124743,-0.442476,1.312718,10.223923,0.861353,-1.096432,1,0,,38.990195,-76.938874,-11.555000,,,
2026-09-11T19:19:39.856,10.827966,1.869182,11.801987,17.307238,0.000000,9.799690,-3.371453,1.865947,-0.043851,-0.092318,-0.579184,10.830879,-4.127763,0.088694,0.052569,-0.090834,0.482291,1.248288,10.730240,0.876246,-1.004314,1,0,,38.990195,-76.938874,-11.555000,,,
2026-09-11T19:19:39.889,10.861378,1.849816,11.863480,17.127923,0.000000,9.521599,-3.275779,1.846793,-0.039252,-0.082635,-0.582106,10.881978,-4.162948,0.011138,-0.019506,-0.081152,-0.280176,-2.276320,8.950922,0.844056,-1.142496,1,0,,38.990195,-76.938874,-11.555000,,,
2026-09-11T19:19:39.923,10.894797,1.820804,11.924104,16.859298,0.000000,9.013481,-3.100968,1.818138,-0.046792,-0.098509,-0.585133,10.932287,-4.197892,-0.073428,0.011347,-0.097025,-0.266349,-2.556692,9.758107,0.814341,-1.295597,1,0,,38.990195,-76.938874,-11.555000,,,
2026-09-11T19:19:39.956,10.928212,1.782359,11.983502,16.503321,0.000000,8.280831,-2.848910,1.780156,-0.029969,-0.063093,-0.587833,10.981650,-4.232231,-0.045328,0.090996,-0.061609,0.356276,-4.265893,9.861665,0.823989,-1.561887,1,0,,38.990195,-76.938874,-11.555000,,,
2026-09-11T19:19:39.991,10.961625,1.782919,12.043445,16.508506,0.000000,7.665596,-2.637246,1.781030,-0.020829,-0.043850,-0.589620,11.030658,-4.265975,-0.123180,0.025208,-0.042367,0.617329,-3.612672,8.695066,0.849135,-1.785177,1,0,,38.990195,-76.938874,-11.555000,,,
2026-09-11T19:19:40.025,10.995046,1.792865,12.104278,16.600604,0.000000,5.843926,-2.010525,1.791762,-0.023083,-0.048597,-0.591165,11.079846,-4.299821,-0.046769,-0.039068,-0.047113,0.005394,2.324568,7.906906,0.837553,-1.621277,1,0,,38.990195,-76.938874,-11.555000,,,
2026-09-11T19:19:40.056,11.028460,1.793089,12.163224,16.602673,0.000000,2.058449,-0.708182,1.792952,0.003667,0.007721,-0.591848,11.129380,-4.333485,0.039432,-0.040038,0.009204,1.743426,5.787983,8.666529,0.938106,-1.241703,1,0,,38.990195,-76.938874,-11.555000,,,
2026-09-11T19:19:40.090,11.061874,1.812786,12.223800,16.785053,0.000000,-2.334709,0.803226,1.812608,-0.000852,-0.001794,-0.591749,11.179400,-4.367050,-0.002393,0.116956,-0.000311,-0.686858,-7.005381,9.395850,0.875209,-1.692867,1,0,,38.990195,-76.938874,-11.555000,,,
2026-09-11T19:19:40.123,11.095295,1.813423,12.284284,16.790952,0.000000,-2.485084,0.854960,1.813221,0.009239,0.019451,-0.591454,11.229771,-4.400725,0.081982,-0.096997,0.020935,0.435023,5.268623,0.853963,0.883141,-1.347406,1,0,,38.990195,-76.938874,-11.555000,,,
2026-09-11T19:19:40.156,11.128709,1.833492,12.345795,16.976775,0.000000,-2.984276,1.026700,1.833197,0.035728,0.075216,-0.589872,11.280787,-4.434027,0.067949,0.008186,0.076700,0.310086,2.858148,8.341929,0.882238,-1.168435,1,0,,38.990195,-76.938874,-11.555000,,,
2026-09-11T19:19:40.190,11.162129,1.814399,12.406414,16.799990,0.000000,-3.401069,1.170093,1.814021,0.028865,0.060769,-0.587600,11.332072,-4.466974,0.147823,0.005155,0.062252,0.573591,4.209308,6.825723,0.895954,-0.902194,1,0,,38.990195,-76.938874,-11.555000,,,
2026-09-11T19:19:40.223,11.195551,1.834596,12.468004,16.987003,0.000000,-3.287773,1.131115,1.834239,0.029856,0.062854,-0.585534,11.383391,-4.499901,0.021335,-0.021705,0.064338,0.387265,0.093555,8.989952,0.896269,-0.905535,1,0,,38.990195,-76.938874,-11.555000,,,
2026-09-11T19:19:40.256,11.228962,1.825286,12.529148,16.900793,0.000000,-3.416176,1.175290,1.824902,0.032390,0.068190,-0.583345,11.434946,-4.532760,-0.107529,-0.006886,0.069673,1.000278,1.474332,8.618673,0.938831,-0.820113,1,0,,38.990195,-76.938874,-11.555000,,,
2026-09-11T19:19:40.290,11.262379,1.815405,12.590275,16.809303,0.000000,-3.018608,1.038512,1.815106,0.029288,0.061660,-0.581175,11.486310,-4.565345,-0.077637,-0.004066,0.063143,0.336270,5.077883,6.128960,0.941769,-0.501664,1,0,,38.990195,-76.938874,-11.555000,,,
2026-09-11T19:19:40.324,11.295798,1.806195,12.650779,16.724025,0.000000,-3.256874,1.120484,1.805849,0.027872,0.058677,-0.579164,11.537437,-4.597712,-0.120742,-0.047098,0.060161,0.152984,1.229852,9.529710,0.935331,-0.435317,1,0,,38.990195,-76.938874,-11.555000,,,
2026-09-11T19:19:40.357,11.329213,1.806375,12.711088,16.725693,0.000000,-2.995262,1.030480,1.806083,0.014842,0.031246,-0.577662,11.588357,-4.630105,-0.010783,-0.002966,0.032730,0.035598,-0.376183,9.012115,0.924478,-0.470412,1,0,,38.990195,-76.938874,-11.555000,,,
2026-09-11T19:19:40.391,11.362623,1.787754,12.771241,16.553282,0.000000,-3.166923,1.089538,1.787431,0.025094,0.052830,-0.576257,11.639033,-4.662291,-0.052225,-0.031029,0.054313,-1.344590,4.292763,5.937927,0.828788,-0.205543,1,0,,38.990195,-76.938874,-11.555000,,,
2026-09-11T19:19:40.424,11.396043,1.768774,12.829068,16.377540,0.000000,-3.283653,1.129697,1.768430,0.027825,0.058579,-0.574396,11.689367,-4.693880,0.061322,0.036250,0.060062,-0.584672,2.721836,9.378100,0.784635,-0.045765,1,0,,38.990195,-76.938874,-11.555000,,,
2026-09-11T19:19:40.457,11.429457,1.759151,12.888233,16.288432,0.000000,-3.288460,1.131351,1.758808,0.033284,0.070072,-0.572246,11.739428,-4.724987,0.016948,-0.031712,0.071555,-0.095517,-1.510322,10.230886,0.773984,-0.162880,1,0,,38.990195,-76.938874,-11.555000,,,
2026-09-11T19:19:40.490,11.462863,1.750022,12.946048,16.203906,0.000000,-3.539085,1.217575,1.749627,0.026053,0.054849,-0.570160,11.789262,-4.755836,0.138048,0.040672,0.056332,-0.654005,2.287303,10.899111,0.729851,-0.031255,1,0,,38.990195,-76.938874,-11.555000,,,
2026-09-11T19:19:40.524,11.496282,1.731214,13.004312,16.029756,0.000000,-3.686714,1.268365,1.730789,0.037066,0.078034,-0.567939,11.838822,-4.786284,0.065138,-0.012414,0.079518,0.855042,1.017146,9.632484,0.783885,0.014243,1,0,,38.990195,-76.938874,-11.555000,,,
2026-09-11T19:19:40.558,11.529699,1.702515,13.061430,15.764023,0.000000,-3.761558,1.294114,1.702080,0.032476,0.068370,-0.565493,11.887837,-4.816098,0.077371,-0.032577,0.069853,-0.425118,6.717948,11.309421,0.754413,0.429364,1,0,,38.990195,-76.938874,-11.555000,,,
2026-09-11T19:19:40.591,11.563110,1.712871,13.118654,15.859914,0.000000,-3.281593,1.128988,1.712538,0.030117,0.063403,-0.563292,11.936592,-4.845727,0.051314,-0.013574,0.064887,1.703513,4.678655,8.594450,0.863102,0.708417,1,0,,38.990195,-76.938874,-11.555000,,,
2026-09-11T19:19:40.624,11.596529,1.674435,13.174392,15.504031,0.000000,-3.074913,1.057883,1.674150,0.035773,0.075312,-0.560974,11.985060,-4.874958,-0.016709,-0.016797,0.076795,1.186703,-0.689309,10.175282,0.935938,0.635853,1,0,,38.990195,-76.938874,-11.555000,,,
2026-09-11T19:19:40.658,11.629944,1.665233,13.230174,15.418826,0.000000,-3.114738,1.071584,1.664942,0.027138,0.057132,-0.558761,12.032889,-4.903695,-0.024711,-0.033654,0.058616,-0.648122,2.593173,10.260894,0.889847,0.778560,1,0,,38.990195,-76.938874,-11.555000,,,
2026-09-11T19:19:40.691,11.663363,1.655331,13.285665,15.327135,0.000000,-3.331032,1.145997,1.654999,0.030681,0.064592,-0.556727,12.080467,-4.932236,-0.042877,-0.007547,0.066076,1.053626,-0.420411,9.354171,0.956421,0.723866,1,0,,38.990195,-76.938874,-11.555000,,,
2026-09-11T19:19:40.724,11.696786,1.645790,13.339920,15.238794,0.000000,-3.319359,1.141981,1.645463,0.027370,0.057621,-0.554685,12.127836,-4.960510,-0.004395,0.018113,0.059104,-0.288610,1.619568,9.760559,0.934867,0.802626,1,0,,38.990195,-76.938874,-11.555000,,,
2026-09-11T19:19:40.758,11.730212,1.626712,13.394212,15.062151,0.000000,-3.449821,1.186865,1.626363,0.025354,0.053377,-0.552830,12.174809,-4.988517,0.009962,0.029008,0.054861,2.121571,4.747595,8.882668,1.067413,1.083598,1,1,11.731235,38.990196,-76.938895,-11.567000,-12.764207,-1.636975,3.619774
2026-09-11T19:19:40.791,11.763633,1.627015,13.448511,15.064953,0.000000,-3.289833,1.131823,1.626697,0.037302,0.078530,-0.550626,12.221652,-5.016118,-0.076801,0.071654,0.080013,0.401680,-2.120492,6.481215,1.084664,0.914089,1,0,,38.990196,-76.938895,-11.567000,,,
2026-09-11T19:19:40.825,11.797053,1.607829,13.502253,14.887307,0.000000,-3.478660,1.196787,1.607478,0.031900,0.067157,-0.548191,12.268345,-5.043353,-0.110292,-0.005820,0.068641,-1.130511,-0.381479,8.534826,1.004380,0.860339,1,0,,38.990196,-76.938895,-11.567000,,,
2026-09-11T19:19:40.858,11.830468,1.618074,13.556674,14.982171,0.000000,-4.517555,1.554205,1.617479,0.041305,0.086958,-0.545616,12.315004,-5.070329,-0.041806,-0.012107,0.088441,0.135038,0.509750,10.395245,1.008863,0.862765,1,0,,38.990196,-76.938895,-11.567000,,,
2026-09-11T19:19:40.892,11.863882,1.608793,13.610220,14.896232,0.000000,-5.918998,2.036353,1.607777,0.046491,0.097876,-0.542528,12.361866,-5.096965,-0.067888,0.046018,0.099360,0.268310,0.077669,11.594697,1.020638,0.836116,1,0,,38.990196,-76.938895,-11.567000,,,
2026-09-11T19:19:40.925,11.897299,1.570371,13.662619,14.540474,0.000000,-7.207832,2.479759,1.568901,0.057405,0.120853,-0.538874,12.408265,-5.122799,0.013336,-0.042646,0.122336,-0.644787,1.119331,9.580607,0.973646,0.875103,1,0,,38.990196,-76.938895,-11.567000,,,
2026-09-11T19:19:40.958,11.930708,1.551472,13.714692,14.365481,0.000000,-9.466896,3.256960,1.548966,0.069059,0.145387,-0.534426,12.454105,-5.147612,-0.030808,0.034655,0.146871,-0.906134,-1.207101,10.235789,0.911337,0.760785,1,0,,38.990196,-76.938895,-11.567000,,,
2026-09-11T19:19:40.992,11.964119,1.561945,13.767698,14.462452,0.000000,-13.065605,4.495048,1.557140,0.060813,0.128026,-0.529859,12.499920,-5.172069,0.116935,0.002652,0.129510,1.034209,0.677247,8.928367,0.974497,0.771355,1,0,,38.990196,-76.938895,-11.567000,,,
2026-09-11T19:19:41.026,11.997539,1.562331,13.819254,14.466024,0.000000,-14.802131,5.092476,1.556164,0.071381,0.150275,-0.525208,12.545982,-5.196349,0.098783,0.036000,0.151758,-0.348921,-1.211710,9.920702,0.947221,0.657297,1,0,,38.990196,-76.938895,-11.567000,,,
2026-09-11T19:19:41.059,12.030950,1.552885,13.870685,14.378566,0.000000,-14.675789,5.049010,1.546860,0.071267,0.150035,-0.520191,12.592087,-5.220163,-0.052373,-0.069807,0.151519,0.876224,0.220453,7.654777,0.999539,0.637333,1,0,,38.990196,-76.938895,-11.567000,,,
2026-09-11T19:19:41.092,12.064362,1.514333,13.921056,14.021602,0.000000,-14.634590,5.034836,1.508490,0.070793,0.149037,-0.515195,12.637615,-5.243362,0.109239,-0.016005,0.150521,1.018519,5.940574,9.479010,1.060457,0.988276,1,0,,38.990196,-76.938895,-11.567000,,,
2026-09-11T19:19:41.126,12.097783,1.495167,13.971334,13.844136,0.000000,-14.504814,4.990188,1.489499,0.066549,0.140104,-0.510363,12.682395,-5.265940,0.048160,0.022544,0.141587,0.817580,2.545904,7.835219,1.108902,1.116720,1,0,,38.990196,-76.938895,-11.567000,,,
2026-09-11T19:19:41.159,12.131195,1.485604,14.020890,13.755594,0.000000,-13.359489,4.596155,1.480827,0.059562,0.125393,-0.505928,12.726772,-5.288244,-0.075314,0.000680,0.126877,0.308027,-4.243632,9.148624,1.121843,0.805715,1,0,,38.990196,-76.938895,-11.567000,,,
2026-09-11T19:19:41.192,12.164617,1.466398,14.069828,13.577760,0.000000,-11.953926,4.112589,1.462622,0.048497,0.102099,-0.502126,12.770716,-5.310419,-0.069642,0.033814,0.103582,0.312930,-1.777161,7.432558,1.132347,0.660131,1,0,,38.990196,-76.938895,-11.567000,,,
2026-09-11T19:19:41.226,12.198036,1.447313,14.117868,13.401044,0.000000,-9.771766,3.361846,1.444822,0.042200,0.088842,-0.498936,12.814065,-5.332404,0.097771,-0.000271,0.090326,-2.123924,3.145385,10.564998,0.985964,0.836184,1,0,,38.990196,-76.938895,-11.567000,,,
2026-09-11T19:19:41.259,12.231444,1.448013,14.165777,13.407525,0.000000,-5.591469,1.923670,1.447197,0.034916,0.073508,-0.496224,12.857131,-5.354330,0.032978,0.051380,0.074992,0.637236,-1.029502,5.171243,1.021730,0.741482,1,0,,38.990196,-76.938895,-11.567000,,,
2026-09-11T19:19:41.292,12.264866,1.429129,14.212910,13.232676,0.000000,-4.167366,1.433727,1.428682,0.032156,0.067697,-0.493864,12.899953,-5.376176,0.041079,-0.057177,0.069180,-0.095811,0.882991,8.436661,1.008311,0.772234,1,0,,38.990196,-76.938895,-11.567000,,,
2026-09-11T19:19:41.326,12.298288,1.429414,14.260295,13.235314,0.000000,-3.628349,1.248285,1.429075,0.032888,0.069238,-0.491576,12.942541,-5.397807,0.091102,0.000839,0.070721,0.346469,0.440809,9.942178,1.020580,0.773874,1,0,,38.990196,-76.938895,-11.567000,,,
2026-09-11T19:19:41.359,12.331699,1.420227,14.307587,13.150253,0.000000,-2.938270,1.010873,1.420006,0.014519,0.030567,-0.489909,12.984893,-5.419540,0.057545,-0.007600,0.032050,-0.538581,-0.547211,8.631029,0.970430,0.715146,1,0,,38.990196,-76.938895,-11.567000,,,
2026-09-11T19:19:41.393,12.365112,1.410999,14.354544,13.064808,0.000000,-2.561302,0.881182,1.410832,0.007457,0.015699,-0.489136,13.026806,-5.441454,-0.004250,0.024940,0.017182,-0.125329,-0.346861,11.189094,0.943283,0.671409,1,0,,38.990196,-76.938895,-11.567000,,,
2026-09-11T19:19:41.427,12.398535,1.401716,14.401085,12.978851,0.000000,-1.050682,0.361473,1.401688,0.003031,0.006380,-0.488767,13.068382,-5.463376,-0.022885,-0.051413,0.007864,0.381086,-1.113349,9.651019,0.944938,0.579382,1,0,,38.990196,-76.938895,-11.567000,,,
2026-09-11T19:19:41.459,12.431950,1.392512,14.447266,12.893627,0.000000,1.503639,-0.517307,1.392455,-0.016300,-0.034316,-0.489234,13.109489,-5.485500,-0.102172,-0.039748,-0.032832,0.224474,-2.241800,10.816343,0.928416,0.419044,1,0,,38.990196,-76.938895,-11.567000,,,
2026-09-11T19:19:41.493,12.465362,1.373790,14.494130,12.720278,0.000000,3.825188,-1.316005,1.373428,-0.015981,-0.033644,-0.490369,13.150010,-5.507714,-0.160210,-0.034561,-0.032161,0.632529,-2.807056,8.619261,0.931204,0.223825,1,0,,38.990196,-76.938895,-11.567000,,,
2026-09-11T19:19:41.527,12.498782,1.374144,14.539227,12.723559,0.000000,5.434685,-1.869731,1.373413,-0.030420,-0.064042,-0.492001,13.190117,-5.530047,-0.119368,0.002414,-0.062559,0.449733,0.258111,10.007392,0.916705,0.231811,1,0,,38.990196,-76.938895,-11.567000,,,
2026-09-11T19:19:41.560,12.532201,1.384324,14.585281,12.817815,0.000000,5.747795,-1.977453,1.383500,-0.023957,-0.050435,-0.493914,13.230268,-5.552648,-0.065136,0.028830,-0.048951,0.558489,0.085710,9.646998,0.900169,0.227374,1,0,,38.990196,-76.938895,-11.567000,,,
2026-09-11T19:19:41.593,12.565616,1.374683,14.631321,12.728544,0.000000,5.571327,-1.916741,1.373914,-0.036261,-0.076338,-0.496032,13.270332,-5.575417,-0.079220,0.025706,-0.074854,0.786689,1.864146,10.977074,0.889357,0.340347,1,0,,38.990196,-76.938895,-11.567000,,,
2026-09-11T19:19:41.627,12.599040,1.403752,14.678066,12.997703,0.000000,5.167580,-1.777837,1.403076,-0.027557,-0.058015,-0.498277,13.310614,-5.598488,-0.041612,0.032352,-0.056531,0.972427,1.615940,11.525266,0.881458,0.434512,1,0,,38.990196,-76.938895,-11.567000,,,
2026-09-11T19:19:41.660,12.632453,1.413653,14.725609,13.089375,0.000000,5.074196,-1.745710,1.412996,-0.025047,-0.052730,-0.500128,13.351498,-5.621783,-0.010854,0.028823,-0.051246,0.740304,-0.631842,11.444263,0.848282,0.381703,1,0,,38.990196,-76.938895,-11.567000,,,
2026-09-11T19:19:41.694,12.665875,1.443333,14.773679,13.364191,0.000000,5.251351,-1.806657,1.442615,-0.029984,-0.063124,-0.502064,13.392909,-5.645513,0.037635,0.011241,-0.061641,1.116683,0.408251,8.657017,0.833260,0.397860,1,0,,38.990196,-76.938895,-11.567000,,,
2026-09-11T19:19:41.727,12.699298,1.501845,14.823562,13.905970,0.000000,5.159340,-1.775002,1.501124,-0.029204,-0.061483,-0.504146,13.435530,-5.670100,-0.014419,-0.014292,-0.059999,1.956721,1.173856,9.752616,0.865451,0.463477,1,0,,38.990196,-76.938895,-11.567000,,,
2026-09-11T19:19:41.760,12.732754,1.541080,14.875367,14.269259,0.000000,5.765648,-1.983595,1.540157,-0.033574,-0.070681,-0.506357,13.479540,-5.695644,-0.032169,0.023613,-0.069198,1.211023,0.182502,10.921372,0.845734,0.465270,1,1,12.728545,38.990195,-76.938912,-11.551000,-14.225825,-1.702765,3.619774
2026-09-11T19:19:41.794,12.766175,1.570331,14.928015,14.540104,0.000000,7.210350,-2.480625,1.568860,-0.030283,-0.063753,-0.508603,13.524426,-5.721825,-0.002757,0.053378,-0.062270,2.293187,0.262230,9.648665,0.899557,0.471629,1,0,,38.990195,-76.938912,-11.551000,,,
2026-09-11T19:19:41.827,12.799598,1.667851,14.983847,15.443065,0.000000,9.625283,-3.311450,1.665066,-0.043624,-0.091840,-0.511204,13.570991,-5.749283,-0.064728,-0.018386,-0.090356,1.899058,-2.206398,8.748120,0.930007,0.321549,1,0,,38.990195,-76.938912,-11.551000,,,
2026-09-11T19:19:41.860,12.833016,1.706815,15.041131,15.803845,0.000000,10.750695,-3.698633,1.703260,-0.055227,-0.116268,-0.514681,13.619218,-5.778343,-0.094504,-0.025549,-0.114785,2.149520,0.013827,8.280637,0.981228,0.319767,1,0,,38.990195,-76.938912,-11.551000,,,
2026-09-11T19:19:41.894,12.866430,1.794921,15.101993,16.619639,0.000000,12.680855,-4.362679,1.789720,-0.080793,-0.170091,-0.519465,13.668820,-5.809169,-0.054540,0.034078,-0.168607,2.429401,1.739406,12.916045,1.055329,0.436555,1,0,,38.990195,-76.938912,-11.551000,,,
2026-09-11T19:19:41.928,12.899848,1.853831,15.162775,17.165104,0.000000,16.265145,-5.595807,1.844997,-0.098944,-0.208303,-0.525788,13.719944,-5.842088,0.035308,-0.037175,-0.206819,2.854324,-1.305952,10.966973,1.163068,0.360139,1,0,,38.990195,-76.938912,-11.551000,,,
2026-09-11T19:19:41.961,12.933263,1.892819,15.226698,17.526102,0.000000,23.906136,-8.224588,1.873351,-0.116959,-0.246229,-0.533382,13.771733,-5.876585,-0.003705,-0.049518,-0.244745,1.083929,1.831294,9.364272,1.165607,0.492581,1,0,,38.990195,-76.938912,-11.551000,,,
2026-09-11T19:19:41.994,12.966674,1.951598,15.292257,18.070356,0.000000,24.036598,-8.269472,1.931307,-0.137932,-0.290383,-0.542346,13.824133,-5.912806,0.082449,-0.035995,-0.288900,0.925748,0.877107,9.365057,1.167935,0.568245,1,0,,38.990195,-76.938912,-11.551000,,,
2026-09-11T19:19:42.028,13.000094,1.932238,15.356477,17.891096,0.000000,28.348732,-9.753004,1.904312,-0.177796,-0.374308,-0.553453,13.876092,-5.950690,0.104759,0.019855,-0.372824,-0.857395,0.480330,11.662853,1.061334,0.627246,1,0,,38.990195,-76.938912,-11.551000,,,
2026-09-11T19:19:42.061,13.033507,1.922435,15.420766,17.800320,0.000000,30.115471,-10.360827,1.891089,-0.185350,-0.390210,-0.566225,13.926598,-5.989502,0.080882,-0.005925,-0.388727,1.286633,-0.020006,7.877192,1.103336,0.654829,1,0,,38.990195,-76.938912,-11.551000,,,
2026-09-11T19:19:42.095,13.066921,1.893627,15.484293,17.533579,0.000000,30.372963,-10.449414,1.862222,-0.189614,-0.399188,-0.579414,13.975901,-6.028750,0.201773,0.037475,-0.397705,-0.249481,4.882633,11.295005,1.055571,0.999801,1,0,,38.990195,-76.938912,-11.551000,,,
2026-09-11T19:19:42.128,13.100345,1.865175,15.546704,17.270139,0.000000,30.075646,-10.347126,1.834843,-0.173380,-0.365011,-0.592185,14.024033,-6.067962,0.106062,-0.015562,-0.363527,-0.463070,3.121064,10.921960,1.003042,1.222265,1,0,,38.990195,-76.938912,-11.551000,,,
2026-09-11T19:19:42.161,13.133762,1.846254,15.608243,17.094946,0.000000,28.711281,-9.877734,1.818885,-0.168565,-0.354875,-0.604213,14.071262,-6.107061,-0.018353,0.010647,-0.353391,-1.216123,0.756093,10.504197,0.911489,1.287535,1,0,,38.990195,-76.938912,-11.551000,,,
2026-09-11T19:19:42.195,13.167184,1.788412,15.668197,16.559374,0.000000,25.629616,-8.817528,1.767276,-0.138691,-0.291980,-0.615023,14.117460,-6.145579,-0.102032,-0.015543,-0.290497,-0.329209,-0.803753,9.567662,0.885064,1.242692,1,0,,38.990195,-76.938912,-11.551000,,,
2026-09-11T19:19:42.228,13.200605,1.759882,15.726657,16.295200,0.000000,23.875237,-8.213958,1.741828,-0.109068,-0.229617,-0.623739,14.162805,-6.182992,-0.201243,0.010534,-0.228134,0.256836,0.019711,8.207872,0.903737,1.244158,1,0,,38.990195,-76.938912,-11.551000,,,
2026-09-11T19:19:42.261,13.234018,1.721610,15.783853,15.940835,0.000000,20.089760,-6.911615,1.709099,-0.087928,-0.185111,-0.630668,14.207555,-6.219491,-0.149445,-0.022639,-0.183628,-1.552687,1.353710,13.437660,0.808875,1.326564,1,0,,38.990195,-76.938912,-11.551000,,,
2026-09-11T19:19:42.295,13.267439,1.712792,15.841308,15.859184,0.000000,13.199959,-4.541270,1.707415,-0.055655,-0.117168,-0.635719,14.252160,-6.255208,-0.032121,0.034231,-0.115685,0.836115,4.992664,5.856041,0.867114,1.636250,1,0,,38.990195,-76.938912,-11.551000,,,
2026-09-11T19:19:42.329,13.300863,1.703432,15.897315,15.772515,0.000000,7.498055,-2.579606,1.701706,-0.027965,-0.058873,-0.638661,14.297123,-6.290228,0.005157,0.031872,-0.057389,1.078928,3.640032,9.503821,0.935842,1.848492,1,0,,38.990195,-76.938912,-11.551000,,,
2026-09-11T19:19:42.362,13.334283,1.684354,15.953780,15.595875,0.000000,2.478676,-0.852756,1.684168,-0.003884,-0.008177,-0.639781,14.342213,-6.324407,-0.016331,-0.041387,-0.006693,0.657928,1.623491,7.061377,0.970374,1.922132,1,0,,38.990195,-76.938912,-11.551000,,,
2026-09-11T19:19:42.395,13.367693,1.694353,16.010553,15.688449,0.000000,-3.409309,1.172927,1.693998,0.013812,0.029079,-0.639432,14.387590,-6.357958,-0.034422,-0.073225,0.030562,0.558195,-0.070706,4.612754,0.992685,1.881118,1,0,,38.990195,-76.938912,-11.551000,,,
2026-09-11T19:19:42.429,13.401115,1.684632,16.066769,15.598443,0.000000,-3.508186,1.206945,1.684258,0.018259,0.038441,-0.638304,14.433228,-6.391190,0.047598,-0.063969,0.039924,1.065591,3.727017,9.076839,1.041257,2.085625,1,0,,38.990195,-76.938912,-11.551000,,,
2026-09-11T19:19:42.462,13.434528,1.674907,16.122603,15.508402,0.000000,-4.752388,1.634996,1.674226,0.038137,0.080288,-0.636320,14.478882,-6.423819,0.034340,-0.014567,0.081772,0.197702,-2.031350,13.263298,1.025478,1.910265,1,0,,38.990195,-76.938912,-11.551000,,,
2026-09-11T19:19:42.496,13.467941,1.665697,16.178917,15.423124,0.000000,-5.897712,2.029030,1.664653,0.042283,0.089017,-0.633492,14.524590,-6.455821,0.030848,-0.018630,0.090500,0.976350,5.839468,5.381497,1.053330,2.245870,1,0,,38.990195,-76.938912,-11.551000,,,
2026-09-11T19:19:42.529,13.501364,1.646719,16.233716,15.247399,0.000000,-6.043968,2.079347,1.645635,0.042941,0.090402,-0.630494,14.570066,-6.487353,0.042366,-0.096427,0.091885,0.823170,4.388280,7.556318,1.065530,2.483842,1,0,,38.990195,-76.938912,-11.551000,,,
2026-09-11T19:19:42.562,13.534775,1.666677,16.289173,15.432198,0.000000,-6.922874,2.381723,1.665238,0.042633,0.089754,-0.627484,14.615632,-6.518737,0.048587,0.030494,0.091237,1.808444,0.629391,12.017167,1.136496,2.475461,1,0,,38.990195,-76.938912,-11.551000,,,
2026-09-11T19:19:42.596,13.568193,1.676590,16.345843,15.523983,0.000000,-7.753715,2.667563,1.674773,0.056080,0.118064,-0.624012,14.661832,-6.550087,0.011818,-0.025687,0.119548,1.906903,1.869344,9.935902,1.205278,2.544422,1,0,,38.990195,-76.938912,-11.551000,,,
2026-09-11T19:19:42.629,13.601611,1.706113,16.402725,15.797339,0.000000,-7.441978,2.560314,1.704409,0.052027,0.109531,-0.620209,14.708770,-6.581522,-0.029104,-0.060849,0.111014,1.143553,-2.315939,8.670256,1.217058,2.342033,1,0,,38.990195,-76.938912,-11.551000,,,
2026-09-11T19:19:42.662,13.635031,1.716097,16.459855,15.889783,0.000000,-6.891975,2.371092,1.714627,0.043704,0.092008,-0.616841,14.756246,-6.613346,0.032381,-0.063792,0.093492,2.183255,3.539416,8.394591,1.287249,2.523323,1,0,,38.990195,-76.938912,-11.551000,,,
2026-09-11T19:19:42.696,13.668452,1.736300,16.517906,16.076851,0.000000,-5.545463,1.907843,1.735337,0.030835,0.064916,-0.614219,14.804034,-6.645615,0.052717,-0.023932,0.066400,0.637138,3.696519,7.098053,1.246407,2.715756,1,0,,38.990195,-76.938912,-11.551000,,,
2026-09-11T19:19:42.729,13.701872,1.755844,16.576297,16.257818,0.000000,-4.479103,1.540976,1.755209,0.025356,0.053381,-0.612242,14.852275,-6.678415,0.016253,-0.011105,0.054865,2.168741,-0.352059,9.745947,1.297675,2.644777,1,0,,38.990195,-76.938912,-11.551000,,,
2026-09-11T19:19:42.763,13.735281,1.785448,16.635698,16.531927,0.000000,-3.552818,1.222300,1.785042,0.023872,0.050257,-0.610511,14.901173,-6.711687,-0.072702,-0.003125,0.051741,2.631026,-4.632563,7.641734,1.369534,2.297478,1,1,13.729930,38.990197,-76.938931,-11.590000,-15.903799,-1.541903,3.713449
2026-09-11T19:19:42.796,13.768705,1.805176,16.696291,16.714597,0.000000,-3.371544,1.159935,1.804807,0.018539,0.039029,-0.609019,14.950760,-6.745462,-0.032537,0.007639,0.040513,0.349999,-1.856889,7.134730,1.286527,2.135131,1,0,,38.990197,-76.938931,-11.590000,,,
2026-09-11T19:19:42.830,13.802122,1.853861,16.758029,17.165384,0.000000,-3.298073,1.134658,1.853498,0.008087,0.017024,-0.608082,15.001167,-6.780041,-0.046097,0.029796,0.018508,1.412060,4.269815,8.745276,1.273798,2.374181,1,0,,38.990197,-76.938931,-11.590000,,,
2026-09-11T19:19:42.863,13.835544,1.902469,16.821405,17.615454,0.000000,-2.732277,0.940003,1.902213,0.025424,0.053525,-0.606903,15.053020,-6.815405,-0.018445,0.050225,0.055009,1.672818,-2.519230,9.596592,1.283707,2.166018,1,0,,38.990197,-76.938931,-11.590000,,,
2026-09-11T19:19:42.897,13.868956,1.951055,16.887023,18.065325,0.000000,-1.663856,0.572428,1.950958,0.007377,0.015530,-0.605749,15.106229,-6.851637,-0.045446,0.113757,0.017013,2.010756,-0.887698,8.108923,1.322985,2.070590,1,0,,38.990197,-76.938931,-11.590000,,,
2026-09-11T19:19:42.930,13.902373,2.038761,16.955627,18.877418,0.000000,-0.302238,0.103981,2.038758,-0.025041,-0.052719,-0.606371,15.160849,-6.889852,-0.070192,0.023555,-0.051235,1.774317,1.003416,6.856123,1.355473,2.107671,1,0,,38.990197,-76.938931,-11.590000,,,
2026-09-11T19:19:42.963,13.935782,2.087357,17.025424,19.327379,0.000000,1.143151,-0.393286,2.087308,-0.024618,-0.051828,-0.608117,15.216978,-6.929863,-0.064594,0.004878,-0.050344,0.574768,0.058252,10.453203,1.319393,2.083150,1,0,,38.990197,-76.938931,-11.590000,,,
2026-09-11T19:19:42.997,13.969196,2.136339,17.097577,19.780912,0.000000,2.209511,-0.760153,2.136151,-0.024490,-0.051559,-0.609844,15.274384,-6.970899,-0.078532,0.031743,-0.050075,-0.224474,1.797167,2.030467,1.238841,2.171690,1,0,,38.990197,-76.938931,-11.590000,,,
2026-09-11T19:19:43.030,14.002610,2.194909,17.171268,20.323228,0.000000,3.032113,-1.043158,2.194545,-0.029958,-0.063070,-0.611760,15.333134,-7.013142,-0.110227,-0.027563,-0.061587,0.990177,3.562266,10.166358,1.242899,2.375482,1,0,,38.990197,-76.938931,-11.590000,,,
2026-09-11T19:19:43.063,14.036023,2.234304,17.245470,20.688001,0.000000,0.899392,-0.309424,2.234271,-0.014045,-0.029568,-0.613307,15.393248,-7.056283,0.055377,0.086130,-0.028085,-0.096596,3.125085,9.487444,1.182249,2.544018,1,0,,38.990197,-76.938931,-11.590000,,,
2026-09-11T19:19:43.097,14.069438,2.215446,17.319095,20.513391,0.000000,-1.762733,0.606445,2.215322,0.003672,0.007730,-0.613672,15.453933,-7.099225,-0.008552,0.006306,0.009213,0.680091,2.093033,8.769597,1.180304,2.638429,1,0,,38.990197,-76.938931,-11.590000,,,
2026-09-11T19:19:43.130,14.102934,2.186890,17.392044,20.248980,0.000000,-2.314109,0.796138,2.186679,0.027349,0.057577,-0.612578,15.514529,-7.141224,0.235607,0.035296,0.059060,-0.956050,0.982038,11.589989,1.080374,2.652757,1,0,,38.990197,-76.938931,-11.590000,,,
2026-09-11T19:19:43.164,14.136346,2.138103,17.463129,19.797245,0.000000,-3.765678,1.295531,2.137556,0.033953,0.071480,-0.610422,15.574265,-7.181859,0.084985,0.007291,0.072963,-0.768351,0.204665,12.768651,1.002627,2.614755,1,0,,38.990197,-76.938931,-11.590000,,,
2026-09-11T19:19:43.198,14.169767,2.079689,17.532515,19.256381,0.000000,-4.216804,1.450735,2.079023,0.050800,0.106947,-0.607441,15.632871,-7.221002,0.110192,0.071603,0.108430,1.075888,2.224541,8.034000,1.052600,2.703628,1,0,,38.990197,-76.938931,-11.590000,,,
2026-09-11T19:19:43.230,14.203190,2.031594,17.600067,18.811059,0.000000,-3.405876,1.171746,2.031170,0.039716,0.083612,-0.604256,15.690193,-7.258874,0.001870,0.105726,0.085096,-2.649855,-4.050441,9.193735,0.866821,2.388062,1,0,,38.990197,-76.938931,-11.590000,,,
2026-09-11T19:19:43.264,14.236602,2.022135,17.667866,18.723472,0.000000,-2.118416,0.728813,2.021971,0.033522,0.070572,-0.601680,15.746659,-7.296265,-0.084921,-0.007393,0.072056,-0.898878,-1.776377,3.851170,0.805222,2.225283,1,0,,38.990197,-76.938931,-11.590000,,,
2026-09-11T19:19:43.298,14.270023,2.002969,17.734994,18.546008,0.000000,2.232857,-0.768185,2.002789,-0.002846,-0.005992,-0.600601,15.802414,-7.333881,-0.065814,0.009868,-0.004509,-0.125819,-3.508721,8.226210,0.803134,1.962068,1,0,,38.990197,-76.938931,-11.590000,,,
2026-09-11T19:19:43.331,14.303440,2.003153,17.801883,18.547712,0.000000,6.110344,-2.102183,2.001805,-0.033759,-0.071072,-0.601889,15.857244,-7.372235,-0.142830,0.025007,-0.069588,-0.069823,4.469969,8.479418,0.807885,2.227225,1,0,,38.990197,-76.938931,-11.590000,,,
2026-09-11T19:19:43.364,14.336852,1.983971,17.868303,18.370101,0.000000,9.586830,-3.298221,1.980685,-0.047297,-0.099573,-0.604740,15.911262,-7.411098,-0.020791,-0.069458,-0.098090,1.223183,0.570355,7.982907,0.893190,2.240325,1,0,,38.990197,-76.938931,-11.590000,,,
2026-09-11T19:19:43.398,14.370262,1.975054,17.934582,18.287538,0.000000,8.624153,-2.967025,1.972406,-0.048270,-0.101621,-0.608101,15.964613,-7.450045,-0.020276,-0.061718,-0.100138,-1.054803,0.871909,4.488700,0.823119,2.273027,1,0,,38.990197,-76.938931,-11.590000,,,
2026-09-11T19:19:43.431,14.403683,1.985460,18.001840,18.383887,0.000000,8.526650,-2.933480,1.982858,-0.046617,-0.098142,-0.611439,16.017889,-7.489196,-0.035460,-0.035702,-0.096658,0.315088,1.182682,7.388428,0.833018,2.325144,1,0,,38.990197,-76.938931,-11.590000,,,
2026-09-11T19:19:43.464,14.437096,1.995742,18.068151,18.479097,0.000000,7.053108,-2.426528,1.993953,-0.028716,-0.060454,-0.614088,16.071515,-7.528436,-0.120374,-0.046111,-0.058971,-0.788062,-1.306148,8.863054,0.763176,2.210597,1,0,,38.990197,-76.938931,-11.590000,,,
2026-09-11T19:19:43.498,14.470506,1.986267,18.134196,18.391363,0.000000,5.083809,-1.749017,1.985342,-0.028929,-0.060904,-0.616116,16.125250,-7.567581,0.040222,-0.039683,-0.059420,0.624291,3.874607,6.251347,0.783034,2.433044,1,0,,38.990197,-76.938931,-11.590000,,,
2026-09-11T19:19:43.531,14.503929,1.966840,18.200199,18.211479,0.000000,0.985909,-0.339189,1.966805,-0.008188,-0.017237,-0.617421,16.178769,-7.606289,-0.021399,0.009067,-0.015753,0.388147,0.955364,11.231753,0.786106,2.458244,1,0,,38.990197,-76.938931,-11.590000,,,
2026-09-11T19:19:43.565,14.537347,1.947693,18.265023,18.034199,0.000000,-1.475715,0.507700,1.947617,0.013336,0.028076,-0.617240,16.232153,-7.644080,0.030691,0.007253,0.029559,1.564749,1.205532,8.086073,0.862700,2.493636,1,0,,38.990197,-76.938931,-11.590000,,,
2026-09-11T19:19:43.599,14.570774,1.938461,18.330487,17.948714,0.000000,-2.403373,0.826849,1.938259,0.006898,0.014523,-0.616528,16.285324,-7.681375,-0.064115,-0.048167,0.016006,0.065214,6.108072,11.090635,0.838618,2.848326,1,0,,38.990197,-76.938931,-11.590000,,,
2026-09-11T19:19:43.632,14.604196,1.948552,18.395789,18.042149,0.000000,-2.660179,0.915199,1.948303,0.007826,0.016477,-0.616010,16.338468,-7.718715,0.155286,0.025343,0.017960,-3.097038,1.853065,8.116572,0.608775,2.922881,1,0,,38.990197,-76.938931,-11.590000,,,
2026-09-11T19:19:43.665,14.637619,1.968158,18.461406,18.223685,0.000000,-2.943077,1.012526,1.967851,0.023159,0.048756,-0.614920,16.392202,-7.756075,-0.112090,0.036779,0.050240,-0.799046,5.866534,9.145290,0.531750,3.252878,1,0,,38.990197,-76.938931,-11.590000,,,
2026-09-11T19:19:43.699,14.671041,1.988138,18.528094,18.408684,0.000000,-3.378410,1.162297,1.987729,0.037355,0.078643,-0.612791,16.446818,-7.793324,-0.122060,-0.094473,0.080126,3.905302,2.659367,6.714025,0.763513,3.367254,1,0,,38.990197,-76.938931,-11.590000,,,
2026-09-11T19:19:43.732,14.704465,1.989018,18.594219,18.416838,0.000000,-3.767738,1.296240,1.988509,0.048247,0.101573,-0.609779,16.502057,-7.830290,0.050023,0.050215,0.103056,0.120916,5.232142,4.397694,0.750296,3.644458,1,0,,38.990197,-76.938931,-11.590000,,,
2026-09-11T19:19:43.766,14.737877,1.970060,18.660112,18.241293,0.000000,-3.472481,1.194661,1.969631,0.031491,0.066298,-0.606975,16.557078,-7.866990,0.008610,0.075626,0.067781,0.285864,0.407368,8.947490,0.746796,3.610015,1,1,14.731311,38.990198,-76.938954,-11.634000,-17.860210,-1.378446,3.619280
2026-09-11T19:19:43.799,14.771295,1.980402,18.727101,18.337059,0.000000,-3.631782,1.249466,1.979931,0.036742,0.077352,-0.604575,16.611978,-7.903629,0.029583,0.118597,0.078835,-0.228887,-4.041026,12.199081,0.708194,3.285788,1,0,,38.990198,-76.938954,-11.634000,,,
2026-09-11T19:19:43.833,14.804713,1.990748,18.794234,18.432856,0.000000,-3.383217,1.163951,1.990338,0.036353,0.076533,-0.602004,16.667300,-7.940261,-0.004370,0.019179,0.078016,0.993316,-2.497067,12.223009,0.748647,3.065487,1,0,,38.990198,-76.938954,-11.634000,,,
2026-09-11T19:19:43.866,14.838129,2.000592,18.860850,18.523998,0.000000,-4.655571,1.601687,1.999810,0.030643,0.064511,-0.599647,16.722924,-7.977026,0.037712,-0.002023,0.065994,-0.014710,-0.464933,8.135695,0.726181,2.981003,1,0,,38.990198,-76.938954,-11.634000,,,
2026-09-11T19:19:43.899,14.871547,1.981224,18.927075,18.344664,0.000000,-5.653953,1.945167,1.980082,0.037581,0.079117,-0.597247,16.778510,-8.013548,0.106387,0.062265,0.080601,-0.882795,3.219033,10.388381,0.651703,3.134625,1,0,,38.990198,-76.938954,-11.634000,,,
2026-09-11T19:19:43.932,14.904969,1.981342,18.993164,18.345762,0.000000,-6.756019,2.324319,1.979712,0.078470,0.165199,-0.593164,16.834388,-8.049043,-0.005109,0.088958,0.166683,-0.531717,0.275763,7.371757,0.603400,3.084557,1,0,,38.990198,-76.938954,-11.634000,,,
2026-09-11T19:19:43.966,14.938381,1.952450,19.058286,18.078236,0.000000,-7.113762,2.447395,1.950669,0.080369,0.169198,-0.587578,16.890411,-8.083390,-0.063494,0.019514,0.170682,-2.083913,0.414037,5.209194,0.457232,3.043835,1,0,,38.990198,-76.938954,-11.634000,,,
2026-09-11T19:19:43.999,14.971793,1.942974,19.123847,17.990505,0.000000,-7.511329,2.584173,1.940999,0.074316,0.156456,-0.582138,16.946045,-8.117129,-0.009415,-0.057886,0.157939,0.219963,0.850531,8.645739,0.462477,3.033584,1,0,,38.990198,-76.938954,-11.634000,,,
2026-09-11T19:19:44.033,15.005216,1.943256,19.188821,17.993107,0.000000,-8.385429,2.884895,1.940793,0.081624,0.171840,-0.576651,17.001756,-8.150466,-0.208963,0.029945,0.173324,0.826799,-8.742040,4.117126,0.507495,2.399418,1,0,,38.990198,-76.938954,-11.634000,,,
2026-09-11T19:19:44.066,15.038632,1.934327,19.253568,17.910431,0.000000,-9.392051,3.231210,1.931251,0.079455,0.167273,-0.570985,17.057548,-8.183325,0.024155,-0.014437,0.168757,-1.300166,-1.803737,5.985979,0.416694,2.223038,1,0,,38.990198,-76.938954,-11.634000,,,
2026-09-11T19:19:44.100,15.072045,1.925168,19.317673,17.825628,0.000000,-11.918220,4.100305,1.920240,0.082965,0.174663,-0.565273,17.113245,-8.215659,-0.013305,0.019412,0.176146,-1.329586,1.328213,10.763975,0.326091,2.250781,1,0,,38.990198,-76.938954,-11.634000,,,
