timestamp,time_s,speed_mps,distance_m,wheel_omega_rad_s,motor_current_A,steer_motor_deg,steer_column_deg,vx_mps,vy_mps,yaw_rate_rad_s,heading_rad,x_m,y_m,gyro_x_rad_s,gyro_y_rad_s,gyro_z_rad_s,accel_x_mps2,accel_y_mps2,accel_z_mps2,grade_deg,bank_deg,moving,gps_new_fix,gps_time_s,gps_latitude_deg,gps_longitude_deg,gps_altitude_m,gps_east_m,gps_north_m,gps_sigma_m
2026-09-11T19:04:41.365,0.000015,-0.000000,-0.000000,-0.000000,0.000000,-33.508301,11.528085,-0.000000,-0.001057,-0.002226,0.000000,0.000000,0.000000,0.002283,-0.000485,-0.000742,-0.089829,0.418057,9.701719,-1.015056,1.646595,0,1,-0.199014,38.990337,-76.939889,-3.044000,0.000000,0.000000,3.603156
2026-09-11T19:04:41.399,0.033426,-0.000000,-0.000000,-0.000000,0.000000,-33.508301,11.528085,-0.000000,-0.000353,-0.000742,-0.000050,-0.000000,-0.000024,-0.000186,0.001965,0.000741,-0.078845,0.414135,9.707309,-1.014345,1.646341,0,0,,38.990337,-76.939889,-3.044000,,,
2026-09-11T19:04:41.433,0.066840,-0.000000,-0.000000,-0.000000,0.000000,-33.508301,11.528085,-0.000000,0.000533,0.001123,-0.000043,-0.000000,-0.000021,-0.000848,-0.000061,0.002606,-0.069627,0.398150,9.712016,-1.013046,1.645055,0,0,,38.990337,-76.939889,-3.044000,,,
2026-09-11T19:04:41.466,0.100259,-0.000000,-0.000000,-0.000000,0.000000,-33.508301,11.528085,-0.000000,0.000280,0.000590,-0.000015,0.000000,-0.000007,0.001256,-0.000225,0.002074,-0.079434,0.419430,9.723098,-1.012395,1.645161,0,0,,38.990337,-76.939889,-3.044000,,,
2026-09-11T19:04:41.501,0.133707,-0.000000,-0.000000,-0.000000,0.000000,-33.508301,11.528085,-0.000000,-0.000909,-0.001914,-0.000037,-0.000000,-0.000017,0.003941,0.002607,-0.000430,-0.079336,0.412958,9.707603,-1.011744,1.644847,0,0,,38.990337,-76.939889,-3.044000,,,
2026-09-11T19:04:41.534,0.167127,-0.000000,-0.000000,-0.000000,0.000000,-33.508301,11.528085,-0.000000,-0.001255,-0.002642,-0.000113,-0.000000,-0.000054,0.000733,-0.000374,-0.001159,-0.069725,0.418548,9.709466,-1.010480,1.644898,0,0,,38.990337,-76.939889,-3.044000,,,
2026-09-11T19:04:41.568,0.200546,0.009820,0.000422,0.090922,0.000000,-33.508301,11.528085,0.009621,-0.001363,-0.002869,-0.000205,0.000161,-0.000097,0.001504,0.000897,-0.001385,-0.063155,0.410310,9.714468,-1.008804,1.644417,0,0,,38.990337,-76.939889,-3.044000,,,
2026-09-11T19:04:41.601,0.233969,0.009820,0.000752,0.090922,0.000000,-33.508301,11.528085,0.009621,-0.000983,-0.002069,-0.000287,0.000482,-0.000137,0.002427,0.002077,-0.000586,-0.060703,0.405015,9.703190,-1.006988,1.643597,0,0,,38.990337,-76.939889,-3.044000,,,
2026-09-11T19:04:41.634,0.267390,0.009820,0.001071,0.090922,0.000000,-33.508301,11.528085,0.009621,-0.000034,-0.000071,-0.000323,0.000804,-0.000154,-0.001533,0.000088,0.001412,-0.075609,0.440809,9.713781,-1.006156,1.645104,0,0,,38.990337,-76.939889,-3.044000,,,
2026-09-11T19:04:41.668,0.300853,0.009820,0.001401,0.090922,0.000000,-33.508301,11.528085,0.009621,-0.001217,-0.002563,-0.000367,0.001126,-0.000175,0.001612,0.001493,-0.001079,-0.058546,0.403249,9.698189,-1.004227,1.644162,0,0,,38.990337,-76.939889,-3.044000,,,
2026-09-11T19:04:41.701,0.334275,0.009820,0.001732,0.090922,0.000000,-33.508301,11.528085,0.009621,-0.000984,-0.002071,-0.000445,0.001447,-0.000212,0.000792,0.000971,-0.000587,-0.067568,0.436984,9.720254,-1.002906,1.645416,0,0,,38.990337,-76.939889,-3.044000,,,
2026-09-11T19:04:41.735,0.367697,0.009820,0.002062,0.090922,0.000000,-33.508301,11.528085,0.009621,0.000971,0.002044,-0.000445,0.001769,-0.000212,-0.001029,-0.000002,0.003528,-0.069823,0.402073,9.711231,-1.001746,1.644393,0,0,,38.990337,-76.939889,-3.044000,,,
2026-09-11T19:04:41.768,0.401119,0.009820,0.002381,0.090922,0.000000,-33.508301,11.528085,0.009621,0.000321,0.000676,-0.000400,0.002091,-0.000191,0.002996,-0.000177,0.002159,-0.070510,0.441103,9.700738,-1.000642,1.645909,0,0,,38.990337,-76.939889,-3.044000,,,
2026-09-11T19:04:41.801,0.434542,0.009820,0.002712,0.090922,0.000000,-33.508301,11.528085,0.009621,0.000043,0.000091,-0.000387,0.002412,-0.000185,0.002608,-0.000026,0.001574,-0.077374,0.406388,9.708093,-0.999375,1.645161,0,0,,38.990337,-76.939889,-3.044000,,,
2026-09-11T19:04:41.835,0.467960,0.009820,0.003042,0.090922,0.000000,-33.508301,11.528085,0.009621,-0.000267,-0.000563,-0.000395,0.002734,-0.000189,0.002476,0.000681,0.000921,-0.074727,0.405603,9.712310,-0.997329,1.644371,0,0,,38.990337,-76.939889,-3.044000,,,
2026-09-11T19:04:41.869,0.501378,0.009820,0.003372,0.090922,0.000000,-33.508301,11.528085,0.009621,0.000493,0.001038,-0.000387,0.003055,-0.000185,0.003832,0.000363,0.002521,-0.081101,0.428943,9.710349,-0.995719,1.645100,0,0,,38.990337,-76.939889,-3.044000,,,
2026-09-11T19:04:41.902,0.534878,0.009820,0.003703,0.090922,0.000000,-33.508301,11.528085,0.009621,0.000425,0.000895,-0.000354,0.003378,-0.000170,0.002895,-0.000555,0.002379,-0.088260,0.404720,9.708388,-0.994586,1.644250,0,0,,38.990337,-76.939889,-3.044000,,,
2026-09-11T19:04:41.935,0.568300,0.009820,0.004033,0.090922,0.000000,-33.508301,11.528085,0.009621,-0.000897,-0.001889,-0.000371,0.003699,-0.000178,0.001936,0.001274,-0.000406,-0.092673,0.432473,9.705249,-0.993755,1.645211,0,0,,38.990337,-76.939889,-3.044000,,,
2026-09-11T19:04:41.969,0.601722,0.009820,0.004352,0.090922,0.000000,-33.508301,11.528085,0.009621,-0.000108,-0.000227,-0.000406,0.004021,-0.000195,0.001750,-0.000479,0.001257,-0.088750,0.422765,9.712114,-0.992679,1.645531,0,0,,38.990337,-76.939889,-3.044000,,,
2026-09-11T19:04:42.002,0.635146,0.009820,0.004683,0.090922,0.000000,-33.508301,11.528085,0.009621,-0.000126,-0.000266,-0.000415,0.004342,-0.000199,-0.000065,0.000244,0.001217,-0.096301,0.410114,9.697502,-0.992103,1.645028,0,0,,38.990337,-76.939889,-3.044000,,,
2026-09-11T19:04:42.036,0.668566,0.009820,0.005013,0.090922,0.000000,-33.508301,11.528085,0.009621,-0.000836,-0.001761,-0.000449,0.004664,-0.000215,0.000675,0.001917,-0.000278,-0.090221,0.434042,9.698973,-0.991140,1.646082,0,0,,38.990337,-76.939889,-3.044000,,,
2026-09-11T19:04:42.069,0.701985,0.009820,0.005343,0.090922,0.000000,-33.508301,11.528085,0.009621,-0.000448,-0.000944,-0.000494,0.004985,-0.000236,-0.001789,-0.000132,0.000540,-0.088848,0.413743,9.706426,-0.990100,1.645809,0,0,,38.990337,-76.939889,-3.044000,,,
2026-09-11T19:04:42.102,0.735408,0.009820,0.005674,0.090922,0.000000,-33.508301,11.528085,0.009621,0.000300,0.000632,-0.000499,0.005307,-0.000239,-0.003344,-0.000008,0.002115,-0.097380,0.424040,9.711035,-0.989001,1.646205,0,0,,38.990337,-76.939889,-3.044000,,,
2026-09-11T19:04:42.136,0.768823,0.009820,0.005993,0.090922,0.000000,-33.508301,11.528085,0.009621,0.000032,0.000067,-0.000487,0.005628,-0.000234,-0.001917,0.001031,0.001551,-0.097772,0.437279,9.701719,-0.987320,1.647454,0,0,,38.990337,-76.939889,-3.044000,,,
2026-09-11T19:04:42.169,0.802248,0.009820,0.006323,0.090922,0.000000,-33.508301,11.528085,0.009621,0.000041,0.000086,-0.000485,0.005950,-0.000233,-0.006574,0.000453,0.001569,-0.085808,0.402759,9.708584,-0.984883,1.646453,0,1,0.801754,38.990337,-76.939889,-3.070000,0.044366,0.041142,3.603156
2026-09-11T19:04:42.203,0.835674,0.009820,0.006653,0.090922,0.000000,-33.508301,11.528085,0.009621,0.000131,0.000276,-0.000479,0.006272,-0.000230,-0.002796,0.001193,0.001760,-0.076002,0.427864,9.709760,-0.981838,1.647090,0,0,,38.990337,-76.939889,-3.070000,,,
2026-09-11T19:04:42.236,0.869092,0.009820,0.006984,0.090922,0.000000,-33.508301,11.528085,0.009621,-0.000384,-0.000808,-0.000488,0.006593,-0.000234,0.002742,0.000156,0.000675,-0.090025,0.416783,9.715154,-0.979734,1.647002,0,0,,38.990337,-76.939889,-3.070000,,,
2026-09-11T19:04:42.270,0.902508,0.009820,0.007303,0.090922,0.000000,-33.508301,11.528085,0.009621,-0.000159,-0.000334,-0.000507,0.006915,-0.000244,-0.002960,0.001083,0.001149,-0.099636,0.418057,9.708486,-0.978276,1.646998,0,0,,38.990337,-76.939889,-3.070000,,,
2026-09-11T19:04:42.303,0.935936,0.009820,0.007633,0.090922,0.000000,-33.508301,11.528085,0.009621,-0.000965,-0.002033,-0.000546,0.007236,-0.000262,-0.000316,0.001638,-0.000549,-0.086495,0.412272,9.699856,-0.975983,1.646620,0,0,,38.990337,-76.939889,-3.070000,,,
2026-09-11T19:04:42.336,0.969352,0.009820,0.007964,0.090922,0.000000,-33.508301,11.528085,0.009621,-0.000743,-0.001564,-0.000606,0.007558,-0.000291,0.002002,0.000104,-0.000081,-0.087966,0.405505,9.709172,-0.973812,1.645808,0,0,,38.990337,-76.939889,-3.070000,,,
2026-09-11T19:04:42.370,1.002776,-0.000000,0.007838,-0.000000,0.000000,-33.508301,11.528085,-0.000000,-0.001516,-0.003191,-0.000686,0.007719,-0.000329,-0.000528,0.000978,-0.001708,-0.087279,0.432473,9.708878,-0.971619,1.646750,0,0,,38.990337,-76.939889,-3.070000,,,
2026-09-11T19:04:42.403,1.036207,-0.000000,0.007838,-0.000000,0.000000,-33.508301,11.528085,-0.000000,-0.000864,-0.001818,-0.000770,0.007718,-0.000369,0.001561,0.001423,-0.000334,-0.082768,0.412664,9.711820,-0.969159,1.646399,0,0,,38.990337,-76.939889,-3.070000,,,
2026-09-11T19:04:42.437,1.069624,-0.000000,0.007838,-0.000000,0.000000,-33.508301,11.528085,-0.000000,-0.000517,-0.001089,-0.000818,0.007718,-0.000392,0.000927,0.000593,0.000395,-0.082866,0.403936,9.705642,-0.966733,1.645487,0,0,,38.990337,-76.939889,-3.070000,,,
2026-09-11T19:04:42.470,1.103040,-0.000000,0.007838,-0.000000,0.000000,-33.508301,11.528085,-0.000000,-0.000379,-0.000798,-0.000850,0.007718,-0.000407,0.002158,0.001052,0.000685,-0.085514,0.445712,9.705642,-0.964505,1.647290,0,0,,38.990337,-76.939889,-3.070000,,,
2026-09-11T19:04:42.504,1.136456,-0.000000,0.007838,-0.000000,0.000000,-33.508301,11.528085,-0.000000,-0.000437,-0.000920,-0.000878,0.007718,-0.000421,0.001595,0.001861,0.000563,-0.079826,0.404426,9.712801,-0.961934,1.646399,0,0,,38.990337,-76.939889,-3.070000,,,
2026-09-11T19:04:42.537,1.169878,-0.000000,0.007838,-0.000000,0.000000,-33.508301,11.528085,-0.000000,-0.000118,-0.000249,-0.000898,0.007718,-0.000430,-0.001116,0.001508,0.001234,-0.065410,0.436788,9.702209,-0.958458,1.647615,0,0,,38.990337,-76.939889,-3.070000,,,
2026-09-11T19:04:42.571,1.203294,-0.000000,0.007838,-0.000000,0.000000,-33.508301,11.528085,-0.000000,-0.000449,-0.000945,-0.000918,0.007718,-0.000439,0.003277,0.001114,0.000539,-0.079336,0.440417,9.710349,-0.955922,1.649051,0,0,,38.990337,-76.939889,-3.070000,,,
2026-09-11T19:04:42.604,1.236703,-0.000000,0.007838,-0.000000,0.000000,-33.508301,11.528085,-0.000000,-0.000963,-0.002027,-0.000967,0.007718,-0.000463,0.000691,0.000373,-0.000544,-0.088848,0.390501,9.709172,-0.954650,1.647240,0,0,,38.990337,-76.939889,-3.070000,,,
2026-09-11T19:04:42.637,1.270117,-0.000000,0.007838,-0.000000,0.000000,-33.508301,11.528085,-0.000000,-0.000179,-0.000376,-0.001008,0.007718,-0.000482,-0.003094,0.001169,0.001107,-0.077571,0.450616,9.701621,-0.953284,1.649341,0,0,,38.990337,-76.939889,-3.070000,,,
2026-09-11T19:04:42.671,1.303534,-0.000000,0.007838,-0.000000,0.000000,-33.508301,11.528085,-0.000000,0.000018,0.000038,-0.001013,0.007718,-0.000485,-0.003115,0.000042,0.001521,-0.081199,0.394914,9.709564,-0.952168,1.647812,0,0,,38.990337,-76.939889,-3.070000,,,
2026-09-11T19:04:42.704,1.336955,-0.000000,0.007838,-0.000000,0.000000,-33.508301,11.528085,-0.000000,-0.000274,-0.000577,-0.001022,0.007718,-0.000489,-0.004479,0.000774,0.000907,-0.074531,0.432669,9.702798,-0.950633,1.648745,0,0,,38.990337,-76.939889,-3.070000,,,
2026-09-11T19:04:42.737,1.370373,-0.000000,0.007838,-0.000000,0.000000,-33.508301,11.528085,-0.000000,-0.000341,-0.000718,-0.001044,0.007718,-0.000499,-0.001986,0.001695,0.000765,-0.062959,0.399523,9.714958,-0.948366,1.647521,0,0,,38.990337,-76.939889,-3.070000,,,
2026-09-11T19:04:42.771,1.403801,-0.000000,0.007838,-0.000000,0.000000,-33.508301,11.528085,-0.000000,-0.000803,-0.001690,-0.001084,0.007718,-0.000518,0.000097,0.000870,-0.000206,-0.066881,0.403053,9.706230,-0.946377,1.646539,0,0,,38.990337,-76.939889,-3.070000,,,
2026-09-11T19:04:42.804,1.437216,-0.000000,0.007838,-0.000000,0.000000,-33.508301,11.528085,-0.000000,-0.000165,-0.000347,-0.001118,0.007718,-0.000534,0.000854,-0.001066,0.001136,-0.074432,0.435808,9.719273,-0.944899,1.647689,0,0,,38.990337,-76.939889,-3.070000,,,
2026-09-11T19:04:42.838,1.470629,-0.000000,0.007838,-0.000000,0.000000,-33.508301,11.528085,-0.000000,-0.000421,-0.000885,-0.001139,0.007718,-0.000544,0.006993,0.001391,0.000598,-0.093752,0.389030,9.707407,-0.944688,1.645797,0,0,,38.990337,-76.939889,-3.070000,,,
2026-09-11T19:04:42.871,1.504044,-0.000000,0.007838,-0.000000,0.000000,-33.508301,11.528085,-0.000000,-0.000567,-0.001193,-0.001174,0.007718,-0.000561,0.005147,-0.000843,0.000290,-0.092575,0.423745,9.697698,-0.944403,1.646174,0,0,,38.990337,-76.939889,-3.070000,,,
2026-09-11T19:04:42.904,1.537458,-0.000000,0.007838,-0.000000,0.000000,-33.508301,11.528085,-0.000000,-0.000145,-0.000305,-0.001199,0.007718,-0.000573,0.002730,0.000132,0.001179,-0.096988,0.409820,9.713487,-0.944407,1.645645,0,0,,38.990337,-76.939889,-3.070000,,,
2026-09-11T19:04:42.938,1.570871,-0.000000,0.007838,-0.000000,0.000000,-33.508301,11.528085,-0.000000,-0.000830,-0.001747,-0.001233,0.007718,-0.000589,0.005945,0.001158,-0.000264,-0.090515,0.422470,9.713879,-0.943992,1.645942,0,0,,38.990337,-76.939889,-3.070000,,,
2026-09-11T19:04:42.971,1.604295,-0.000000,0.007838,-0.000000,0.000000,-33.508301,11.528085,-0.000000,0.000217,0.000456,-0.001254,0.007718,-0.000599,0.001474,-0.000222,0.001939,-0.078845,0.417175,9.701817,-0.942826,1.645892,0,0,,38.990337,-76.939889,-3.070000,,,
2026-09-11T19:04:43.005,1.637720,-0.000000,0.007838,-0.000000,0.000000,-33.508301,11.528085,-0.000000,0.000308,0.000648,-0.001236,0.007718,-0.000590,0.000245,-0.000175,0.002131,-0.087279,0.432473,9.715154,-0.942219,1.646833,0,0,,38.990337,-76.939889,-3.070000,,,
2026-09-11T19:04:43.038,1.671136,-0.000000,0.007838,-0.000000,0.000000,-33.508301,11.528085,-0.000000,-0.000337,-0.000709,-0.001237,0.007718,-0.000591,0.001945,0.000695,0.000775,-0.088064,0.418940,9.709662,-0.941669,1.646888,0,0,,38.990337,-76.939889,-3.070000,,,
2026-09-11T19:04:43.071,1.704582,-0.000000,0.007838,-0.000000,0.000000,-33.508301,11.528085,-0.000000,-0.000139,-0.000293,-0.001254,0.007718,-0.000599,-0.004471,0.000596,0.001191,-0.088162,0.440417,9.713193,-0.941132,1.648334,0,0,,38.990337,-76.939889,-3.070000,,,
2026-09-11T19:04:43.104,1.738001,-0.000000,0.007838,-0.000000,0.000000,-33.508301,11.528085,-0.000000,-0.000238,-0.000500,-0.001267,0.007718,-0.000605,-0.003685,0.000786,0.000983,-0.077080,0.412860,9.709270,-0.939884,1.647978,0,0,,38.990337,-76.939889,-3.070000,,,
2026-09-11T19:04:43.138,1.771416,-0.000000,0.007838,-0.000000,0.000000,-33.508301,11.528085,-0.000000,0.000201,0.000422,-0.001268,0.007718,-0.000606,-0.004052,-0.000040,0.001906,-0.070118,0.423353,9.706720,-0.938199,1.648305,0,0,,38.990337,-76.939889,-3.070000,,,
2026-09-11T19:04:43.172,1.804845,-0.000000,0.007838,-0.000000,0.000000,-33.508301,11.528085,-0.000000,-0.000505,-0.001064,-0.001279,0.007718,-0.000611,-0.005717,0.000493,0.000420,-0.078747,0.430120,9.706034,-0.937091,1.649068,0,1,1.799335,38.990338,-76.939888,-3.102000,0.089740,0.076539,3.603156
2026-09-11T19:04:43.205,1.838273,-0.000000,0.007838,-0.000000,0.000000,-33.508301,11.528085,-0.000000,-0.001081,-0.002276,-0.001335,0.007718,-0.000637,-0.000102,0.001708,-0.000793,-0.070019,0.373633,9.705446,-0.935430,1.646163,0,0,,38.990338,-76.939888,-3.102000,,,
2026-09-11T19:04:43.239,1.871690,-0.000000,0.007838,-0.000000,0.000000,-33.508301,11.528085,-0.000000,-0.000110,-0.000231,-0.001377,0.007718,-0.000657,0.000391,-0.000875,0.001252,-0.065116,0.436788,9.720744,-0.933471,1.647380,0,0,,38.990338,-76.939888,-3.102000,,,
2026-09-11T19:04:43.272,1.905104,-0.000000,0.007838,-0.000000,0.000000,-33.508301,11.528085,-0.000000,-0.001706,-0.003592,-0.001441,0.007718,-0.000688,0.003281,0.001810,-0.002108,-0.060213,0.394227,9.719175,-0.931217,1.645829,0,0,,38.990338,-76.939888,-3.102000,,,
2026-09-11T19:04:43.305,1.938521,-0.000000,0.007838,-0.000000,0.000000,-33.508301,11.528085,-0.000000,-0.002358,-0.004963,-0.001584,0.007718,-0.000755,0.007588,0.001925,-0.003480,-0.042659,0.402171,9.690539,-0.927851,1.644809,0,0,,38.990338,-76.939888,-3.102000,,,
2026-09-11T19:04:43.339,1.971935,-0.000000,0.007838,-0.000000,0.000000,-33.508301,11.528085,-0.000000,-0.000179,-0.000377,-0.001673,0.007718,-0.000798,0.003151,-0.000148,0.001107,-0.069921,0.454048,9.711035,-0.926287,1.647159,0,0,,38.990338,-76.939888,-3.102000,,,
2026-09-11T19:04:43.372,2.005366,-0.000000,0.007838,-0.000000,0.000000,-33.508301,11.528085,-0.000000,-0.000940,-0.001978,-0.001712,0.007718,-0.000817,0.010114,0.001663,-0.000494,-0.070706,0.425609,9.688284,-0.924791,1.647642,0,0,,38.990338,-76.939888,-3.102000,,,
2026-09-11T19:04:43.406,2.038790,-0.000000,0.007838,-0.000000,0.000000,-33.508301,11.528085,-0.000000,-0.002422,-0.005100,-0.001830,0.007718,-0.000873,0.006173,0.000624,-0.003616,-0.050897,0.387461,9.695835,-0.922029,1.645648,0,0,,38.990338,-76.939888,-3.102000,,,
2026-09-11T19:04:43.439,2.072206,-0.000000,0.007838,-0.000000,0.000000,-33.508301,11.528085,-0.000000,-0.000700,-0.001474,-0.001940,0.007718,-0.000925,0.000282,0.000541,0.000009,-0.107481,0.478761,9.721823,-0.922959,1.649590,0,0,,38.990338,-76.939888,-3.102000,,,
2026-09-11T19:04:43.472,2.105623,-0.000000,0.007838,-0.000000,0.000000,-33.508301,11.528085,-0.000000,-0.000623,-0.001311,-0.001987,0.007718,-0.000947,0.001468,0.002522,0.000173,-0.068254,0.390403,9.696031,-0.921342,1.647766,0,0,,38.990338,-76.939888,-3.102000,,,
2026-09-11T19:04:43.506,2.139046,-0.000000,0.007838,-0.000000,0.000000,-33.441697,11.505171,-0.000000,-0.000703,-0.001479,-0.002033,0.007718,-0.000969,0.003988,0.001414,0.000005,-0.058742,0.392364,9.677399,-0.919126,1.646089,0,0,,38.990338,-76.939888,-3.102000,,,
2026-09-11T19:04:43.539,2.172461,-0.000000,0.007838,-0.000000,0.000000,-33.441697,11.505171,-0.000000,0.000348,0.000733,-0.002046,0.007718,-0.000975,-0.007221,0.002029,0.002216,-0.103460,0.467189,9.663081,-0.919828,1.649276,0,0,,38.990338,-76.939888,-3.102000,,,
2026-09-11T19:04:43.573,2.205887,-0.000000,0.007838,-0.000000,0.000000,-33.441697,11.505171,-0.000000,-0.001130,-0.002380,-0.002073,0.007718,-0.000988,-0.002107,0.001767,-0.000896,-0.046385,0.395110,9.734277,-0.916829,1.647760,0,0,,38.990338,-76.939888,-3.102000,,,
2026-09-11T19:04:43.606,2.239303,-0.000000,0.007838,-0.000000,0.000000,-33.226777,11.431230,-0.000000,-0.001389,-0.002925,-0.002162,0.007718,-0.001030,-0.002577,-0.000047,-0.001441,-0.054133,0.381675,9.728099,-0.914366,1.645391,0,0,,38.990338,-76.939888,-3.102000,,,
2026-09-11T19:04:43.640,2.272722,-0.000000,0.007838,-0.000000,0.000000,-33.024216,11.361542,-0.000000,-0.001482,-0.003120,-0.002263,0.007717,-0.001078,-0.003954,0.002183,-0.001636,-0.054525,0.476603,9.717606,-0.912567,1.649195,0,0,,38.990338,-76.939888,-3.102000,,,
2026-09-11T19:04:43.673,2.306138,-0.000000,0.007838,-0.000000,0.000000,-32.632142,11.226654,-0.000000,-0.001689,-0.003556,-0.002375,0.007717,-0.001131,-0.004393,-0.000094,-0.002073,-0.022359,0.385499,9.696816,-0.909320,1.647058,0,0,,38.990338,-76.939888,-3.102000,,,
2026-09-11T19:04:43.707,2.339564,-0.000000,0.007838,-0.000000,0.000000,-32.059479,11.029637,-0.000000,-0.002547,-0.005362,-0.002524,0.007717,-0.001202,-0.008025,0.002242,-0.003879,-0.060213,0.415312,9.692697,-0.908558,1.646875,0,0,,38.990338,-76.939888,-3.102000,,,
2026-09-11T19:04:43.740,2.372981,-0.000000,0.007838,-0.000000,0.000000,-31.270523,10.758208,-0.000000,-0.001949,-0.004104,-0.002682,0.007717,-0.001277,-0.015280,0.001950,-0.002620,-0.048347,0.456107,9.701817,-0.907037,1.649336,0,0,,38.990338,-76.939888,-3.102000,,,
2026-09-11T19:04:43.773,2.406395,-0.000000,0.007838,-0.000000,0.000000,-30.499421,10.492920,-0.000000,-0.001749,-0.003682,-0.002812,0.007717,-0.001339,-0.020872,-0.000409,-0.002199,-0.056192,0.474936,9.716625,-0.906041,1.652989,0,0,,38.990338,-76.939888,-3.102000,,,
2026-09-11T19:04:43.807,2.439811,-0.000000,0.007838,-0.000000,0.000000,-30.057908,10.341023,-0.000000,-0.000274,-0.000576,-0.002883,0.007717,-0.001373,-0.019038,0.000245,0.000907,-0.058840,0.386774,9.716919,-0.905227,1.650892,0,0,,38.990338,-76.939888,-3.102000,,,
2026-09-11T19:04:43.841,2.473225,-0.000000,0.007838,-0.000000,0.000000,-29.585495,10.178496,-0.000000,-0.013874,-0.029209,-0.003381,0.007716,-0.001609,0.008673,0.000612,-0.027726,-1.305265,6.060216,10.271682,-0.979544,2.016232,0,0,,38.990338,-76.939888,-3.102000,,,
2026-09-11T19:04:43.873,2.506638,-0.000000,0.007838,-0.000000,0.000000,-29.486618,10.144479,-0.000000,0.019144,0.040302,-0.003195,0.007716,-0.001521,0.002829,0.004260,0.041786,-0.101793,-1.337725,10.048580,-0.969665,1.898427,0,0,,38.990338,-76.939888,-3.102000,,,
2026-09-11T19:04:43.907,2.540054,0.009643,0.008089,0.089292,0.000000,-29.533310,10.160543,0.009492,-0.008947,-0.018835,-0.002837,0.007875,-0.001351,0.015608,0.003872,-0.017352,-0.092084,0.455617,9.874316,-0.959266,1.898081,0,0,,38.990338,-76.939888,-3.102000,,,
2026-09-11T19:04:43.940,2.573466,0.009643,0.008408,0.089292,0.000000,-29.689866,10.214403,0.009491,0.000023,0.000049,-0.003151,0.008192,-0.001501,0.016726,-0.001092,0.001532,-0.160633,0.188680,9.647979,-0.956537,1.880441,0,0,,38.990338,-76.939888,-3.102000,,,
2026-09-11T19:04:43.974,2.606883,0.009643,0.008727,0.089292,0.000000,-29.482499,10.143061,0.009493,0.010242,0.021562,-0.002789,0.008510,-0.001331,0.020981,0.004947,0.023045,-0.424040,1.275551,10.083394,-0.975248,1.933376,0,0,,38.990338,-76.939888,-3.102000,,,
2026-09-11T19:04:44.008,2.640302,0.009643,0.009057,0.089292,0.000000,-29.310837,10.084004,0.009495,0.005143,0.010828,-0.002248,0.008828,-0.001074,-0.008923,0.004144,0.012312,-0.323423,-0.138862,9.963557,-0.989026,1.894118,0,0,,38.990338,-76.939888,-3.102000,,,
2026-09-11T19:04:44.041,2.673717,0.009643,0.009376,0.089292,0.000000,-29.333497,10.091799,0.009494,-0.004361,-0.009181,-0.002221,0.009145,-0.001062,0.002310,0.002128,-0.007697,-0.373535,0.510828,9.621991,-1.006427,1.897390,0,0,,38.990338,-76.939888,-3.102000,,,
2026-09-11T19:04:44.074,2.707131,0.009643,0.009695,0.089292,0.000000,-29.333497,10.091799,0.009494,0.002827,0.005952,-0.002275,0.009462,-0.001088,-0.008239,0.000225,0.007435,-0.210451,0.412958,9.696227,-1.013084,1.894278,0,0,,38.990338,-76.939888,-3.102000,,,
2026-09-11T19:04:44.108,2.740548,-0.077148,0.006460,-0.714333,0.000000,-29.222947,10.053766,-0.075963,-0.001455,-0.003063,-0.002226,0.008352,-0.001063,-0.026247,-0.000692,-0.001579,-0.165536,0.439044,9.713095,-1.016762,1.892879,0,0,,38.990338,-76.939888,-3.102000,,,
2026-09-11T19:04:44.142,2.773966,-0.077148,0.003885,-0.714333,0.000000,-29.222947,10.053766,-0.075963,-0.002624,-0.005524,-0.002370,0.005813,-0.001125,-0.020545,0.000420,-0.004040,-0.077473,0.313421,9.740749,-1.014089,1.883345,0,0,,38.990338,-76.939888,-3.102000,,,
2026-09-11T19:04:44.175,2.807383,-0.077148,0.001299,-0.714333,0.000000,-29.222947,10.053766,-0.075963,-0.000534,-0.001124,-0.002481,0.003274,-0.001172,-0.015588,0.001425,0.000359,-0.021967,0.442476,9.701327,-1.007242,1.882299,0,0,,38.990338,-76.939888,-3.102000,,,
2026-09-11T19:04:44.209,2.840804,-0.028050,0.000273,-0.259722,0.000000,-29.308777,10.083295,-0.027617,0.000102,0.000214,-0.002496,0.001543,-0.001175,-0.090719,-0.026575,0.001698,0.628410,-2.227777,7.730190,-0.974418,1.708315,0,1,2.845985,38.990338,-76.939888,-3.122000,0.135690,0.117681,3.603156
2026-09-11T19:04:44.241,2.874221,-0.008411,0.000228,-0.077878,0.000000,-26.065751,8.967575,-0.008308,-0.016739,-0.035239,-0.003081,0.000942,-0.001451,-0.056133,0.011662,-0.033756,0.046189,1.505517,15.274838,-0.982563,1.778036,0,0,,38.990338,-76.939888,-3.122000,,,
2026-09-11T19:04:44.275,2.907641,-0.000000,0.000387,-0.000000,0.000000,-20.521088,7.060007,-0.000000,-0.000320,-0.000674,-0.003681,0.000803,-0.001736,-0.062407,0.025849,0.000809,-0.092477,0.995081,8.546594,-0.983996,1.813952,0,0,,38.990338,-76.939888,-3.122000,,,
2026-09-11T19:04:44.309,2.941055,-0.000000,0.000387,-0.000000,0.000000,-20.676270,7.113396,-0.000000,-0.011913,-0.025081,-0.004112,0.000802,-0.001940,-0.072273,0.012521,-0.023597,1.420493,0.232614,8.896103,-0.884604,1.800090,0,0,,38.990338,-76.939888,-3.122000,,,
2026-09-11T19:04:44.342,2.974621,-0.000000,0.000387,-0.000000,0.000000,-20.676270,7.113396,-0.000000,0.004641,0.009771,-0.004369,0.000801,-0.002062,-0.065230,-0.010320,0.011255,0.471504,0.112482,9.913052,-0.853281,1.778504,0,0,,38.990338,-76.939888,-3.122000,,,
2026-09-11T19:04:44.375,3.008039,-0.000000,0.000387,-0.000000,0.000000,-20.676270,7.113396,-0.000000,0.000553,0.001164,-0.004186,0.000802,-0.001975,-0.030964,0.001138,0.002648,0.143569,0.460422,10.018964,-0.849783,1.779787,0,0,,38.990338,-76.939888,-3.122000,,,
2026-09-11T19:04:44.409,3.041454,-0.000000,0.000387,-0.000000,0.000000,-20.635071,7.099222,-0.000000,-0.002690,-0.005663,-0.004261,0.000801,-0.002011,0.007572,0.002082,-0.004180,0.630371,0.098753,9.714075,-0.814831,1.757633,0,0,,38.990338,-76.939888,-3.122000,,,
2026-09-11T19:04:44.442,3.074874,-0.000000,0.000387,-0.000000,0.000000,-20.385819,7.013470,-0.000000,-0.001676,-0.003528,-0.004415,0.000801,-0.002084,0.009629,-0.010144,-0.002045,0.003727,-0.285275,9.649351,-0.817687,1.710852,0,0,,38.990338,-76.939888,-3.122000,,,
2026-09-11T19:04:44.476,3.108298,0.249920,0.015529,2.314076,0.000000,-18.497544,6.363834,0.248380,-0.004435,-0.009337,-0.004630,0.004952,-0.002205,0.002184,-0.000190,-0.007853,-0.261249,0.599677,9.994742,-0.833292,1.722054,0,0,,38.990338,-76.939888,-3.122000,,,
2026-09-11T19:04:44.510,3.141728,0.045705,0.015437,0.423191,0.000000,-17.894669,6.156423,0.045441,0.001207,0.002542,-0.004743,0.009862,-0.002282,0.004825,0.003881,0.004025,-0.115817,0.125427,9.657099,-0.856434,1.702253,0,0,,38.990338,-76.939888,-3.122000,,,
2026-09-11T19:04:44.543,3.175146,0.006806,0.015460,0.063023,0.000000,-17.499161,6.020354,0.006769,0.001300,0.002736,-0.004655,0.010735,-0.002244,0.007593,-0.000360,0.004219,-0.486508,0.373830,9.718586,-0.906819,1.698771,0,0,,38.990338,-76.939888,-3.122000,,,
2026-09-11T19:04:44.576,3.208567,-0.000000,0.015426,-0.000000,0.000000,-17.489548,6.017046,-0.000000,0.005593,0.011775,-0.004413,0.010849,-0.002130,0.014443,0.002397,0.013258,-0.705588,0.237615,9.647782,-0.952279,1.686507,0,0,,38.990338,-76.939888,-3.122000,,,
2026-09-11T19:04:44.609,3.241982,0.009725,0.015859,0.090042,0.000000,-17.357712,5.971690,0.009672,0.000041,0.000086,-0.004215,0.011011,-0.002036,0.006021,0.009492,0.001570,-0.115817,0.389324,9.462535,-0.955365,1.684204,0,0,,38.990338,-76.939888,-3.122000,,,
2026-09-11T19:04:44.642,3.275397,0.009725,0.016189,0.090042,0.000000,-16.977997,5.841054,0.009674,-0.002167,-0.004561,-0.004289,0.011334,-0.002073,0.006678,-0.000165,-0.003078,-0.025399,0.140627,9.667298,-0.952566,1.665826,0,0,,38.990338,-76.939888,-3.122000,,,
2026-09-11T19:04:44.676,3.308814,0.009725,0.016520,0.090042,0.000000,-16.121750,5.546474,0.009679,-0.002134,-0.004493,-0.004441,0.011657,-0.002147,0.009712,0.000101,-0.003009,-0.035402,0.370397,9.808808,-0.950445,1.662529,0,0,,38.990338,-76.939888,-3.122000,,,
2026-09-11T19:04:44.709,3.342237,0.009725,0.016839,0.090042,0.000000,-15.997467,5.503716,0.009680,0.002705,0.005694,-0.004420,0.011980,-0.002138,-0.004639,0.005357,0.007178,0.383048,0.496413,9.628365,-0.905238,1.667424,0,0,,38.990338,-76.939888,-3.122000,,,
2026-09-11T19:04:44.742,3.375657,0.009725,0.017158,0.090042,0.000000,-15.951462,5.487888,0.009680,0.002559,0.005388,-0.004235,0.012304,-0.002052,-0.019545,0.002374,0.006872,0.407172,0.095615,9.655726,-0.856041,1.646307,0,0,,38.990338,-76.939888,-3.122000,,,
2026-09-11T19:04:44.776,3.409075,0.303838,0.029747,2.813312,0.000000,-15.951462,5.487888,0.302445,0.005297,0.011152,-0.003959,0.017520,-0.001941,-0.036459,0.000460,0.012636,0.341468,0.415017,9.770366,-0.827234,1.645895,0,0,,38.990338,-76.939888,-3.122000,,,
2026-09-11T19:04:44.809,3.442495,0.072913,0.031228,0.675118,0.000000,-15.907517,5.472770,0.072580,0.004954,0.010429,-0.003598,0.023787,-0.001794,-0.064808,0.003278,0.011913,-0.129056,0.047072,9.775367,-0.832746,1.621829,0,0,,38.990338,-76.939888,-3.122000,,,
2026-09-11T19:04:44.843,3.475915,0.015182,0.031240,0.140570,0.000000,-15.861511,5.456942,0.015113,0.002319,0.004882,-0.003342,0.025253,-0.001678,-0.078293,0.004775,0.006366,-0.333818,0.329013,9.691520,-0.864351,1.616332,0,0,,38.990338,-76.939888,-3.122000,,,
2026-09-11T19:04:44.876,3.509342,0.015182,0.031638,0.140570,0.000000,-15.829239,5.445839,0.015113,0.006270,0.013199,-0.003040,0.025759,-0.001536,-0.080077,0.003873,0.014683,-0.408349,0.204469,9.698581,-0.901573,1.602819,0,0,,38.990338,-76.939888,-3.122000,,,
2026-09-11T19:04:44.911,3.542760,0.015182,0.032151,0.140570,0.000000,-15.785980,5.430957,0.015113,0.001368,0.002880,-0.002772,0.026264,-0.001410,-0.060159,0.003293,0.004364,-0.537502,0.006080,9.750164,-0.933502,1.576624,0,0,,38.990338,-76.939888,-3.122000,,,
2026-09-11T19:04:44.943,3.576177,0.015182,0.032652,0.140570,0.000000,-15.687790,5.397176,0.015114,0.002047,0.004309,-0.002651,0.026769,-0.001354,-0.026503,0.006025,0.005793,-0.500826,0.262328,9.719665,-0.959344,1.567311,0,0,,38.990338,-76.939888,-3.122000,,,
2026-09-11T19:04:44.976,3.609588,0.015182,0.033165,0.140570,0.000000,-15.687790,5.397176,0.015114,0.002402,0.005057,-0.002495,0.027274,-0.001281,0.000464,0.006165,0.006541,-0.216825,0.036285,9.767620,-0.965685,1.543468,0,0,,38.990338,-76.939888,-3.122000,,,
2026-09-11T19:04:45.010,3.642999,0.015182,0.033666,0.140570,0.000000,-17.313080,5.956335,0.015100,0.004443,0.009353,-0.002254,0.027779,-0.001168,0.044405,0.002707,0.010837,0.094536,0.350686,9.668867,-0.932923,1.540239,0,0,,38.990338,-76.939888,-3.122000,,,
2026-09-11T19:04:45.043,3.676415,0.015182,0.034179,0.140570,0.000000,-17.775879,6.115555,0.015095,0.005106,0.010749,-0.001918,0.028284,-0.001010,0.066091,-0.004253,0.012233,-0.051975,-0.240361,9.723588,-0.905938,1.498776,0,0,,38.990338,-76.939888,-3.122000,,,
2026-09-11T19:04:45.077,3.709830,0.024900,0.034680,0.230558,0.000000,-17.775879,6.115555,0.024759,-0.001475,-0.003105,-0.001791,0.028950,-0.000950,0.052282,-0.000585,-0.001622,-0.382950,0.319599,9.746143,-0.919210,1.494044,0,0,,38.990338,-76.939888,-3.122000,,,
2026-09-11T19:04:45.111,3.743248,0.219275,0.045652,2.030328,0.000000,-17.775879,6.115555,0.218028,-0.002961,-0.006234,-0.001947,0.033007,-0.001032,0.037946,0.000602,-0.004750,-0.396385,0.210157,9.682988,-0.936913,1.482360,0,0,,38.990338,-76.939888,-3.122000,,,
2026-09-11T19:04:45.144,3.776662,0.052342,0.046745,0.484652,0.000000,-17.698975,6.089097,0.052047,-0.005015,-0.010558,-0.002227,0.037519,-0.001174,0.038651,-0.000803,-0.009075,-0.412174,0.151022,9.702111,-0.955440,1.466926,0,0,,38.990338,-76.939888,-3.122000,,,
2026-09-11T19:04:45.178,3.810086,0.013064,0.046825,0.120964,0.000000,-17.405777,5.988226,0.012993,-0.002935,-0.006179,-0.002507,0.038605,-0.001310,0.040120,-0.000579,-0.004695,-0.207116,0.255071,9.714370,-0.960497,1.458367,0,1,3.809758,38.990338,-76.939887,-3.105000,0.174005,0.179024,6.612656
2026-09-11T19:04:45.211,3.843500,-0.000000,0.046666,-0.000000,0.000000,-16.651841,5.728844,-0.000000,-0.005047,-0.010626,-0.002788,0.038822,-0.001444,0.035407,-0.001844,-0.009142,-0.153964,0.235458,9.720450,-0.962058,1.448630,0,0,,38.990338,-76.939887,-3.105000,,,
2026-09-11T19:04:45.244,3.876917,-0.000000,0.046666,-0.000000,0.000000,-15.805207,5.437571,-0.000000,-0.003328,-0.007006,-0.003082,0.038821,-0.001584,0.039779,-0.000978,-0.005523,-0.051681,0.252619,9.732218,-0.956984,1.440111,0,0,,38.990338,-76.939887,-3.105000,,,
2026-09-11T19:04:45.277,3.910332,-0.000000,0.046666,-0.000000,0.000000,-15.424118,5.306463,-0.000000,-0.002249,-0.004735,-0.003278,0.038821,-0.001677,0.054485,-0.001493,-0.003252,0.054231,0.391972,9.687695,-0.945116,1.440709,0,0,,38.990338,-76.939887,-3.105000,,,
2026-09-11T19:04:45.311,3.943740,-0.000000,0.046666,-0.000000,0.000000,-15.424118,5.306463,-0.000000,-0.002049,-0.004313,-0.003430,0.038821,-0.001749,0.053870,-0.002630,-0.002830,0.019417,0.213589,9.729668,-0.935011,1.429754,0,0,,38.990338,-76.939887,-3.105000,,,
2026-09-11T19:04:45.344,3.977154,-0.000000,0.046666,-0.000000,0.000000,-15.380173,5.291344,-0.000000,-0.003611,-0.007603,-0.003629,0.038821,-0.001843,0.046649,-0.000584,-0.006119,-0.084337,0.313028,9.743299,-0.918636,1.425356,0,0,,38.990338,-76.939887,-3.105000,,,
2026-09-11T19:04:45.378,4.010576,-0.000000,0.046666,-0.000000,0.000000,-15.380173,5.291344,-0.000000,0.000039,0.000082,-0.003754,0.038820,-0.001903,0.024006,-0.000761,0.001565,0.018437,0.488862,9.712506,-0.894027,1.432392,0,0,,38.990338,-76.939887,-3.105000,,,
2026-09-11T19:04:45.411,4.043989,-0.000000,0.046666,-0.000000,0.000000,-15.380173,5.291344,-0.000000,-0.000841,-0.001771,-0.003783,0.038820,-0.001916,-0.000408,0.000686,-0.000287,-0.005198,0.320481,9.709172,-0.884453,1.428447,0,0,,38.990338,-76.939887,-3.105000,,,
2026-09-11T19:04:45.444,4.077414,-0.000000,0.046666,-0.000000,0.000000,-15.380173,5.291344,-0.000000,-0.000653,-0.001374,-0.003835,0.038820,-0.001941,-0.019812,0.000987,0.000110,-0.001765,0.412075,9.701425,-0.878120,1.430477,0,0,,38.990338,-76.939887,-3.105000,,,
2026-09-11T19:04:45.478,4.110825,-0.000000,0.046666,-0.000000,0.000000,-15.380173,5.291344,-0.000000,0.003276,0.006898,-0.003743,0.038820,-0.001897,-0.039049,0.000329,0.008381,0.007943,0.360492,9.721332,-0.872070,1.429143,0,0,,38.990338,-76.939887,-3.105000,,,
2026-09-11T19:04:45.513,4.144249,-0.000000,0.046666,-0.000000,0.000000,-15.380173,5.291344,-0.000000,0.001481,0.003119,-0.003576,0.038821,-0.001818,-0.048897,0.002336,0.004602,0.039030,0.383734,9.709564,-0.864073,1.429330,0,0,,38.990338,-76.939887,-3.105000,,,
2026-09-11T19:04:45.546,4.177667,-0.000000,0.046666,-0.000000,0.000000,-15.380173,5.291344,-0.000000,0.002349,0.004945,-0.003441,0.038821,-0.001754,-0.047739,0.003869,0.006428,0.033833,0.280961,9.712997,-0.856503,1.422860,0,0,,38.990338,-76.939887,-3.105000,,,
2026-09-11T19:04:45.579,4.211084,-0.000000,0.046666,-0.000000,0.000000,-15.380173,5.291344,-0.000000,0.004047,0.008520,-0.003216,0.038821,-0.001647,-0.053490,0.001515,0.010003,-0.020496,0.211431,9.706230,-0.852531,1.411960,0,0,,38.990338,-76.939887,-3.105000,,,
2026-09-11T19:04:45.611,4.244618,-0.000000,0.046666,-0.000000,0.000000,-15.380173,5.291344,-0.000000,0.000444,0.000936,-0.003057,0.038822,-0.001572,-0.058789,0.003300,0.002419,-0.104147,0.356668,9.733493,-0.854021,1.410579,0,0,,38.990338,-76.939887,-3.105000,,,
2026-09-11T19:04:45.645,4.278035,-0.000000,0.046666,-0.000000,0.000000,-15.380173,5.291344,-0.000000,0.001229,0.002588,-0.002998,0.038822,-0.001544,-0.064084,0.005110,0.004071,-0.172303,0.250266,9.722313,-0.859898,1.402330,0,0,,38.990338,-76.939887,-3.105000,,,
2026-09-11T19:04:45.678,4.311452,-0.000000,0.046666,-0.000000,0.000000,-15.380173,5.291344,-0.000000,0.001136,0.002391,-0.002915,0.038822,-0.001504,-0.061017,0.004187,0.003874,-0.185051,0.199271,9.692207,-0.867167,1.390870,0,0,,38.990338,-76.939887,-3.105000,,,
2026-09-11T19:04:45.712,4.344864,-0.000000,0.046666,-0.000000,0.000000,-15.310135,5.267248,-0.000000,0.001228,0.002585,-0.002832,0.038822,-0.001465,-0.049654,0.003762,0.004068,-0.234575,0.191818,9.716331,-0.878190,1.379057,0,0,,38.990338,-76.939887,-3.105000,,,
2026-09-11T19:04:45.745,4.378280,-0.000000,0.046666,-0.000000,0.000000,-15.005951,5.162598,-0.000000,-0.001817,-0.003825,-0.002853,0.038822,-0.001475,-0.035553,0.002922,-0.002342,-0.285668,0.103558,9.738004,-0.892397,1.361659,0,0,,38.990338,-76.939887,-3.105000,,,
2026-09-11T19:04:45.779,4.411700,-0.000000,0.046666,-0.000000,0.000000,-14.728546,5.067160,-0.000000,-0.000450,-0.000946,-0.002933,0.038822,-0.001512,-0.010399,0.005166,0.000537,-0.142098,0.237517,9.729080,-0.897161,1.353126,0,0,,38.990338,-76.939887,-3.105000,,,
2026-09-11T19:04:45.812,4.445118,-0.000000,0.046666,-0.000000,0.000000,-14.720993,5.064562,-0.000000,-0.001394,-0.002935,-0.002997,0.038822,-0.001543,0.019335,0.001807,-0.001452,-0.059330,0.107383,9.695835,-0.896517,1.336262,0,0,,38.990338,-76.939887,-3.105000,,,
2026-09-11T19:04:45.845,4.478534,-0.000000,0.046666,-0.000000,0.000000,-14.720993,5.064562,-0.000000,-0.002442,-0.005142,-0.003132,0.038821,-0.001607,0.047312,-0.002063,-0.003658,-0.059330,0.157789,9.723784,-0.895880,1.322850,0,0,,38.990338,-76.939887,-3.105000,,,
2026-09-11T19:04:45.879,4.511951,-0.000000,0.046666,-0.000000,0.000000,-14.720993,5.064562,-0.000000,-0.000995,-0.002094,-0.003253,0.038821,-0.001665,0.066342,-0.000729,-0.000610,0.055898,0.195643,9.697306,-0.887796,1.312036,0,0,,38.990338,-76.939887,-3.105000,,,
2026-09-11T19:04:45.912,4.545365,-0.000000,0.046666,-0.000000,0.000000,-14.706574,5.059601,-0.000000,-0.001320,-0.002779,-0.003335,0.038821,-0.001703,0.060069,-0.003182,-0.001296,-0.005492,0.227220,9.726334,-0.883773,1.303387,0,0,,38.990338,-76.939887,-3.105000,,,
2026-09-11T19:04:45.946,4.578780,0.009820,0.046928,0.090922,0.000000,-14.591904,5.020150,0.009782,-0.003956,-0.008328,-0.003520,0.038984,-0.001792,0.054401,-0.003730,-0.006845,-0.127192,0.153866,9.698189,-0.887668,1.290091,0,0,,38.990338,-76.939887,-3.105000,,,
2026-09-11T19:04:45.979,4.612202,0.009820,0.047258,0.090922,0.000000,-13.526230,4.653519,0.009787,-0.003603,-0.007586,-0.003786,0.039311,-0.001920,0.034378,0.000576,-0.006103,-0.163967,0.290473,9.806944,-0.893900,1.285784,0,0,,38.990338,-76.939887,-3.105000,,,
2026-09-11T19:04:46.012,4.645613,0.009820,0.047588,0.090922,0.000000,-12.097321,4.161922,0.009794,-0.004743,-0.009986,-0.004080,0.039637,-0.002060,0.022562,0.000342,-0.008503,-0.100714,0.256052,9.692207,-0.895970,1.279300,0,0,,38.990338,-76.939887,-3.105000,,,
2026-09-11T19:04:46.046,4.679025,0.009820,0.047907,0.090922,0.000000,-10.261230,3.530240,0.009801,-0.005822,-0.012258,-0.004451,0.039964,-0.002238,0.009302,-0.000268,-0.010774,-0.038344,0.309694,9.718194,-0.893982,1.276361,0,0,,38.990338,-76.939887,-3.105000,,,
2026-09-11T19:04:46.079,4.712439,0.009820,0.048238,0.090922,0.000000,-8.697738,2.992341,0.009806,-0.003205,-0.006748,-0.004769,0.040291,-0.002391,0.018013,0.001340,-0.005265,0.014710,0.311263,9.718685,-0.888584,1.273552,0,0,,38.990338,-76.939887,-3.105000,,,
2026-09-11T19:04:46.113,4.745864,0.009820,0.048568,0.090922,0.000000,-8.656540,2.978167,0.009806,-0.002026,-0.004264,-0.004953,0.040618,-0.002480,0.020053,-0.001134,-0.002781,-0.012553,0.354805,9.690441,-0.885008,1.273592,0,0,,38.990338,-76.939887,-3.105000,,,
2026-09-11T19:04:46.146,4.779280,0.009820,0.048899,0.090922,0.000000,-8.656540,2.978167,0.009806,-0.001065,-0.002241,-0.005062,0.040946,-0.002533,0.016275,-0.000317,-0.000758,-0.067176,0.323914,9.710643,-0.885006,1.271630,0,0,,38.990338,-76.939887,-3.105000,,,
2026-09-11T19:04:46.180,4.812695,0.009820,0.049229,0.090922,0.000000,-8.612594,2.963049,0.009806,0.000077,0.000161,-0.005096,0.041273,-0.002551,0.010326,0.000465,0.001645,-0.101793,0.362454,9.707505,-0.886613,1.272183,0,1,4.805166,38.990339,-76.939887,-3.234000,0.188122,0.232027,6.611146
2026-09-11T19:04:46.213,4.846109,0.009820,0.049548,0.090922,0.000000,-8.612594,2.963049,0.009806,0.000188,0.000396,-0.005087,0.041601,-0.002548,-0.001811,0.001803,0.001879,-0.091006,0.329307,9.708388,-0.886873,1.270584,0,0,,38.990339,-76.939887,-3.234000,,,
2026-09-11T19:04:46.246,4.879523,0.009820,0.049878,0.090922,0.000000,-8.612594,2.963049,0.009806,-0.000360,-0.000758,-0.005093,0.041929,-0.002553,-0.005671,0.000801,0.000726,-0.125427,0.307144,9.718979,-0.889356,1.267569,0,0,,38.990339,-76.939887,-3.234000,,,
2026-09-11T19:04:46.280,4.912934,0.009820,0.050209,0.090922,0.000000,-8.612594,2.963049,0.009806,0.001551,0.003266,-0.005051,0.042256,-0.002535,-0.010194,0.001024,0.004750,-0.111011,0.330484,9.718586,-0.890877,1.266096,0,0,,38.990339,-76.939887,-3.234000,,,
2026-09-11T19:04:46.313,4.946360,0.009820,0.050539,0.090922,0.000000,-8.612594,2.963049,0.009806,0.001003,0.002112,-0.004961,0.042584,-0.002494,-0.012158,0.001396,0.003595,-0.086887,0.273900,9.720057,-0.890821,1.260975,0,0,,38.990339,-76.939887,-3.234000,,,
2026-09-11T19:04:46.347,4.979775,0.009820,0.050858,0.090922,0.000000,-8.589935,2.955253,0.009807,0.000780,0.001642,-0.004899,0.042912,-0.002465,-0.003632,-0.000083,0.003126,-0.115326,0.287335,9.712114,-0.892604,1.256782,0,0,,38.990339,-76.939887,-3.234000,,,
2026-09-11T19:04:46.380,5.013189,0.009820,0.051189,0.090922,0.000000,-8.568649,2.947930,0.009807,0.000626,0.001319,-0.004849,0.043240,-0.002444,-0.005657,-0.000488,0.002802,-0.124446,0.289688,9.705642,-0.894958,1.252789,0,0,,38.990339,-76.939887,-3.234000,,,
2026-09-11T19:04:46.415,5.046605,0.009820,0.051519,0.090922,0.000000,-8.568649,2.947930,0.009807,-0.001471,-0.003096,-0.004879,0.043567,-0.002459,-0.004208,0.001495,-0.001613,-0.110423,0.290767,9.718586,-0.896379,1.248912,0,0,,38.990339,-76.939887,-3.234000,,,
2026-09-11T19:04:46.447,5.080022,0.009820,0.051849,0.090922,0.000000,-8.568649,2.947930,0.009807,0.000816,0.001718,-0.004902,0.043895,-0.002472,0.000378,-0.000310,0.003202,-0.081787,0.273115,9.716331,-0.895931,1.243932,0,0,,38.990339,-76.939887,-3.234000,,,
2026-09-11T19:04:46.481,5.113440,0.009820,0.052180,0.090922,0.000000,-8.568649,2.947930,0.009807,0.000045,0.000094,-0.004872,0.044223,-0.002459,-0.000947,-0.000720,0.001577,-0.068254,0.308713,9.715154,-0.893980,1.241313,0,0,,38.990339,-76.939887,-3.234000,,,
2026-09-11T19:04:46.514,5.146854,0.009820,0.052499,0.090922,0.000000,-8.568649,2.947930,0.009807,-0.001909,-0.004019,-0.004937,0.044550,-0.002492,-0.004140,0.000044,-0.002536,-0.096497,0.299985,9.691912,-0.893244,1.238161,0,0,,38.990339,-76.939887,-3.234000,,,
2026-09-11T19:04:46.547,5.180266,0.009820,0.052829,0.090922,0.000000,-8.568649,2.947930,0.009807,0.000203,0.000427,-0.004997,0.044878,-0.002522,-0.010827,-0.000165,0.001910,-0.146021,0.306752,9.726334,-0.895721,1.235479,0,0,,38.990339,-76.939887,-3.234000,,,
2026-09-11T19:04:46.581,5.213684,0.009820,0.053160,0.090922,0.000000,-8.568649,2.947930,0.009807,0.000518,0.001091,-0.004972,0.045206,-0.002511,-0.007910,0.001443,0.002574,-0.093555,0.277920,9.715939,-0.894776,1.230960,0,0,,38.990339,-76.939887,-3.234000,,,
2026-09-11T19:04:46.614,5.247103,0.009820,0.053490,0.090922,0.000000,-8.568649,2.947930,0.009807,-0.000954,-0.002007,-0.004987,0.045533,-0.002520,-0.000396,0.002674,-0.000524,-0.055702,0.263897,9.694854,-0.891392,1.225584,0,0,,38.990339,-76.939887,-3.234000,,,
2026-09-11T19:04:46.648,5.280519,0.009820,0.053820,0.090922,0.000000,-8.568649,2.947930,0.009807,0.000596,0.001254,-0.005000,0.045861,-0.002528,-0.002249,0.001219,0.002737,-0.026478,0.297141,9.703092,-0.886156,1.222419,0,0,,38.990339,-76.939887,-3.234000,,,
2026-09-11T19:04:46.681,5.313950,0.009820,0.054139,0.090922,0.000000,-8.524704,2.932811,0.009807,-0.000412,-0.000867,-0.004993,0.046189,-0.002527,0.002297,0.000437,0.000616,-0.047072,0.237909,9.703975,-0.882309,1.215452,0,0,,38.990339,-76.939887,-3.234000,,,
2026-09-11T19:04:46.714,5.347391,0.009820,0.054470,0.090922,0.000000,-8.524704,2.932811,0.009807,-0.000593,-0.001248,-0.005029,0.046517,-0.002545,0.002992,0.000603,0.000235,-0.061684,0.309400,9.710839,-0.879449,1.213192,0,0,,38.990339,-76.939887,-3.234000,,,
2026-09-11T19:04:46.748,5.380810,-0.000000,0.054504,-0.000000,0.000000,-8.478698,2.916983,-0.000000,0.000096,0.000203,-0.005046,0.046681,-0.002554,-0.000576,0.001293,0.001686,-0.055015,0.259190,9.698581,-0.876190,1.207708,0,0,,38.990339,-76.939887,-3.234000,,,
2026-09-11T19:04:46.781,5.414228,-0.000000,0.054504,-0.000000,0.000000,-8.480758,2.917692,-0.000000,-0.000188,-0.000396,-0.005049,0.046681,-0.002556,0.000047,0.001504,0.001087,-0.065018,0.310380,9.722607,-0.874237,1.205598,0,0,,38.990339,-76.939887,-3.234000,,,
2026-09-11T19:04:46.814,5.447641,-0.000000,0.054504,-0.000000,0.000000,-8.480758,2.917692,-0.000000,0.000039,0.000082,-0.005055,0.046681,-0.002558,-0.001532,0.000242,0.001566,-0.069921,0.289492,9.704465,-0.873246,1.202160,0,0,,38.990339,-76.939887,-3.234000,,,
2026-09-11T19:04:46.848,5.481061,-0.000000,0.054504,-0.000000,0.000000,-8.375702,2.881549,-0.000000,-0.000338,-0.000711,-0.005065,0.046681,-0.002563,-0.001011,0.001247,0.000773,-0.055898,0.283314,9.721823,-0.871358,1.198359,0,0,,38.990339,-76.939887,-3.234000,,,
2026-09-11T19:04:46.882,5.514556,-0.000000,0.054504,-0.000000,0.000000,-8.173141,2.811861,-0.000000,-0.001312,-0.002762,-0.005123,0.046680,-0.002591,0.000198,0.001605,-0.001278,-0.071490,0.280274,9.707211,-0.870498,1.194395,0,0,,38.990339,-76.939887,-3.234000,,,
2026-09-11T19:04:46.915,5.547978,-0.000000,0.054504,-0.000000,0.000000,-7.923889,2.726109,-0.000000,-0.000139,-0.000294,-0.005174,0.046680,-0.002615,-0.001518,-0.001345,0.001190,-0.066293,0.277430,9.716919,-0.869313,1.190299,0,0,,38.990339,-76.939887,-3.234000,,,
2026-09-11T19:04:46.948,5.581396,-0.000000,0.054504,-0.000000,0.000000,-7.539367,2.593819,-0.000000,-0.001852,-0.003898,-0.005244,0.046680,-0.002648,-0.001560,0.001407,-0.002415,-0.065803,0.269977,9.727118,-0.868109,1.185766,0,0,,38.990339,-76.939887,-3.234000,,,
2026-09-11T19:04:46.981,5.614822,-0.000000,0.054504,-0.000000,0.000000,-7.029876,2.418535,-0.000000,-0.002847,-0.005993,-0.005410,0.046680,-0.002727,0.001173,0.001347,-0.004510,-0.094438,0.264681,9.709662,-0.869405,1.180940,0,0,,38.990339,-76.939887,-3.234000,,,
2026-09-11T19:04:47.015,5.648245,-0.000000,0.054504,-0.000000,0.000000,-6.343231,2.182304,-0.000000,-0.002213,-0.004660,-0.005588,0.046679,-0.002811,-0.000439,0.000434,-0.003176,-0.096792,0.267133,9.725647,-0.871472,1.176327,0,0,,38.990339,-76.939887,-3.234000,,,
2026-09-11T19:04:47.050,5.681662,0.009643,0.054982,0.089292,0.000000,-5.138167,1.767718,0.009639,-0.004111,-0.008655,-0.005810,0.046840,-0.002918,0.010288,0.001960,-0.007172,-0.000785,0.145138,9.674064,-0.876710,1.163873,0,0,,38.990339,-76.939887,-3.234000,,,
2026-09-11T19:04:47.082,5.715078,0.009643,0.055301,0.089292,0.000000,-3.821181,1.314627,0.009641,-0.005604,-0.011798,-0.006152,0.047161,-0.003082,0.004655,0.000652,-0.010315,0.055113,0.304889,9.751341,-0.892700,1.161901,0,0,,38.990339,-76.939887,-3.234000,,,
2026-09-11T19:04:47.115,5.748493,0.009643,0.055621,0.089292,0.000000,-3.207320,1.103436,0.009642,-0.002672,-0.005625,-0.006443,0.047482,-0.003223,-0.002172,-0.001376,-0.004141,-0.024222,0.544759,9.636995,-0.906648,1.175474,0,0,,38.990339,-76.939887,-3.234000,,,
2026-09-11T19:04:47.149,5.781911,0.009643,0.055940,0.089292,0.000000,-3.119430,1.073198,0.009642,0.001290,0.002717,-0.006492,0.047804,-0.003248,-0.029262,0.001157,0.004200,-0.148767,0.334309,9.720646,-0.913958,1.175269,0,0,,38.990339,-76.939887,-3.234000,,,
2026-09-11T19:04:47.184,5.815339,0.009643,0.056259,0.089292,0.000000,-3.075484,1.058079,0.009642,0.001521,0.003202,-0.006393,0.048127,-0.003203,-0.065607,0.006342,0.004686,0.063253,0.354216,9.688088,-0.905567,1.176354,0,1,5.806091,38.990339,-76.939887,-3.381000,0.200509,0.283732,6.609635
2026-09-11T19:04:47.216,5.848760,0.009643,0.056589,0.089292,0.000000,-2.586593,0.889883,0.009642,0.002411,0.005076,-0.006254,0.048449,-0.003139,-0.085335,0.009919,0.006560,0.254483,0.189759,9.745359,-0.885528,1.166779,0,0,,38.990339,-76.939887,-3.381000,,,
2026-09-11T19:04:47.250,5.882178,0.009643,0.056908,0.089292,0.000000,-0.966109,0.332377,0.009643,-0.003278,-0.006901,-0.006285,0.048772,-0.003156,-0.061425,0.006317,-0.005418,0.331269,0.076394,9.671122,-0.879282,1.149980,0,0,,38.990339,-76.939887,-3.381000,,,
2026-09-11T19:04:47.282,5.915599,0.009643,0.057227,0.089292,0.000000,2.686158,-0.924137,0.009642,-0.003602,-0.007584,-0.006527,0.049093,-0.003273,-0.025240,-0.000370,-0.006101,0.162398,0.113659,9.699071,-0.888203,1.135778,0,0,,38.990339,-76.939887,-3.381000,,,
2026-09-11T19:04:47.316,5.949017,0.155512,0.059141,1.439923,0.000000,6.328814,-2.177344,0.155399,-0.006172,-0.012993,-0.006871,0.051850,-0.003455,-0.008693,0.001581,-0.011510,-0.005982,0.016671,9.744770,-0.893542,1.115583,0,0,,38.990339,-76.939887,-3.381000,,,
2026-09-11T19:04:47.350,5.982439,0.233308,0.069702,2.160261,0.000000,6.229250,-2.143091,0.233145,-0.005617,-0.011824,-0.007285,0.058341,-0.003698,0.001446,-0.001250,-0.010341,-0.003530,0.402759,9.656412,-0.909344,1.120653,0,0,,38.990339,-76.939887,-3.381000,,,
2026-09-11T19:04:47.383,6.015854,0.047036,0.070135,0.435522,0.000000,7.012026,-2.412394,0.046995,-0.004412,-0.009289,-0.007638,0.063020,-0.003900,-0.018356,0.003912,-0.007805,0.194466,-0.023340,9.749772,-0.917257,1.097934,0,0,,38.990339,-76.939887,-3.381000,,,
2026-09-11T19:04:47.416,6.049279,0.007821,0.070124,0.072420,0.000000,8.649676,-2.975806,0.007811,-0.009216,-0.019403,-0.008118,0.063934,-0.004135,-0.016574,0.003939,-0.017919,0.465326,0.108658,9.625521,-0.906222,1.083989,0,0,,38.990339,-76.939887,-3.381000,,,
2026-09-11T19:04:47.450,6.082692,0.017625,0.070853,0.163195,0.000000,10.654681,-3.665601,0.017589,-0.007214,-0.015188,-0.008696,0.064356,-0.004413,-0.001785,0.001739,-0.013704,0.412762,-0.095026,9.691912,-0.906079,1.057028,0,0,,38.990339,-76.939887,-3.381000,,,
2026-09-11T19:04:47.483,6.116109,0.017625,0.071445,0.163195,0.000000,13.140337,-4.520758,0.017570,-0.010552,-0.022214,-0.009321,0.064941,-0.004715,0.011204,0.002496,-0.020731,0.521616,0.020496,9.679262,-0.901987,1.037848,0,0,,38.990339,-76.939887,-3.381000,,,
2026-09-11T19:04:47.517,6.149550,0.306281,0.083955,2.835938,0.000000,16.097033,-5.537970,0.304852,-0.016077,-0.033847,-0.010258,0.070327,-0.005215,0.029820,0.003534,-0.032364,0.531520,0.146806,9.655432,-0.899720,1.027693,0,0,,38.990339,-76.939887,-3.381000,,,
2026-09-11T19:04:47.550,6.182972,0.092469,0.085949,0.856191,0.000000,19.330447,-6.650383,0.091846,-0.017371,-0.036570,-0.011435,0.076950,-0.005844,0.041833,0.004522,-0.035086,0.289492,0.085906,9.926782,-0.906143,1.013262,0,0,,38.990339,-76.939887,-3.381000,,,
2026-09-11T19:04:47.583,6.216389,0.092469,0.089047,0.856191,0.000000,21.284640,-7.322697,0.091714,-0.019595,-0.041252,-0.012735,0.080009,-0.006499,0.056032,0.003787,-0.039768,0.595068,0.024713,9.451257,-0.880736,0.995061,0,0,,38.990339,-76.939887,-3.381000,,,
2026-09-11T19:04:47.620,6.249803,0.259754,0.101124,2.405128,0.000000,23.071291,-7.937371,0.257265,-0.021493,-0.045249,-0.014180,0.085830,-0.007266,0.067972,0.001911,-0.043765,0.428943,0.283608,9.693089,-0.877661,0.994327,0,0,,38.990339,-76.939887,-3.381000,,,
2026-09-11T19:04:47.650,6.283218,0.172962,0.105248,1.601504,0.000000,26.649401,-9.168372,0.170753,-0.025195,-0.053042,-0.015822,0.092969,-0.008152,0.050844,0.004311,-0.051559,0.755504,-0.403642,9.778701,-0.873559,0.948953,0,0,,38.990339,-76.939887,-3.381000,,,
2026-09-11T19:04:47.683,6.316633,0.241034,0.113782,2.231799,0.000000,32.003179,-11.010268,0.236598,-0.030073,-0.063312,-0.017766,0.099758,-0.009190,0.049032,0.011147,-0.061828,0.597911,-0.207411,10.005235,-0.885905,0.917167,0,0,,38.990339,-76.939887,-3.381000,,,
2026-09-11T19:04:47.717,6.350048,0.290235,0.124468,2.687361,0.000000,32.081456,-11.037198,0.284867,-0.033074,-0.069630,-0.019987,0.108449,-0.010410,0.031743,0.006522,-0.068146,0.610170,0.831212,9.860096,-0.899177,0.953270,0,0,,38.990339,-76.939887,-3.381000,,,
2026-09-11T19:04:47.750,6.383465,0.290719,0.132523,2.691846,0.000000,33.842702,-11.643131,0.284737,-0.038370,-0.080778,-0.022501,0.117938,-0.011806,0.027946,0.009205,-0.079294,0.648514,0.306360,9.603554,-0.893766,0.955207,1,0,,38.990339,-76.939887,-3.381000,,,
2026-09-11T19:04:47.784,6.416884,0.329998,0.143438,3.055535,0.000000,35.763936,-12.304106,0.322418,-0.040530,-0.085326,-0.025276,0.128049,-0.013367,-0.000377,0.004603,-0.083842,0.478074,0.623115,9.819203,-0.897130,0.977919,1,0,,38.990339,-76.939887,-3.381000,,,
2026-09-11T19:04:47.817,6.450300,0.329998,0.154409,3.055535,0.000000,36.921621,-12.702392,0.321921,-0.040274,-0.084788,-0.028118,0.138775,-0.015004,0.007388,0.008756,-0.083305,0.736087,0.119249,9.863529,-0.901224,0.967750,1,0,,38.990339,-76.939887,-3.381000,,,
2026-09-11T19:04:47.851,6.483714,0.369134,0.166793,3.417904,0.000000,36.914754,-12.700030,0.360103,-0.041727,-0.087846,-0.031002,0.150124,-0.016711,0.035721,0.008162,-0.086363,0.800811,0.396287,9.821066,-0.892255,0.975906,1,0,,38.990339,-76.939887,-3.381000,,,
2026-09-11T19:04:47.885,6.517139,0.398096,0.180191,3.686074,0.000000,36.386037,-12.518132,0.388632,-0.042809,-0.090125,-0.033977,0.162584,-0.018530,0.034249,0.008039,-0.088641,0.933985,-0.354412,9.526572,-0.870900,0.935593,1,0,,38.990339,-76.939887,-3.381000,,,
2026-09-11T19:04:47.918,6.550554,0.456485,0.195207,4.226715,0.000000,36.309819,-12.491910,0.445679,-0.051469,-0.108355,-0.037293,0.176459,-0.020603,-0.005083,0.013393,-0.106871,0.717258,0.816306,9.382807,-0.867623,0.972368,1,0,,38.990339,-76.939887,-3.381000,,,
2026-09-11T19:04:47.952,6.583971,0.466368,0.210645,4.318225,0.000000,36.169057,-12.443483,0.455413,-0.050120,-0.105516,-0.040866,0.191436,-0.022887,-0.014012,0.025206,-0.104033,0.762957,0.284295,10.028967,-0.856560,0.974288,1,0,,38.990339,-76.939887,-3.381000,,,
2026-09-11T19:04:47.984,6.617385,0.495331,0.226994,4.586396,0.000000,35.346456,-12.160478,0.484216,-0.050041,-0.105349,-0.044389,0.207049,-0.025229,-0.051840,0.025714,-0.103865,0.223592,0.445222,9.612282,-0.879905,0.986792,1,0,,38.990339,-76.939887,-3.381000,,,
2026-09-11T19:04:48.018,6.650822,0.505150,0.244038,4.677318,0.000000,35.178228,-12.102601,0.493923,-0.051802,-0.109057,-0.047974,0.223306,-0.027685,-0.063384,0.029439,-0.107574,0.282824,0.646062,9.814692,-0.898623,1.012360,1,0,,38.990339,-76.939887,-3.381000,,,
2026-09-11T19:04:48.051,6.684241,0.534403,0.262118,4.948178,0.000000,35.007940,-12.044016,0.522640,-0.053721,-0.113096,-0.051686,0.240183,-0.030293,-0.098982,0.021768,-0.111613,0.330386,-0.147198,9.301902,-0.912297,0.986620,1,0,,38.990339,-76.939887,-3.381000,,,
2026-09-11T19:04:48.084,6.717655,0.563660,0.280689,5.219077,0.000000,34.958501,-12.027007,0.551288,-0.059704,-0.125694,-0.055675,0.257998,-0.033149,-0.134665,0.033927,-0.124210,0.486214,0.873576,9.227666,-0.915148,1.027897,1,0,,38.990339,-76.939887,-3.381000,,,
2026-09-11T19:04:48.118,6.751102,0.563822,0.299316,5.220579,0.000000,35.156942,-12.095278,0.551306,-0.062099,-0.130735,-0.059964,0.276288,-0.036248,-0.122666,0.045540,-0.129252,0.140627,-0.302241,9.612675,-0.941642,0.992759,1,0,,38.990339,-76.939887,-3.381000,,,
2026-09-11T19:04:48.151,6.784520,0.583430,0.319117,5.402130,0.000000,35.156942,-12.095278,0.570478,-0.062067,-0.130668,-0.064332,0.294867,-0.039484,-0.136352,0.040786,-0.129185,-0.083062,1.176112,9.380355,-0.984315,1.053895,1,0,,38.990339,-76.939887,-3.381000,,,
2026-09-11T19:04:48.185,6.817947,0.603069,0.339465,5.583974,0.000000,35.156942,-12.095278,0.589681,-0.061157,-0.128752,-0.068667,0.314078,-0.042828,-0.140752,0.038593,-0.127269,0.954285,-0.354707,11.372478,-0.962963,1.015341,1,1,6.801333,38.990340,-76.939884,-3.474000,0.429252,0.348596,5.724179
2026-09-11T19:04:48.218,6.851356,0.622938,0.360223,5.767944,0.000000,35.046392,-12.057245,0.609196,-0.069382,-0.146068,-0.073258,0.333899,-0.046424,-0.162843,0.018649,-0.144584,0.060115,-0.020006,9.111653,-1.004226,0.999740,1,0,,38.990340,-76.939884,-3.474000,,,
2026-09-11T19:04:48.251,6.884769,0.642678,0.381539,5.950722,0.000000,34.914556,-12.011888,0.628606,-0.065822,-0.138572,-0.078013,0.354348,-0.050239,-0.206280,0.002026,-0.137089,-0.041384,0.450518,10.685522,-1.056075,1.014642,1,0,,38.990340,-76.939884,-3.474000,,,
2026-09-11T19:04:48.285,6.918176,0.652561,0.403163,6.042231,0.000000,34.914556,-12.011888,0.638273,-0.065370,-0.137622,-0.082627,0.375266,-0.054122,-0.227134,0.006230,-0.136138,0.039129,-0.916726,10.020043,-1.104952,0.940949,1,0,,38.990340,-76.939884,-3.474000,,,
2026-09-11T19:04:48.318,6.951590,0.652759,0.424798,6.044062,0.000000,34.914556,-12.011888,0.638466,-0.066798,-0.140628,-0.087276,0.396331,-0.058132,-0.277180,0.010716,-0.139145,0.404622,-0.301554,10.353077,-1.130282,0.908002,1,0,,38.990340,-76.939884,-3.474000,,,
2026-09-11T19:04:48.352,6.985000,0.682010,0.447562,6.314905,0.000000,34.914556,-12.011888,0.667077,-0.065202,-0.137268,-0.091918,0.417856,-0.062281,-0.277062,0.037471,-0.135785,1.333312,-0.283804,8.738804,-1.095071,0.876686,1,0,,38.990340,-76.939884,-3.474000,,,
2026-09-11T19:04:48.385,7.018417,0.740431,0.472432,6.855843,0.000000,33.817983,-11.634627,0.725218,-0.070006,-0.147382,-0.096674,0.440803,-0.066722,-0.257999,0.107869,-0.145898,2.375073,-0.582417,7.906023,-0.991942,0.827376,1,0,,38.990340,-76.939884,-3.474000,,,
2026-09-11T19:04:48.418,7.051833,0.798854,0.499468,7.396794,0.000000,32.365041,-11.134762,0.783816,-0.067148,-0.141365,-0.101498,0.465665,-0.071499,-0.139916,-0.000400,-0.139882,1.288103,-0.064332,8.135205,-0.960199,0.812399,1,0,,38.990340,-76.939884,-3.474000,,,
2026-09-11T19:04:48.452,7.085247,0.857475,0.528224,7.939579,0.000000,25.764318,-8.863871,0.847234,-0.041850,-0.088106,-0.105332,0.492581,-0.076126,-0.031814,0.008266,-0.086623,1.247308,-0.976840,10.030046,-0.932728,0.736196,1,0,,38.990340,-76.939884,-3.474000,,,
2026-09-11T19:04:48.485,7.118662,0.896423,0.558484,8.300210,0.000000,15.806585,-5.438045,0.892388,-0.036692,-0.077247,-0.108095,0.521341,-0.080527,0.110397,0.017234,-0.075763,1.039309,0.239576,9.505684,-0.922731,0.739188,1,0,,38.990340,-76.939884,-3.474000,,,
2026-09-11T19:04:48.519,7.152080,0.955196,0.590692,8.844406,0.000000,3.470311,-1.193914,0.954988,-0.006701,-0.014108,-0.109621,0.551948,-0.084602,0.188441,0.001392,-0.012625,1.013125,1.077261,8.925915,-0.918223,0.792775,1,0,,38.990340,-76.939884,-3.474000,,,
2026-09-11T19:04:48.552,7.185492,0.974835,0.623298,9.026250,0.000000,-4.375987,1.505500,0.974498,0.023189,0.048819,-0.109041,0.584020,-0.087846,0.182840,-0.012494,0.050302,0.322148,0.565550,9.430565,-0.963385,0.808696,1,0,,38.990340,-76.939884,-3.474000,,,
2026-09-11T19:04:48.586,7.218911,1.024087,0.657671,9.482288,0.000000,-10.217280,3.515119,1.022160,0.037046,0.077991,-0.106922,0.617297,-0.090440,0.158678,-0.014178,0.079475,0.272723,-0.091790,9.939432,-1.014358,0.779815,1,0,,38.990340,-76.939884,-3.474000,,,
2026-09-11T19:04:48.620,7.252333,1.004887,0.691770,9.304512,0.000000,-15.737223,5.414182,1.000404,0.046587,0.098077,-0.103980,0.651055,-0.092608,0.083659,-0.025111,0.099561,-0.632725,0.972918,9.145780,-1.121496,0.818981,1,0,,38.990340,-76.939884,-3.474000,,,
2026-09-11T19:04:48.653,7.285753,1.034584,0.726052,9.579478,0.000000,-19.489747,6.705188,1.027507,0.055635,0.117126,-0.100384,0.684938,-0.094365,0.030453,-0.002629,0.118610,0.136411,0.686073,9.449982,-1.174438,0.837706,1,0,,38.990340,-76.939884,-3.474000,,,
2026-09-11T19:04:48.686,7.319169,1.044421,0.761495,9.670568,0.000000,-19.335251,6.652036,1.037390,0.060930,0.128275,-0.096284,0.719464,-0.095813,-0.021808,0.005425,0.129758,0.762761,-0.110325,10.232651,-1.181421,0.803853,1,0,,38.990340,-76.939884,-3.474000,,,
2026-09-11T19:04:48.720,7.352584,1.093369,0.797770,10.123788,0.000000,-19.291306,6.636917,1.086042,0.068333,0.143860,-0.091737,0.754986,-0.096991,-0.061554,-0.012060,0.145344,1.029698,0.131605,9.371039,-1.166524,0.784535,1,0,,38.990340,-76.939884,-3.474000,,,
2026-09-11T19:04:48.753,7.386001,1.142040,0.835777,10.574444,0.000000,-19.846802,6.828028,1.133940,0.079640,0.167663,-0.086532,0.792151,-0.097829,-0.059305,-0.012218,0.169147,1.468448,-0.043934,10.281782,-1.120923,0.751877,1,0,,38.990340,-76.939884,-3.474000,,,
2026-09-11T19:04:48.786,7.419419,1.180929,0.875459,10.934525,0.000000,-20.324707,6.992445,1.172145,0.082025,0.172685,-0.080845,0.830774,-0.098356,-0.053651,0.007949,0.174168,1.382051,-0.250070,10.724553,-1.080613,0.705443,1,0,,38.990340,-76.939884,-3.474000,,,
2026-09-11T19:04:48.820,7.452833,1.229477,0.916622,11.384045,0.000000,-20.607605,7.089772,1.220076,0.086840,0.182821,-0.074906,0.870840,-0.098650,-0.016544,0.031528,0.184305,0.862495,1.086087,9.918446,-1.074463,0.744661,1,0,,38.990340,-76.939884,-3.474000,,,
2026-09-11T19:04:48.853,7.486251,1.258900,0.958833,11.656481,0.000000,-20.704422,7.123081,1.249184,0.087524,0.184262,-0.068772,0.912201,-0.098704,0.021125,0.014261,0.185746,0.310871,0.512986,8.882373,-1.105582,0.745896,1,0,,38.990340,-76.939884,-3.474000,,,
2026-09-11T19:04:48.886,7.519667,1.288141,1.001887,11.927233,0.000000,-21.027832,7.234346,1.277887,0.095156,0.200328,-0.062346,0.954531,-0.098423,0.101132,0.003287,0.201811,0.508769,-0.173480,10.668459,-1.124514,0.701021,1,0,,38.990340,-76.939884,-3.474000,,,
2026-09-11T19:04:48.920,7.553084,1.327388,1.046752,12.290628,0.000000,-22.079773,7.596252,1.315739,0.101529,0.213746,-0.055428,0.997986,-0.097691,0.153130,-0.001920,0.215229,0.238498,0.235654,8.392237,-1.161802,0.681486,1,0,,38.990340,-76.939884,-3.474000,,,
2026-09-11T19:04:48.953,7.586499,1.337387,1.091618,12.383218,0.000000,-22.854996,7.862957,1.324814,0.097187,0.204604,-0.048438,1.042215,-0.096665,0.117209,-0.002932,0.206087,0.433552,0.104147,8.998778,-1.185866,0.654318,1,0,,38.990340,-76.939884,-3.474000,,,
2026-09-11T19:04:48.987,7.619914,1.366898,1.137828,12.656461,0.000000,-22.835083,7.856107,1.354069,0.105813,0.222765,-0.041298,1.087080,-0.095282,0.108294,-0.052423,0.224248,0.947126,-1.449913,8.809118,-1.173166,0.524903,1,0,,38.990340,-76.939884,-3.474000,,,
2026-09-11T19:04:49.020,7.653329,1.406063,1.185291,13.019106,0.000000,-21.656113,7.450498,1.394192,0.100520,0.211622,-0.034041,1.133093,-0.093564,0.128932,-0.086024,0.213105,0.492196,-1.836884,8.871390,-1.188497,0.372322,1,0,,38.990340,-76.939884,-3.474000,,,
2026-09-11T19:04:49.054,7.686746,1.435506,1.233381,13.291726,0.000000,-21.365662,7.350572,1.423709,0.094150,0.198210,-0.027193,1.180254,-0.091753,0.071324,-0.145362,0.199693,0.486704,-0.533286,8.246706,-1.200271,0.306610,1,0,,38.990340,-76.939884,-3.474000,,,
2026-09-11T19:04:49.087,7.720162,1.474811,1.282576,13.655654,0.000000,-21.224900,7.302144,1.462849,0.085744,0.180514,-0.020865,1.228540,-0.089905,0.088718,-0.100533,0.181998,0.293807,5.521340,12.202023,-1.219442,0.634592,1,0,,38.990340,-76.939884,-3.474000,,,
2026-09-11T19:04:49.121,7.753580,1.484955,1.332545,13.749580,0.000000,-21.137009,7.271907,1.473011,0.096758,0.203702,-0.014445,1.277641,-0.087721,0.064707,-0.002509,0.205185,-0.116405,0.872400,9.407520,-1.261450,0.655784,1,0,,38.990340,-76.939884,-3.474000,,,
2026-09-11T19:04:49.154,7.786996,1.495235,1.382105,13.844770,0.000000,-21.222153,7.301199,1.483112,0.102893,0.216617,-0.007423,1.327064,-0.084925,-0.017587,-0.056575,0.218100,1.036367,0.495824,8.235233,-1.223231,0.650998,1,1,7.795826,38.990341,-76.939873,-3.489000,1.451245,0.413274,2.878759
2026-09-11T19:04:49.187,7.820419,1.543999,1.433749,14.296291,0.000000,-24.974671,8.592203,1.526671,0.127280,0.267958,0.000675,1.377373,-0.081245,-0.054246,-0.057242,0.269442,2.015267,3.645818,9.451944,-1.115172,0.844487,1,0,,38.990341,-76.939873,-3.489000,,,
2026-09-11T19:04:49.221,7.853836,1.563726,1.486168,14.478945,0.000000,-29.825821,10.261177,1.538716,0.154165,0.324559,0.010575,1.428561,-0.076254,0.034746,-0.123624,0.326042,1.278003,1.281827,9.732022,-1.051370,0.876953,1,0,,38.990341,-76.939873,-3.489000,,,
2026-09-11T19:04:49.254,7.887252,1.603147,1.539567,14.843957,0.000000,-32.585450,11.210590,1.572558,0.167359,0.352335,0.021885,1.480449,-0.070036,0.015078,-0.063158,0.353819,0.923100,1.291340,8.243764,-1.005582,0.906137,1,0,,38.990341,-76.939873,-3.489000,,,
2026-09-11T19:04:49.287,7.920681,1.632230,1.593627,15.113244,0.000000,-32.673340,11.240828,1.600918,0.171605,0.361273,0.033813,1.533311,-0.062893,0.020851,-0.073569,0.362757,0.167105,0.010689,10.052013,-1.002361,0.850517,1,0,,38.990341,-76.939873,-3.489000,,,
2026-09-11T19:04:49.321,7.954096,1.632050,1.648119,15.111576,0.000000,-32.694626,11.248151,1.600701,0.162173,0.341418,0.045553,1.586539,-0.055198,0.009653,-0.013452,0.342901,0.399817,-0.140039,8.992208,-0.977979,0.787843,1,0,,38.990341,-76.939873,-3.489000,,,
2026-09-11T19:04:49.354,7.987510,1.632549,1.702600,15.116195,0.000000,-32.669220,11.239411,1.601239,0.172999,0.364209,0.057342,1.639674,-0.046855,-0.011573,-0.053947,0.365692,0.258209,-0.977331,10.950204,-0.957568,0.669309,1,0,,38.990341,-76.939873,-3.489000,,,
2026-09-11T19:04:49.388,8.020932,1.632832,1.757685,15.118814,0.000000,-31.151047,10.717103,1.604351,0.168947,0.355678,0.069372,1.692772,-0.037761,0.123428,-0.018346,0.357162,0.082474,-3.305626,9.243356,-0.947681,0.402194,1,0,,38.990341,-76.939873,-3.489000,,,
2026-09-11T19:04:49.421,8.054348,1.613670,1.811734,14.941385,0.000000,-29.918518,10.293068,1.587700,0.140128,0.295006,0.080243,1.745572,-0.028626,0.015269,-0.014070,0.296490,-1.001357,0.649985,10.617954,-1.006633,0.400673,1,0,,38.990341,-76.939873,-3.489000,,,
2026-09-11T19:04:49.454,8.087763,1.565422,1.863879,14.494651,0.000000,-27.378617,9.419249,1.544316,0.131780,0.277431,0.089807,1.797325,-0.019660,0.037557,0.015694,0.278914,-0.931141,-1.166403,9.810377,-1.057532,0.284224,1,0,,38.990341,-76.939873,-3.489000,,,
2026-09-11T19:04:49.490,8.121190,1.565992,1.916686,14.499927,0.000000,-20.892563,7.187808,1.553686,0.108131,0.227643,0.098249,1.848501,-0.010805,0.046896,-0.004604,0.229127,-0.041188,-0.419332,10.509297,-1.047304,0.222218,1,0,,38.990341,-76.939873,-3.489000,,,
2026-09-11T19:04:49.522,8.154614,1.537339,1.967931,14.234619,0.000000,-20.174332,6.940711,1.526073,0.096275,0.202684,0.105441,1.899356,-0.002176,0.012644,-0.002189,0.204167,-0.214864,-0.636648,11.755035,-1.046123,0.149716,1,0,,38.990341,-76.939873,-3.489000,,,
2026-09-11T19:04:49.555,8.188034,1.528137,2.019086,14.149415,0.000000,-19.948426,6.862990,1.517187,0.099007,0.208435,0.112310,1.949552,0.006593,0.048882,0.022344,0.209919,-0.428845,0.912705,7.207692,-1.059910,0.177838,1,0,,38.990341,-76.939873,-3.489000,,,
2026-09-11T19:04:49.589,8.221453,1.509327,2.069671,13.975249,0.000000,-19.019394,6.543370,1.499495,0.082933,0.174596,0.118711,1.999273,0.015422,0.019369,0.006597,0.176079,-0.275567,-0.397562,10.098398,-1.065688,0.124384,1,0,,38.990341,-76.939873,-3.489000,,,
2026-09-11T19:04:49.622,8.254873,1.490422,2.119959,13.800203,0.000000,-17.844544,6.139178,1.481874,0.070550,0.148526,0.124110,2.048416,0.024000,0.018289,0.050079,0.150010,-0.330680,0.631744,6.233793,-1.075823,0.140827,1,0,,38.990341,-76.939873,-3.489000,,,
2026-09-11T19:04:49.655,8.288291,1.510491,2.170624,13.986024,0.000000,-16.386109,5.637423,1.503185,0.061107,0.128646,0.128741,2.097618,0.032473,0.002134,0.004196,0.130129,-0.818757,0.311655,11.489569,-1.118611,0.138104,1,0,,38.990341,-76.939873,-3.489000,,,
2026-09-11T19:04:49.689,8.321713,1.520852,2.220981,14.081966,0.000000,-15.913010,5.474659,1.513915,0.056425,0.118790,0.132876,2.147349,0.040997,-0.010708,0.073338,0.120273,-0.013239,-0.560058,7.799817,-1.114418,0.079874,1,0,,38.990341,-76.939873,-3.489000,,,
2026-09-11T19:04:49.722,8.355132,1.521060,2.271828,14.083888,0.000000,-15.418625,5.304573,1.514546,0.049979,0.105220,0.136619,2.197256,0.049557,-0.048913,-0.214835,0.106703,-0.063939,2.395667,16.038090,-1.118596,0.214882,1,0,,38.990341,-76.939873,-3.489000,,,
2026-09-11T19:04:49.756,8.388549,1.520983,2.322526,14.083174,0.000000,-16.418381,5.648526,1.513598,0.055294,0.116408,0.140322,2.247125,0.058282,-0.024889,-0.016351,0.117892,2.224737,0.324992,12.756392,-0.978119,0.213313,1,0,,38.990341,-76.939873,-3.489000,,,
2026-09-11T19:04:49.789,8.421968,1.550246,2.374307,14.354128,0.000000,-18.211213,6.265325,1.540986,0.077522,0.163204,0.144995,2.297331,0.067737,-0.022901,-0.012861,0.164687,0.203292,0.636059,11.929986,-0.973876,0.227018,1,0,,38.990341,-76.939873,-3.489000,,,
2026-09-11T19:04:49.822,8.455382,1.569949,2.425804,14.536562,0.000000,-19.728699,6.787396,1.558946,0.100871,0.212360,0.151269,2.348112,0.078329,-0.035036,0.001814,0.213844,1.417061,1.694099,9.385062,-0.893807,0.303878,1,0,,38.990341,-76.939873,-3.489000,,,
2026-09-11T19:04:49.856,8.488799,1.589667,2.479202,14.719142,0.000000,-23.950882,8.239982,1.573256,0.115394,0.242935,0.158876,2.399259,0.089983,-0.074021,-0.022522,0.244419,0.553291,1.787360,9.434586,-0.875639,0.382622,1,0,,38.990341,-76.939873,-3.489000,,,
2026-09-11T19:04:49.889,8.522219,1.599554,2.532339,14.810689,0.000000,-28.717575,9.879900,1.575832,0.147870,0.311306,0.168138,2.450460,0.102889,-0.064958,-0.006793,0.312789,0.067470,0.261739,10.318753,-0.891963,0.354756,1,0,,38.990341,-76.939873,-3.489000,,,
2026-09-11T19:04:49.922,8.555636,1.609479,2.586342,14.902583,0.000000,-32.942505,11.333431,1.578094,0.156609,0.329704,0.178848,2.501486,0.116996,-0.028721,-0.025369,0.331187,0.664008,0.919864,9.033788,-0.869119,0.367865,1,0,,38.990341,-76.939873,-3.489000,,,
2026-09-11T19:04:49.956,8.589052,1.639162,2.641154,15.177424,0.000000,-35.166550,12.098584,1.602753,0.181574,0.382260,0.190744,2.552685,0.132318,-0.057077,-0.039378,0.383744,0.594969,0.793456,9.503232,-0.852609,0.366671,1,0,,38.990341,-76.939873,-3.489000,,,
2026-09-11T19:04:49.990,8.622467,1.668647,2.696637,15.450433,0.000000,-39.364701,13.542902,1.622250,0.195411,0.411392,0.204003,2.604282,0.149061,-0.019010,-0.031601,0.412875,0.005884,2.446857,10.216666,-0.877203,0.468937,1,0,,38.990341,-76.939873,-3.489000,,,
2026-09-11T19:04:50.023,8.655882,1.698654,2.752839,15.728279,0.000000,-44.512482,15.313927,1.638340,0.212409,0.447177,0.218348,2.656116,0.167143,0.075799,-0.030035,0.448660,0.048543,1.933479,9.195402,-0.899692,0.532632,1,0,,38.990341,-76.939873,-3.489000,,,
2026-09-11T19:04:50.056,8.689297,1.709016,2.809849,15.824222,0.000000,-45.388642,15.615358,1.645937,0.231588,0.487554,0.233965,2.707923,0.186676,0.040667,-0.061460,0.489038,0.724515,0.190053,11.134373,-0.878261,0.478285,1,0,,38.990341,-76.939873,-3.489000,,,
2026-09-11T19:04:50.090,8.722715,1.719194,2.867304,15.918463,0.000000,-46.439896,15.977028,1.652785,0.243761,0.513182,0.250686,2.759521,0.207613,0.053352,-0.104655,0.514665,0.461011,0.727653,10.881067,-0.875688,0.456368,1,0,,38.990341,-76.939873,-3.489000,,,
2026-09-11T19:04:50.123,8.756133,1.758427,2.926297,16.281735,0.000000,-46.516114,16.003250,1.690281,0.243878,0.513427,0.267840,2.811421,0.229813,0.078644,-0.032442,0.514911,0.883481,-0.245362,11.853298,-0.847760,0.370457,1,0,,38.990341,-76.939873,-3.489000,,,
2026-09-11T19:04:50.157,8.789555,1.768134,2.985335,16.371614,0.000000,-46.138459,15.873323,1.700713,0.226178,0.476164,0.284377,2.863800,0.252820,0.061896,-0.032313,0.477648,0.588301,1.055490,10.349252,-0.840660,0.373434,1,1,8.796381,38.990343,-76.939862,-6.084000,2.323144,0.725918,3.549454
2026-09-11T19:04:50.190,8.822976,1.777778,3.045035,16.460905,0.000000,-43.939133,15.116674,1.716261,0.213959,0.450440,0.299861,2.916362,0.276309,0.025794,0.144897,0.451923,1.561611,0.154553,8.262103,-0.771255,0.320450,1,0,,38.990343,-76.939862,-6.084000,,,
2026-09-11T19:04:50.224,8.856430,1.787962,3.105486,16.555204,0.000000,-39.828873,13.702594,1.737074,0.199705,0.420431,0.314428,2.969330,0.300371,-0.111923,0.269259,0.421914,-2.079892,-0.015593,-3.780562,-0.938020,0.259749,1,0,,38.990343,-76.939862,-6.084000,,,
2026-09-11T19:04:50.257,8.889845,1.807756,3.166028,16.738481,0.000000,-38.583298,13.274070,1.759458,0.196897,0.414521,0.328378,3.022663,0.325114,-0.060828,-0.032778,0.416004,3.465278,1.835413,6.845924,-0.743013,0.319625,1,0,,38.990343,-76.939862,-6.084000,,,
2026-09-11T19:04:50.290,8.923258,1.827678,3.227550,16.922946,0.000000,-38.961640,13.404234,1.777890,0.203115,0.427610,0.342447,3.076265,0.350878,-0.083793,0.037081,0.429094,-0.063449,0.911332,5.573512,-0.778162,0.317044,1,0,,38.990343,-76.939862,-6.084000,,,
2026-09-11T19:04:50.324,8.956674,1.856927,3.289163,17.193773,0.000000,-39.176560,13.478174,1.805785,0.200129,0.421324,0.356631,3.130209,0.377716,-0.033498,-0.044067,0.422808,1.615155,-2.099604,11.128587,-0.704049,0.119635,1,0,,38.990343,-76.939862,-6.084000,,,
2026-09-11T19:04:50.357,8.990090,1.886194,3.352360,17.464763,0.000000,-39.060517,13.438251,1.834552,0.216753,0.456322,0.371295,3.184565,0.405879,-0.035302,-0.034382,0.457806,1.182584,-0.572120,9.635524,-0.655381,0.018310,1,0,,38.990343,-76.939862,-6.084000,,,
2026-09-11T19:04:50.391,9.023507,1.906254,3.416457,17.650497,0.000000,-39.485550,13.584478,1.852926,0.233628,0.491849,0.387137,3.239009,0.435678,0.054701,-0.009915,0.493333,-3.946294,6.106895,11.387090,-0.932758,0.345475,1,0,,38.990343,-76.939862,-6.084000,,,
2026-09-11T19:04:50.424,9.056943,1.916418,3.480394,17.744609,0.000000,-39.986115,13.756691,1.861444,0.200073,0.421206,0.402402,3.293543,0.466255,-0.045977,0.057521,0.422690,-0.038932,7.375876,8.550712,-0.948179,0.759653,1,0,,38.990343,-76.939862,-6.084000,,,
2026-09-11T19:04:50.458,9.090365,1.946121,3.544662,18.019635,0.000000,-40.327378,13.874098,1.889342,0.234155,0.492958,0.417678,3.348127,0.497897,0.005762,0.022507,0.494441,2.286028,5.068567,8.228564,-0.808999,1.010233,1,0,,38.990343,-76.939862,-6.084000,,,
2026-09-11T19:04:50.491,9.123790,1.956221,3.611003,18.113159,0.000000,-40.208588,13.833230,1.899482,0.232462,0.489395,0.434096,3.402567,0.531159,0.002065,0.011014,0.490878,0.522891,-0.891424,6.964193,-0.783346,0.872320,1,0,,38.990343,-76.939862,-6.084000,,,
2026-09-11T19:04:50.524,9.157215,1.966371,3.677185,18.207142,0.000000,-40.209275,13.833466,1.909336,0.229706,0.483592,0.450357,3.456791,0.565381,0.048428,-0.011916,0.485075,0.490823,1.059216,11.039052,-0.756948,0.862629,1,0,,38.990343,-76.939862,-6.084000,,,
2026-09-11T19:04:50.557,9.190635,1.975833,3.742763,18.294749,0.000000,-40.187989,13.826143,1.918584,0.230653,0.485584,0.466552,3.510743,0.600587,0.048348,0.050062,0.487068,0.537306,-0.116993,10.640510,-0.725127,0.776376,1,0,,38.990343,-76.939862,-6.084000,,,
2026-09-11T19:04:50.593,9.224064,1.976353,3.810004,18.299567,0.000000,-40.033493,13.772991,1.919526,0.226370,0.476568,0.482633,3.564313,0.636697,-0.031699,-0.145218,0.478052,0.980273,0.291748,5.314224,-0.662407,0.718613,1,0,,38.990343,-76.939862,-6.084000,,,
2026-09-11T19:04:50.625,9.257489,1.976842,3.875343,18.304093,0.000000,-43.145371,14.843591,1.910872,0.240999,0.507366,0.499078,3.617085,0.673758,-0.000574,0.036604,0.508850,-0.156024,2.962981,10.003666,-0.668257,0.830880,1,0,,38.990343,-76.939862,-6.084000,,,
2026-09-11T19:04:50.658,9.290907,1.938314,3.939839,17.947347,0.000000,-44.494629,15.307785,1.869545,0.245846,0.517571,0.516203,3.668333,0.711567,0.020083,-0.127422,0.519055,-0.295671,2.416064,12.527505,-0.677098,0.906607,1,0,,38.990343,-76.939862,-6.084000,,,
2026-09-11T19:04:50.691,9.324321,1.909622,4.004893,17.681686,0.000000,-44.285202,15.235735,1.842504,0.252800,0.532211,0.533742,3.717823,0.749853,0.035516,-0.090950,0.533694,-0.501904,1.050096,9.890595,-0.693693,0.892243,1,0,,38.990343,-76.939862,-6.084000,,,
2026-09-11T19:04:50.724,9.357736,1.910149,4.067907,17.686563,0.000000,-43.893815,15.101083,1.844187,0.231361,0.487075,0.550772,3.766408,0.788570,-0.059854,-0.077721,0.488559,-0.086299,-0.908488,11.916943,-0.677646,0.756610,1,0,,38.990343,-76.939862,-6.084000,,,
2026-09-11T19:04:50.758,9.391149,1.910648,4.131434,17.691183,0.000000,-40.966645,14.094029,1.853132,0.214660,0.451916,0.566459,3.814838,0.827628,-0.003171,-0.068501,0.453399,1.076966,0.476603,10.996295,-0.582885,0.716059,1,0,,38.990343,-76.939862,-6.084000,,,
2026-09-11T19:04:50.792,9.424769,1.881943,4.194996,17.425397,0.000000,-36.516495,12.563014,1.836884,0.202042,0.425351,0.581206,3.863130,0.867181,-0.030343,-0.034085,0.426835,0.839940,-1.832078,10.904309,-0.502196,0.529058,1,0,,38.990343,-76.939862,-6.084000,,,
2026-09-11T19:04:50.825,9.458185,1.892143,4.257919,17.519839,0.000000,-31.946183,10.990659,1.857437,0.179383,0.377649,0.594623,3.910957,0.906722,-0.019663,0.029288,0.379132,1.454915,2.220520,10.873025,-0.381887,0.612685,1,0,,38.990343,-76.939862,-6.084000,,,
2026-09-11T19:04:50.858,9.491780,1.882966,4.320831,17.434871,0.000000,-29.417954,10.120856,1.853666,0.153180,0.322483,0.606383,3.959234,0.946555,-0.027186,-0.014325,0.323967,0.315872,0.957619,10.202250,-0.334120,0.620408,1,0,,38.990343,-76.939862,-6.084000,,,
2026-09-11T19:04:50.892,9.525204,1.844364,4.382581,17.077446,0.000000,-28.827439,9.917697,1.816802,0.156007,0.328436,0.617261,4.006480,0.986013,0.011577,-0.044019,0.329919,0.155926,1.762451,13.093153,-0.297830,0.680173,1,0,,38.990343,-76.939862,-6.084000,,,
2026-09-11T19:04:50.926,9.558627,1.815032,4.443442,16.805851,0.000000,-28.817139,9.914153,1.787928,0.151872,0.319731,0.628093,4.052415,1.025323,0.016994,-0.016424,0.321215,-0.843568,-0.847687,6.132491,-0.329270,0.571946,1,0,,38.990343,-76.939862,-6.084000,,,
2026-09-11T19:04:50.960,9.592046,1.795960,4.503859,16.629263,0.000000,-29.338303,10.093453,1.768165,0.167105,0.351799,0.639314,4.097141,1.064799,0.027596,-0.194357,0.353283,-1.861891,0.099930,11.089654,-0.424919,0.523002,1,0,,38.990343,-76.939862,-6.084000,,,
2026-09-11T19:04:50.992,9.625467,1.767350,4.562613,16.364353,0.000000,-29.529190,10.159125,1.739641,0.146052,0.307478,0.650331,4.140846,1.104212,0.090767,-0.004507,0.308961,1.912199,-1.233579,14.975834,-0.273437,0.393932,1,0,,38.990343,-76.939862,-6.084000,,,
2026-09-11T19:04:51.026,9.658886,1.757988,4.620854,16.277665,0.000000,-29.437867,10.127706,1.730595,0.140725,0.296263,0.660419,4.183898,1.143350,0.046630,0.058252,0.297746,1.438538,-0.840234,13.226229,-0.154812,0.293197,1,0,,38.990343,-76.939862,-6.084000,,,
2026-09-11T19:04:51.059,9.692305,1.758168,4.679448,16.279333,0.000000,-29.509278,10.152274,1.730640,0.143201,0.301476,0.670407,4.226465,1.182789,0.099086,-0.056744,0.302959,-0.113365,0.635079,10.633449,-0.135172,0.288466,1,0,,38.990343,-76.939862,-6.084000,,,
2026-09-11T19:04:51.093,9.725730,1.748902,4.738110,16.193541,0.000000,-29.262085,10.067231,1.721975,0.145137,0.305552,0.680552,4.268484,1.222628,0.076845,-0.001311,0.307035,0.772960,-1.443049,10.307770,-0.055833,0.148998,1,0,,38.990343,-76.939862,-6.084000,,,
2026-09-11T19:04:51.126,9.759145,1.710573,4.794939,15.838643,0.000000,-26.839600,9.233807,1.688407,0.121955,0.256748,0.689946,4.309779,1.262142,0.055217,-0.035786,0.258232,-0.438259,0.554566,10.151648,-0.060127,0.146365,1,0,,38.990343,-76.939862,-6.084000,,,
2026-09-11T19:04:51.160,9.792562,1.691856,4.851311,15.665337,0.000000,-20.979767,7.217810,1.678450,0.116455,0.245168,0.698333,4.350469,1.301191,0.032625,0.024608,0.246652,-0.844156,-1.178563,10.457321,-0.096824,0.033042,1,0,,38.990343,-76.939862,-6.084000,,,
2026-09-11T19:04:51.193,9.825991,1.673128,4.907740,15.491922,0.000000,-19.929200,6.856376,1.661162,0.092494,0.194724,0.705685,4.390836,1.339903,0.031647,-0.041986,0.196207,-0.567707,1.773533,9.878729,-0.120627,0.117715,1,1,9.804108,38.990355,-76.939846,-6.223000,3.706832,1.974637,2.696135
2026-09-11T19:04:51.226,9.859411,1.644341,4.962632,15.225384,0.000000,-19.929200,6.856376,1.632582,0.102325,0.215420,0.712539,4.430487,1.378210,0.069339,0.021520,0.216904,-0.122485,0.653613,9.655628,-0.120130,0.127131,1,0,,38.990355,-76.939846,-6.223000,,,
2026-09-11T19:04:51.261,9.892837,1.654767,5.018047,15.321914,0.000000,-20.117341,6.921103,1.642709,0.107040,0.225347,0.719905,4.469479,1.416789,-0.007218,-0.000955,0.226831,0.458069,1.824233,9.049969,-0.087542,0.211016,1,0,,38.990355,-76.939846,-6.223000,,,
2026-09-11T19:04:51.293,9.926263,1.645222,5.072608,15.233540,0.000000,-19.994431,6.878818,1.633379,0.095540,0.201137,0.727033,4.508277,1.455573,-0.038844,0.031022,0.202621,-0.265172,0.844941,10.448790,-0.103983,0.233283,1,0,,38.990355,-76.939846,-6.223000,,,
2026-09-11T19:04:51.326,9.959686,1.616179,5.126178,14.964618,0.000000,-19.994431,6.878818,1.604545,0.097618,0.205511,0.733829,4.546429,1.494077,-0.110200,0.024208,0.206994,0.473465,2.463234,9.099002,-0.073721,0.359956,1,0,,38.990355,-76.939846,-6.223000,,,
2026-09-11T19:04:51.360,9.993101,1.625984,5.180522,15.055411,0.000000,-22.917481,7.884454,1.610613,0.117542,0.247457,0.741397,4.583765,1.532863,-0.019646,-0.006668,0.248941,1.454817,2.189531,9.464300,0.014446,0.463042,1,0,,38.990355,-76.939846,-6.223000,,,
2026-09-11T19:04:51.393,10.026517,1.655305,5.235847,15.326899,0.000000,-28.149720,9.684537,1.631715,0.148348,0.312312,0.750750,4.620530,1.572895,0.057785,-0.021954,0.313796,-0.992727,4.439372,10.463205,-0.060823,0.703410,1,0,,38.990355,-76.939846,-6.223000,,,
2026-09-11T19:04:51.427,10.059944,1.675051,5.292151,15.509732,0.000000,-33.777466,11.620688,1.640717,0.173854,0.366008,0.762087,4.656609,1.614347,0.034489,0.007671,0.367492,1.176798,-0.069431,6.729519,0.003310,0.643425,1,0,,38.990355,-76.939846,-6.223000,,,
2026-09-11T19:04:51.460,10.093359,1.704563,5.349024,15.782995,0.000000,-35.229035,12.120081,1.666568,0.177327,0.373320,0.774439,4.692266,1.656965,0.041508,-0.018890,0.374803,-0.524264,4.162531,9.907463,-0.043852,0.856603,1,0,,38.990355,-76.939846,-6.223000,,,
2026-09-11T19:04:51.494,10.126782,1.704765,5.405910,15.784863,0.000000,-35.354004,12.163075,1.666496,0.182716,0.384666,0.787106,4.727597,1.700441,0.003986,-0.039346,0.386150,1.291242,1.607408,9.055853,0.026613,0.900848,1,0,,38.990355,-76.939846,-6.223000,,,
2026-09-11T19:04:51.527,10.160201,1.753816,5.464914,16.239039,0.000000,-35.638962,12.261111,1.713812,0.178575,0.375948,0.799816,4.762907,1.744939,0.033012,0.072132,0.377432,-1.327820,1.013910,16.938831,-0.073038,0.905971,1,0,,38.990355,-76.939846,-6.223000,,,
2026-09-11T19:04:51.561,10.193624,1.725333,5.522152,15.975308,0.000000,-35.464554,12.201108,1.686361,0.182474,0.384156,0.812518,4.797890,1.790118,-0.010910,-0.035288,0.385639,0.527794,3.020350,7.879447,-0.052135,1.040706,1,0,,38.990355,-76.939846,-6.223000,,,
2026-09-11T19:04:51.594,10.227052,1.764748,5.581065,16.340264,0.000000,-35.428849,12.188824,1.724966,0.182886,0.385022,0.825374,4.832367,1.835936,-0.005661,-0.057457,0.386506,2.042235,4.058678,9.689461,0.065489,1.240157,1,0,,38.990355,-76.939846,-6.223000,,,
2026-09-11T19:04:51.627,10.260475,1.765097,5.640183,16.343491,0.000000,-35.397950,12.178194,1.725376,0.185029,0.389534,0.838318,4.866657,1.882697,-0.023200,-0.034748,0.391017,0.124446,-0.298809,11.087006,0.058549,1.154727,1,0,,38.990355,-76.939846,-6.223000,,,
2026-09-11T19:04:51.661,10.293896,1.785112,5.700145,16.528818,0.000000,-35.287400,12.140160,1.745190,0.174428,0.367217,0.850964,4.900672,1.930051,-0.042714,-0.033048,0.368700,0.998415,2.981026,10.853020,0.110825,1.284621,1,0,,38.990355,-76.939846,-6.223000,,,
2026-09-11T19:04:51.694,10.327318,1.765847,5.759080,16.350437,0.000000,-35.344391,12.159768,1.726229,0.198165,0.417190,0.864072,4.933920,1.977990,-0.060986,-0.023832,0.418673,-0.499747,2.640048,8.503739,0.066553,1.385877,1,0,,38.990355,-76.939846,-6.223000,,,
2026-09-11T19:04:51.728,10.360734,1.746542,5.817937,16.171685,0.000000,-35.382843,12.172997,1.707272,0.206664,0.435081,0.878312,4.965686,2.026235,-0.100337,-0.055621,0.436565,-4.312376,0.169067,-0.647239,-0.224770,1.324554,1,0,,38.990355,-76.939846,-6.223000,,,
2026-09-11T19:04:51.761,10.394152,1.766183,5.877636,16.353547,0.000000,-40.809403,14.039932,1.713422,0.213353,0.449163,0.893086,4.996414,2.074932,-0.119641,-0.041454,0.450647,-0.764036,0.607032,7.867287,-0.284746,1.290530,1,0,,38.990355,-76.939846,-6.223000,,,
2026-09-11T19:04:51.794,10.427574,1.766444,5.936025,16.355967,0.000000,-43.676148,15.026198,1.706045,0.213864,0.450240,0.908117,5.026313,2.124148,-0.100444,-0.029318,0.451724,-0.178089,1.671740,8.554537,-0.310755,1.325914,1,0,,38.990355,-76.939846,-6.223000,,,
2026-09-11T19:04:51.828,10.460997,1.747276,5.994619,16.178484,0.000000,-44.670411,15.368261,1.684798,0.236578,0.498059,0.923964,5.054849,2.173673,-0.136333,-0.035012,0.499542,0.567217,1.077162,11.944990,-0.289314,1.317810,1,0,,38.990355,-76.939846,-6.223000,,,
2026-09-11T19:04:51.862,10.494437,1.766967,6.055469,16.360808,0.000000,-46.080780,15.853480,1.699758,0.248349,0.522840,0.941033,5.082052,2.223950,-0.104371,-0.002108,0.524323,1.169247,1.878758,9.948062,-0.229001,1.358512,1,0,,38.990355,-76.939846,-6.223000,,,
2026-09-11T19:04:51.895,10.527884,1.767446,6.113174,16.365242,0.000000,-46.604004,16.033488,1.698693,0.257076,0.541214,0.958828,5.108238,2.275091,-0.117979,-0.012192,0.542697,-0.406682,0.867692,11.539485,-0.275550,1.331267,1,0,,38.990355,-76.939846,-6.223000,,,
2026-09-11T19:04:51.928,10.561302,1.757955,6.171859,16.277365,0.000000,-46.531907,16.008683,1.689782,0.251954,0.530429,0.976734,5.133342,2.326545,-0.104351,-0.045923,0.531912,0.904860,-0.251541,11.963329,-0.241668,1.233381,1,0,,38.990355,-76.939846,-6.223000,,,
2026-09-11T19:04:51.961,10.594718,1.787664,6.231285,16.552441,0.000000,-46.493454,15.995454,1.718452,0.235077,0.494900,0.993865,5.158026,2.378505,-0.116735,-0.056725,0.496384,2.401158,-0.828270,12.390702,-0.119240,1.102225,1,0,,38.990355,-76.939846,-6.223000,,,
2026-09-11T19:04:51.995,10.628147,1.797751,6.291975,16.645840,0.000000,-46.135025,15.872142,1.729210,0.241841,0.509138,1.010647,5.182332,2.431355,-0.040527,-0.014455,0.510622,2.108136,1.952504,9.469007,-0.021386,1.150609,1,0,,38.990355,-76.939846,-6.223000,,,
2026-09-11T19:04:52.028,10.661570,1.856655,6.353862,17.191251,0.000000,-45.378342,15.611815,1.788158,0.234550,0.493790,1.027408,5.206357,2.485589,0.045073,-0.002986,0.495273,0.662047,1.545332,10.272368,-0.019539,1.171920,1,0,,38.990355,-76.939846,-6.223000,,,
2026-09-11T19:04:52.061,10.694986,1.886181,6.416318,17.464643,0.000000,-44.109421,15.175260,1.820410,0.225455,0.474641,1.043588,5.230497,2.541368,0.057924,-0.043356,0.476125,-0.767959,1.792263,8.408810,-0.112855,1.210202,1,0,,38.990355,-76.939846,-6.223000,,,
2026-09-11T19:04:52.095,10.728410,1.876746,6.479025,17.377273,0.000000,-42.536316,14.634054,1.815862,0.208597,0.439152,1.058860,5.254374,2.597720,0.089301,-0.063471,0.440635,2.405669,-1.520717,9.655235,0.000000,1.037874,1,0,,38.990355,-76.939846,-6.223000,,,
2026-09-11T19:04:52.129,10.761828,1.915565,6.543065,17.736714,0.000000,-41.060028,14.126157,1.857640,0.206874,0.435525,1.073475,5.277969,2.654808,0.184946,-0.053776,0.437009,1.218378,0.671265,11.102011,0.036289,1.008635,1,0,,38.990355,-76.939846,-6.223000,,,
2026-09-11T19:04:52.162,10.795248,1.954895,6.608677,18.100881,0.000000,-39.426499,13.564162,1.900369,0.206526,0.434792,1.088018,5.301425,2.713466,0.175488,-0.016379,0.436276,1.037347,-1.280356,7.644578,0.063273,0.852272,1,1,10.799803,38.990368,-76.939838,-6.188000,4.466377,3.515428,3.116329
2026-09-11T19:04:52.195,10.828674,1.984269,6.674916,18.372860,0.000000,-36.979294,12.722234,1.935553,0.204917,0.431404,1.102494,5.324658,2.773611,0.176623,-0.068934,0.432888,-0.114346,-0.349607,9.655432,0.022491,0.757316,1,0,,38.990368,-76.939838,-6.188000,,,
2026-09-11T19:04:52.229,10.862095,2.023397,6.742203,18.735160,0.000000,-32.629395,11.225709,1.984685,0.177719,0.374145,1.115956,5.348104,2.835117,0.135179,0.003180,0.375629,-0.139156,0.749522,7.131200,-0.012773,0.740556,1,0,,38.990368,-76.939838,-6.188000,,,
2026-09-11T19:04:52.262,10.895512,2.023423,6.810287,18.735398,0.000000,-30.594864,10.525756,1.989375,0.163680,0.344589,1.127965,5.371777,2.897416,0.109997,-0.019053,0.346072,0.427374,-1.622314,7.459428,-0.002176,0.574176,1,0,,38.990368,-76.939838,-6.188000,,,
2026-09-11T19:04:52.296,10.928932,2.033777,6.878463,18.831269,0.000000,-28.552094,9.822968,2.003961,0.149760,0.315283,1.138991,5.395291,2.960083,0.149702,-0.000515,0.316767,0.592910,-0.610954,11.874971,0.030544,0.478566,1,0,,38.990368,-76.939838,-6.188000,,,
2026-09-11T19:04:52.329,10.962356,2.024405,6.946593,18.744488,0.000000,-25.076294,8.627165,2.001499,0.138008,0.290543,1.149116,5.418621,3.023011,0.197610,-0.005707,0.292027,1.899450,-0.735303,10.056916,0.153041,0.379211,1,0,,38.990368,-76.939838,-6.188000,,,
2026-09-11T19:04:52.363,10.995775,2.015393,7.015008,18.661045,0.000000,-19.947739,6.862754,2.000953,0.133552,0.281162,1.158668,5.441553,3.085998,0.124808,0.004486,0.282646,-0.219179,2.191492,10.164887,0.141978,0.471607,1,0,,38.990368,-76.939838,-6.188000,,,
2026-09-11T19:04:52.396,11.029199,2.006238,7.081486,18.576277,0.000000,-20.017090,6.886614,1.991764,0.113927,0.239847,1.167375,5.464219,3.148893,0.053423,0.053789,0.241330,-0.554762,-1.714202,10.855569,0.117192,0.315695,1,0,,38.990368,-76.939838,-6.188000,,,
2026-09-11T19:04:52.430,11.062621,1.958268,7.147121,18.132109,0.000000,-17.457276,6.005944,1.947519,0.091221,0.192045,1.174593,5.486688,3.210865,-0.086563,0.049715,0.193528,-0.869556,-0.356276,10.557251,0.077795,0.256116,1,0,,38.990368,-76.939838,-6.188000,,,
2026-09-11T19:04:52.463,11.096037,1.909672,7.210921,17.682149,0.000000,-14.784851,5.086531,1.902152,0.081414,0.171397,1.180665,5.508667,3.271382,-0.036400,0.038316,0.172881,-1.165913,-1.254859,10.286490,0.023613,0.142173,1,0,,38.990368,-76.939838,-6.188000,,,
2026-09-11T19:04:52.497,11.129459,1.890600,7.274449,17.505560,0.000000,-14.348145,4.936288,1.883588,0.069314,0.145923,1.185968,5.530241,3.330908,0.006632,0.016989,0.147407,-1.351847,1.821095,10.003470,-0.040131,0.231847,1,0,,38.990368,-76.939838,-6.188000,,,
2026-09-11T19:04:52.530,11.162885,1.842511,7.335196,17.060291,0.000000,-14.757385,5.077082,1.835282,0.071807,0.151173,1.190933,5.551244,3.389452,0.040838,0.018742,0.152656,-1.564847,1.128157,10.498411,-0.117299,0.275521,1,0,,38.990368,-76.939838,-6.188000,,,
2026-09-11T19:04:52.563,11.196303,1.804163,7.394884,16.705213,0.000000,-15.696030,5.400010,1.796156,0.076252,0.160530,1.196142,5.571297,3.446773,0.046023,0.016529,0.162014,-0.709021,0.295180,7.559162,-0.140140,0.264095,1,0,,38.990368,-76.939838,-6.188000,,,
2026-09-11T19:04:52.597,11.229724,1.784900,7.454891,16.526850,0.000000,-16.156769,5.558521,1.776507,0.078190,0.164611,1.201575,5.590590,3.503328,0.074720,-0.000444,0.166095,-0.407172,1.758921,10.505864,-0.144009,0.347255,1,0,,38.990368,-76.939838,-6.188000,,,
2026-09-11T19:04:52.631,11.263146,1.765755,7.513257,16.349585,0.000000,-16.164322,5.561120,1.757444,0.074777,0.157425,1.206956,5.609369,3.559379,0.116348,0.078139,0.158908,0.564079,-1.243581,9.529024,-0.084945,0.236199,1,0,,38.990368,-76.939838,-6.188000,,,
2026-09-11T19:04:52.663,11.296569,1.746751,7.571726,16.173622,0.000000,-15.639038,5.380403,1.739055,0.060249,0.126840,1.211707,5.627923,3.614832,0.090266,0.009180,0.128324,0.115130,1.078241,5.501335,-0.061600,0.280270,1,0,,38.990368,-76.939838,-6.188000,,,
2026-09-11T19:04:52.697,11.329991,1.757087,7.630377,16.269328,0.000000,-14.510193,4.992039,1.750422,0.053351,0.112318,1.215703,5.646527,3.670129,0.127159,-0.048171,0.113801,1.177386,1.630846,9.984641,0.024382,0.361168,1,0,,38.990368,-76.939838,-6.188000,,,
2026-09-11T19:04:52.730,11.363411,1.767188,7.689426,16.362852,0.000000,-12.435837,4.278384,1.762263,0.068754,0.144746,1.219999,5.664902,3.725913,0.093741,0.063927,0.146230,1.275649,-4.233433,7.943681,0.113455,0.057884,1,0,,38.990368,-76.939838,-6.188000,,,
2026-09-11T19:04:52.764,11.396829,1.777467,7.749034,16.458029,0.000000,-8.679886,2.986199,1.775054,0.029785,0.062706,1.223465,5.683570,3.782019,0.032602,-0.004192,0.064189,1.333018,-0.296161,6.220947,0.200245,0.022060,1,0,,38.990368,-76.939838,-6.188000,,,
2026-09-11T19:04:52.797,11.430255,1.787485,7.808825,16.550785,0.000000,-4.568938,1.571882,1.786812,-0.006089,-0.012819,1.224299,5.703437,3.838137,-0.011187,0.005625,-0.011336,2.235720,-0.588889,10.741028,0.336922,-0.023634,1,0,,38.990368,-76.939838,-6.188000,,,
2026-09-11T19:04:52.831,11.463675,1.816948,7.869116,16.823595,0.000000,0.328904,-0.113155,1.816945,-0.028794,-0.060619,1.223072,5.724471,3.894565,0.002654,0.198384,-0.059136,3.460080,-0.550349,17.763766,0.546139,-0.060673,1,0,,38.990368,-76.939838,-6.188000,,,
2026-09-11T19:04:52.863,11.497092,1.797346,7.929043,16.642095,0.000000,5.598910,-1.926230,1.796331,-0.022268,-0.046880,1.221276,5.745895,3.951014,-0.016001,0.127448,-0.045396,3.499013,-0.273311,5.652259,0.753597,-0.081052,1,0,,38.990368,-76.939838,-6.188000,,,
2026-09-11T19:04:52.897,11.530511,1.807520,7.989973,16.736298,0.000000,5.432055,-1.868826,1.806559,-0.035315,-0.074347,1.219250,5.767473,4.007226,-0.048065,0.023981,-0.072864,1.979570,0.541817,13.310468,0.858596,-0.045220,1,0,,38.990368,-76.939838,-6.188000,,,
2026-09-11T19:04:52.931,11.563932,1.837035,8.051598,17.009580,0.000000,5.427248,-1.867173,1.836059,-0.029637,-0.062394,1.216965,5.789518,4.063974,-0.031531,0.038788,-0.060911,-0.349117,-0.562117,8.505504,0.810562,-0.082498,1,0,,38.990368,-76.939838,-6.188000,,,
2026-09-11T19:04:52.964,11.597350,1.808369,8.111616,16.744156,0.000000,5.295412,-1.821816,1.807455,-0.029754,-0.062641,1.214876,5.811602,4.120714,0.024227,-0.018052,-0.061157,-0.413939,-1.516991,8.469023,0.758440,-0.181227,1,0,,38.990368,-76.939838,-6.188000,,,
2026-09-11T19:04:52.998,11.630766,1.808751,8.172101,16.747693,0.000000,4.934237,-1.697559,1.807957,-0.026127,-0.055004,1.212910,5.833581,4.176988,0.030037,-0.012038,-0.053520,0.430218,1.384013,11.581065,0.761276,-0.092057,1,0,,38.990368,-76.939838,-6.188000,,,
2026-09-11T19:04:53.031,11.664184,1.818772,8.233293,16.840483,0.000000,4.420626,-1.520858,1.818131,-0.024728,-0.052058,1.211121,5.855652,4.233421,0.012005,-0.008573,-0.050574,1.759117,-0.019809,14.511489,0.849231,-0.095011,1,0,,38.990368,-76.939838,-6.188000,,,
2026-09-11T19:04:53.064,11.697609,1.838620,8.294291,17.024256,0.000000,3.709261,-1.276122,1.838164,-0.018391,-0.038718,1.209604,5.877877,4.290346,0.063286,-0.024317,-0.037235,0.401975,0.081003,9.279641,0.845465,-0.092928,1,0,,38.990368,-76.939838,-6.188000,,,
2026-09-11T19:04:53.099,11.731036,1.839463,8.355676,17.032061,0.000000,2.951205,-1.015323,1.839174,-0.006272,-0.013204,1.208737,5.900007,4.347686,-0.008582,0.006063,-0.011720,1.069709,0.439632,8.315647,0.879339,-0.070692,1,0,,38.990368,-76.939838,-6.188000,,,
2026-09-11T19:04:53.132,11.764578,1.829996,8.417563,16.944403,0.000000,2.769244,-0.952721,1.829743,-0.004927,-0.010372,1.208341,5.921988,4.405157,-0.040449,-0.050726,-0.008889,-0.222023,-0.945949,6.677348,0.824571,-0.138953,1,0,,38.990368,-76.939838,-6.188000,,,
2026-09-11T19:04:53.165,11.798104,1.830704,8.479062,16.950963,0.000000,2.488406,-0.856103,1.830500,-0.013990,-0.029452,1.207674,5.944060,4.462408,-0.138887,-0.031765,-0.027969,-0.329209,-1.925634,12.646656,0.764619,-0.267749,1,1,11.802822,38.990385,-76.939832,-6.332000,4.964626,5.362746,3.601155
2026-09-11T19:04:53.199,11.831517,1.840868,8.539980,17.045077,0.000000,1.726229,-0.593886,1.840769,-0.012565,-0.026452,1.206740,5.966287,4.519575,-0.139392,-0.034037,-0.024968,-0.775314,-1.577302,8.582780,0.677815,-0.372486,1,0,,38.990385,-76.939832,-6.332000,,,
2026-09-11T19:04:53.232,11.864930,1.860399,8.601559,17.225916,0.000000,-0.832899,0.286548,1.860376,0.010807,0.022752,1.206678,5.988333,4.577344,-0.088242,-0.085534,0.024235,2.065379,-5.781511,1.797167,0.777062,-0.753917,1,0,,38.990385,-76.939832,-6.332000,,,
2026-09-11T19:04:53.265,11.898346,1.870017,8.663719,17.314971,0.000000,-4.941099,1.699919,1.869194,0.009970,0.020990,1.207409,6.010178,4.635703,-0.013150,0.083347,0.022473,1.529641,4.563230,9.936686,0.846241,-0.461704,1,0,,38.990385,-76.939832,-6.332000,,,
2026-09-11T19:04:53.299,11.931764,1.899365,8.727668,17.586713,0.000000,-6.042478,2.078834,1.898115,0.035730,0.075221,1.209016,6.031791,4.694830,0.053671,0.037097,0.076705,3.553244,-3.584331,9.642487,1.055064,-0.706550,1,0,,38.990385,-76.939832,-6.332000,,,
2026-09-11T19:04:53.332,11.965184,1.957755,8.793474,18.127360,0.000000,-6.313017,2.171909,1.956348,0.044194,0.093041,1.211828,6.053251,4.755571,0.028035,0.132052,0.094524,0.895936,-8.200027,16.515674,1.097511,-1.249877,1,0,,38.990385,-76.939832,-6.332000,,,
2026-09-11T19:04:53.366,11.998599,1.996777,8.860932,18.488672,0.000000,-5.826185,2.004421,1.995555,0.030837,0.064920,1.214467,6.075191,4.817859,0.096485,-0.014356,0.066404,1.466879,1.166109,6.352258,1.180683,-1.177787,1,0,,38.990385,-76.939832,-6.332000,,,
2026-09-11T19:04:53.399,12.032017,2.016323,8.928743,18.669657,0.000000,-4.269560,1.468885,2.015660,-0.000216,-0.000454,1.215544,6.098058,4.880864,0.065896,0.047188,0.001029,-1.202295,-0.985078,7.697142,1.094837,-1.237232,1,0,,38.990385,-76.939832,-6.332000,,,
2026-09-11T19:04:53.433,12.065432,2.017059,8.996577,18.676471,0.000000,-1.678846,0.577585,2.016956,-0.015442,-0.032510,1.214993,6.121755,4.943935,0.032104,-0.042647,-0.031026,-1.037740,1.613488,12.006576,1.025940,-1.123717,1,0,,38.990385,-76.939832,-6.332000,,,
2026-09-11T19:04:53.466,12.098857,1.998277,9.062963,18.502560,0.000000,2.382662,-0.819723,1.998072,-0.030861,-0.064970,1.213364,6.145905,5.006544,0.019394,-0.063839,-0.063486,-0.524362,-0.918785,9.980228,0.994765,-1.171141,1,0,,38.990385,-76.939832,-6.332000,,,
2026-09-11T19:04:53.500,12.132276,1.969672,9.128325,18.237707,0.000000,4.895098,-1.684093,1.968822,-0.032464,-0.068344,1.211137,6.170155,5.068241,-0.015751,-0.044120,-0.066861,-2.387723,1.747153,12.851223,0.846581,-1.045235,1,0,,38.990385,-76.939832,-6.332000,,,
2026-09-11T19:04:53.532,12.165699,1.921621,9.191932,17.792787,0.000000,5.233614,-1.800555,1.920672,-0.028326,-0.059634,1.208998,6.194047,5.128699,-0.034464,-0.009972,-0.058151,-1.228675,0.464737,8.683102,0.778419,-1.004987,1,0,,38.990385,-76.939832,-6.332000,,,
2026-09-11T19:04:53.566,12.199119,1.853926,9.254001,17.165984,0.000000,5.800784,-1.995682,1.852802,-0.033478,-0.070481,1.206824,6.217394,5.187282,-0.011729,0.027295,-0.068997,-0.963503,-0.334701,6.828469,0.734682,-1.015877,1,0,,38.990385,-76.939832,-6.332000,,,
2026-09-11T19:04:53.600,12.232533,1.824667,9.315022,16.895066,0.000000,12.834093,-4.415399,1.819252,-0.076088,-0.160186,1.202970,6.241052,5.243913,-0.090573,0.018635,-0.158703,-0.858670,-1.263979,8.143736,0.709173,-1.076356,1,0,,38.990385,-76.939832,-6.332000,,,
2026-09-11T19:04:53.633,12.265949,1.795544,9.374561,16.625410,0.000000,22.939455,-7.892014,1.778538,-0.109782,-0.231121,1.196432,6.265742,5.298805,-0.152232,0.044911,-0.229637,-1.240149,-0.918099,10.484388,0.663111,-1.106052,1,0,,38.990385,-76.939832,-6.332000,,,
2026-09-11T19:04:53.666,12.299368,1.766998,9.433611,16.361090,0.000000,29.928136,-10.296377,1.738543,-0.149526,-0.314791,1.187310,6.291503,5.351801,-0.164589,-0.002910,-0.313307,-1.180034,-1.234265,10.186658,0.621018,-1.147065,1,0,,38.990385,-76.939832,-6.332000,,,
2026-09-11T19:04:53.700,12.332782,1.738109,9.491920,16.093599,0.000000,31.638570,-10.884829,1.706838,-0.165518,-0.348460,1.176229,6.318202,5.403064,-0.176364,-0.092758,-0.346976,0.587418,-3.953453,7.581325,0.694495,-1.360460,1,0,,38.990385,-76.939832,-6.332000,,,
2026-09-11T19:04:53.733,12.366199,1.738534,9.550560,16.097540,0.000000,29.994054,-10.319055,1.710414,-0.146218,-0.307828,1.165264,6.345238,5.453625,-0.058851,-0.095260,-0.306344,-0.278607,-0.230849,7.266237,0.707976,-1.335075,1,0,,38.990385,-76.939832,-6.332000,,,
2026-09-11T19:04:53.767,12.399617,1.699948,9.607263,15.740260,0.000000,21.935582,-7.546645,1.685224,-0.103615,-0.218137,1.156475,6.371678,5.504001,0.027767,-0.022618,-0.216653,-0.242715,0.202998,8.593764,0.717942,-1.292183,1,0,,38.990385,-76.939832,-6.332000,,,
2026-09-11T19:04:53.800,12.433032,1.700299,9.663624,15.743506,0.000000,12.069173,-4.152238,1.695836,-0.060542,-0.127456,1.150701,6.397076,5.554535,0.109689,0.011793,-0.125972,0.858768,0.489254,12.178290,0.790772,-1.241049,1,0,,38.990385,-76.939832,-6.332000,,,
2026-09-11T19:04:53.833,12.466447,1.671992,9.719016,15.481405,0.000000,3.003392,-1.033277,1.671720,-0.027649,-0.058209,1.147599,6.421447,5.605269,0.176087,0.035756,-0.056726,0.124839,1.994084,8.523548,0.808003,-1.100815,1,0,,38.990385,-76.939832,-6.332000,,,
2026-09-11T19:04:53.867,12.499860,1.624016,9.773407,15.037181,0.000000,-3.683848,1.267379,1.623618,-0.036650,-0.077157,1.145338,6.445091,5.654998,0.220024,0.021895,-0.075674,1.346257,1.995751,9.301804,0.895605,-0.960229,1,0,,38.990385,-76.939832,-6.332000,,,
2026-09-11T19:04:53.900,12.533277,1.673353,9.829688,15.494011,0.000000,-8.151851,2.804536,1.671349,0.069027,0.145320,1.146477,6.467292,5.705380,0.083012,0.038318,0.146804,1.409019,-4.877436,9.339952,0.975740,-1.289685,1,0,,38.990385,-76.939832,-6.332000,,,
2026-09-11T19:04:53.933,12.566695,1.654294,9.885183,15.317533,0.000000,-9.433818,3.245579,1.651640,0.030962,0.065182,1.149994,6.488539,5.756705,0.089607,0.127235,0.066666,-1.098639,2.928266,7.072360,0.884869,-1.101721,1,0,,38.990385,-76.939832,-6.332000,,,
2026-09-11T19:04:53.967,12.600110,1.644989,9.940029,15.231379,0.000000,-9.470210,3.258100,1.642330,0.077913,0.164028,1.153823,6.509262,5.807720,-0.010490,-0.153624,0.165511,-1.446481,6.035797,10.577355,0.771151,-0.725285,1,0,,38.990385,-76.939832,-6.332000,,,
2026-09-11T19:04:54.000,12.633527,1.654894,9.994920,15.323090,0.000000,-9.375453,3.225500,1.652272,0.042954,0.090430,1.158075,6.529601,5.858914,0.014121,-0.095268,0.091913,3.705443,-4.122422,17.402293,0.992938,-1.002442,1,0,,38.990385,-76.939832,-6.332000,,,
2026-09-11T19:04:54.034,12.666944,1.655173,10.050233,15.325673,0.000000,-8.396983,2.888870,1.653069,0.030964,0.065188,1.160675,6.550555,5.910025,-0.009824,0.036687,0.066671,1.724107,0.780413,8.002619,1.084621,-0.956635,1,0,,38.990385,-76.939832,-6.332000,,,
2026-09-11T19:04:54.068,12.700356,1.665212,10.105762,15.418631,0.000000,-3.600764,1.238795,1.664823,-0.001474,-0.003103,1.161712,6.572177,5.961066,-0.075691,0.126707,-0.001620,-0.558293,0.534659,2.646226,1.028685,-0.919934,1,0,,38.990385,-76.939832,-6.332000,,,
2026-09-11T19:04:54.101,12.733771,1.665703,10.161884,15.423172,0.000000,5.497976,-1.891505,1.664795,-0.018635,-0.039232,1.161005,6.594631,6.011964,-0.178476,-0.037375,-0.037749,-3.180689,-0.979292,-5.025124,0.804103,-0.977687,1,0,,38.990385,-76.939832,-6.332000,,,
2026-09-11T19:04:54.134,12.767189,1.724193,10.219328,15.964754,0.000000,8.825460,-3.036282,1.721773,-0.069324,-0.145946,1.157911,6.618604,6.063240,-0.234410,-0.106146,-0.144462,2.019189,-3.847541,17.800051,0.927251,-1.208344,1,0,,38.990385,-76.939832,-6.332000,,,
2026-09-11T19:04:54.168,12.800610,1.753464,10.277944,16.235782,0.000000,13.349080,-4.592573,1.747835,-0.091892,-0.193458,1.152239,6.644484,6.115191,-0.180804,-0.006817,-0.191974,1.462760,-2.774105,8.881589,1.021825,-1.361401,1,1,12.802838,38.990401,-76.939826,-6.297000,5.469356,7.114437,3.289905
2026-09-11T19:04:54.201,12.834026,1.782811,10.337712,16.507506,0.000000,18.823705,-6.476045,1.771435,-0.106480,-0.224169,1.145262,6.671595,6.167473,-0.049873,0.059825,-0.222686,0.707452,-0.049033,11.883404,1.067614,-1.332617,1,0,,38.990401,-76.939826,-6.297000,,,
2026-09-11T19:04:54.234,12.867443,1.754161,10.395953,16.242233,0.000000,20.614476,-7.092136,1.740740,-0.135798,-0.285890,1.136739,6.699724,6.219130,-0.046918,0.109702,-0.284406,-0.058742,1.935931,9.859312,1.068671,-1.169220,1,0,,38.990401,-76.939826,-6.297000,,,
2026-09-11T19:04:54.268,12.900854,1.755024,10.454273,16.250221,0.000000,24.207006,-8.328098,1.736517,-0.150656,-0.317171,1.126665,6.728749,6.269674,-0.030391,0.079304,-0.315687,-0.400307,-0.980861,8.130301,1.052814,-1.192906,1,0,,38.990401,-76.939826,-6.297000,,,
2026-09-11T19:04:54.301,12.934275,1.745638,10.512822,16.163315,0.000000,30.019460,-10.327796,1.717356,-0.160629,-0.338167,1.115714,6.758515,6.319391,-0.038026,0.026714,-0.336684,0.191328,-1.940442,7.614962,1.077418,-1.276486,1,0,,38.990401,-76.939826,-6.297000,,,
2026-09-11T19:04:54.335,12.967686,1.736513,10.570334,16.078827,0.000000,31.252675,-10.752067,1.706027,-0.159195,-0.335148,1.104466,6.788725,6.368242,0.014992,0.026996,-0.333664,-1.133453,-0.627528,8.992404,1.021144,-1.274769,1,0,,38.990401,-76.939826,-6.297000,,,
2026-09-11T19:04:54.369,13.001123,1.669299,10.626604,15.456474,0.000000,32.049184,-11.026095,1.638484,-0.169723,-0.357312,1.092889,6.819044,6.415541,-0.046867,-0.017141,-0.355828,-1.002436,0.387755,8.691928,0.982618,-1.206458,1,0,,38.990401,-76.939826,-6.297000,,,
2026-09-11T19:04:54.402,13.034670,1.601508,10.681381,14.828776,0.000000,33.086019,-11.382805,1.570007,-0.172335,-0.362811,1.080810,6.849156,6.460512,0.005304,0.016907,-0.361327,-1.181603,0.126408,9.881671,0.942113,-1.156685,1,0,,38.990401,-76.939826,-6.297000,,,
2026-09-11T19:04:54.435,13.068114,1.562376,10.732570,14.466441,0.000000,33.706746,-11.596358,1.530484,-0.166048,-0.349575,1.068897,6.878801,6.503421,-0.020088,0.047073,-0.348091,-0.610758,-0.808068,9.813221,0.942813,-1.170365,1,0,,38.990401,-76.939826,-6.297000,,,
2026-09-11T19:04:54.469,13.101528,1.552631,10.784305,14.376215,0.000000,32.540822,-11.195237,1.523087,-0.168545,-0.354831,1.057129,6.908491,6.545281,0.043639,0.063463,-0.353347,-2.139321,0.755112,10.155571,0.840781,-1.082404,1,0,,38.990401,-76.939826,-6.297000,,,
2026-09-11T19:04:54.502,13.134948,1.475469,10.833671,13.661749,0.000000,32.100682,-11.043813,1.448145,-0.115424,-0.242997,1.047139,6.937220,6.586054,0.154566,0.052056,-0.241514,-0.032166,-5.440730,7.893177,0.871701,-1.408497,1,0,,38.990401,-76.939826,-6.297000,,,
2026-09-11T19:04:54.535,13.168365,1.475777,10.882581,13.664604,0.000000,29.135060,-10.023530,1.453252,-0.119869,-0.252355,1.038863,6.965032,6.625955,0.085754,0.026251,-0.250872,-0.327836,-3.656606,10.444671,0.881303,-1.614574,1,0,,38.990401,-76.939826,-6.297000,,,
2026-09-11T19:04:54.569,13.201787,1.447347,10.930637,13.401360,0.000000,25.982671,-8.938992,1.429768,-0.106919,-0.225093,1.030884,6.992890,6.665444,0.062569,-0.023959,-0.223610,0.052564,2.191100,11.450539,0.913329,-1.442890,1,0,,38.990401,-76.939826,-6.297000,,,
2026-09-11T19:04:54.602,13.235206,1.399121,10.976789,12.954825,0.000000,23.298574,-8.015564,1.385452,-0.068303,-0.143796,1.024720,7.019702,6.704209,0.065459,0.051512,-0.142313,-0.264485,-8.014387,15.536087,0.918016,-1.941442,1,0,,38.990401,-76.939826,-6.297000,,,
2026-09-11T19:04:54.635,13.268621,1.360711,11.021803,12.599176,0.000000,20.232701,-6.960792,1.350682,-0.085429,-0.179851,1.019313,7.045738,6.741871,0.041293,0.026123,-0.178368,0.518772,2.581895,7.096190,0.963204,-1.745974,1,0,,38.990401,-76.939826,-6.297000,,,
2026-09-11T19:04:54.669,13.302035,1.332045,11.067227,12.333754,0.000000,18.163152,-6.248791,1.324131,-0.065955,-0.138852,1.013988,7.071404,6.778541,0.014881,0.148242,-0.137369,-0.059036,-0.417273,14.002818,0.964189,-1.750551,1,0,,38.990401,-76.939826,-6.297000,,,
2026-09-11T19:04:54.703,13.335457,1.351849,11.111990,12.517119,0.000000,16.655965,-5.730263,1.345094,-0.059279,-0.124797,1.009582,7.096835,6.815247,-0.008397,-0.010728,-0.123314,1.961918,2.057827,9.421347,1.094974,-1.595937,1,0,,38.990401,-76.939826,-6.297000,,,
2026-09-11T19:04:54.736,13.368882,1.381654,11.157926,12.793089,0.000000,14.481359,-4.982119,1.376434,-0.052292,-0.110088,1.005657,7.122695,6.852710,-0.022658,-0.008911,-0.108605,-0.442280,1.147868,10.067703,1.065009,-1.502979,1,0,,38.990401,-76.939826,-6.297000,,,
2026-09-11T19:04:54.769,13.402301,1.382453,11.203578,12.800488,0.000000,9.198308,-3.164556,1.380345,-0.043263,-0.091079,1.002295,7.148777,6.890714,-0.060320,-0.029028,-0.089595,1.835217,2.241016,9.901480,1.180096,-1.342003,1,0,,38.990401,-76.939826,-6.297000,,,
2026-09-11T19:04:54.802,13.435719,1.382898,11.249628,12.804609,0.000000,7.393117,-2.543504,1.381535,-0.028028,-0.059005,0.999788,7.174673,6.928929,-0.069790,0.059335,-0.057522,-0.036775,2.077441,13.479143,1.171782,-1.196268,1,0,,38.990401,-76.939826,-6.297000,,,
2026-09-11T19:04:54.836,13.469138,1.383258,11.295736,12.807944,0.000000,6.435933,-2.214197,1.382225,-0.014607,-0.030751,0.998288,7.200262,6.967380,-0.049136,0.047123,-0.029268,0.289394,-0.200840,6.841806,1.178756,-1.202077,1,0,,38.990401,-76.939826,-6.297000,,,
2026-09-11T19:04:54.870,13.502571,1.403146,11.342675,12.992096,0.000000,3.572622,-1.229113,1.402823,-0.007492,-0.015773,0.997510,7.225809,7.006302,-0.076557,-0.002061,-0.014290,0.714022,0.593106,9.130972,1.206585,-1.157752,1,0,,38.990401,-76.939826,-6.297000,,,
2026-09-11T19:04:54.903,13.535989,1.403230,11.389454,12.992866,0.000000,0.422979,-0.145520,1.403225,0.006663,0.014027,0.997481,7.251252,7.045685,-0.070738,-0.010113,0.015511,0.260170,1.575046,8.921404,1.198292,-1.053108,1,0,,38.990401,-76.939826,-6.297000,,,
2026-09-11T19:04:54.936,13.569411,1.393147,11.436063,12.899510,0.000000,-4.702143,1.617710,1.392592,0.020816,0.043822,0.998448,7.276189,7.085196,-0.072082,0.026149,0.045306,-0.768057,1.309090,9.159804,1.121271,-0.969501,1,0,,38.990401,-76.939826,-6.297000,,,
2026-09-11T19:04:54.970,13.602830,1.373700,11.482034,12.719443,0.000000,-8.953852,3.080454,1.371715,0.045200,0.095157,1.000770,7.300234,7.124651,-0.042130,0.007335,0.096641,0.429335,0.914568,9.619637,1.124684,-0.916848,1,0,,38.990401,-76.939826,-6.297000,,,
2026-09-11T19:04:55.003,13.636256,1.374240,11.527571,12.724441,0.000000,-16.740413,5.759316,1.367303,0.067673,0.142470,1.004741,7.323270,7.164252,0.029401,0.010728,0.143953,0.995865,-0.111600,9.596886,1.166927,-0.935335,1,0,,38.990401,-76.939826,-6.297000,,,
2026-09-11T19:04:55.037,13.669671,1.355338,11.571879,12.549429,0.000000,-21.906739,7.536722,1.343630,0.123487,0.259972,1.011465,7.344730,7.204262,0.151628,-0.041799,0.261455,2.206496,4.417700,8.605728,1.287765,-0.670596,1,0,,38.990401,-76.939826,-6.297000,,,
2026-09-11T19:04:55.070,13.703089,1.384406,11.618784,12.818571,0.000000,-28.736802,9.886514,1.363847,0.111871,0.235517,1.019744,7.365234,7.244781,0.086179,-0.001903,0.237001,0.757073,2.992695,9.304844,1.311880,-0.499136,1,0,,38.990401,-76.939826,-6.297000,,,
2026-09-11T19:04:55.103,13.736506,1.394332,11.665438,12.910481,0.000000,-32.755051,11.268940,1.367450,0.127754,0.268956,1.028173,7.385543,7.285842,0.082355,0.023073,0.270439,0.523577,1.363222,10.772115,1.319421,-0.438021,1,0,,38.990401,-76.939826,-6.297000,,,
2026-09-11T19:04:55.137,13.769925,1.413872,11.712206,13.091412,0.000000,-32.893067,11.316422,1.386385,0.140593,0.295984,1.037613,7.405265,7.327656,0.083989,-0.029011,0.297468,0.700783,2.197866,9.818908,1.337007,-0.326328,1,0,,38.990401,-76.939826,-6.297000,,,
2026-09-11T19:04:55.170,13.803340,1.433595,11.760284,13.274026,0.000000,-32.893067,11.316422,1.405724,0.143106,0.301275,1.047592,7.424680,7.370337,0.039160,-0.020885,0.302759,1.277120,0.049229,8.551301,1.389346,-0.355743,1,0,,38.990401,-76.939826,-6.297000,,,
2026-09-11T19:04:55.204,13.836754,1.443915,11.808397,13.369583,0.000000,-32.893067,11.316422,1.415843,0.139339,0.293346,1.057526,7.443930,7.413624,0.069542,-0.035022,0.294829,0.551428,0.315186,9.563151,1.392538,-0.367097,1,1,13.828055,38.990413,-76.939819,-6.290000,6.093356,8.505671,3.064642
2026-09-11T19:04:55.237,13.870171,1.454156,11.856384,13.464405,0.000000,-32.893067,11.316422,1.425885,0.137264,0.288977,1.067256,7.463005,7.457350,0.086353,-0.067144,0.290461,0.056682,0.546427,6.276354,1.358594,-0.363152,1,0,,38.990413,-76.939819,-6.290000,,,
2026-09-11T19:04:55.271,13.903586,1.445080,11.904633,13.380369,0.000000,-32.792817,11.281932,1.417156,0.126817,0.266984,1.076545,7.481858,7.501171,0.013713,-0.048199,0.268468,0.589674,1.572398,10.133604,1.350001,-0.290695,1,0,,38.990413,-76.939819,-6.290000,,,
2026-09-11T19:04:55.304,13.937000,1.445440,11.952678,13.383704,0.000000,-31.464158,10.824825,1.419720,0.118334,0.249125,1.085167,7.500548,7.544919,-0.028099,-0.028209,0.250608,0.491117,-1.628100,9.745555,1.327953,-0.424499,1,0,,38.990413,-76.939819,-6.290000,,,
2026-09-11T19:04:55.337,13.970414,1.465344,12.001280,13.568002,0.000000,-28.729935,9.884152,1.443594,0.109883,0.231333,1.093194,7.519326,7.589082,-0.079988,-0.030793,0.232817,0.947911,-0.279097,11.349628,1.329708,-0.468271,1,0,,38.990413,-76.939819,-6.290000,,,
2026-09-11T19:04:55.370,14.003824,1.475247,12.050065,13.659695,0.000000,-24.370423,8.384320,1.459480,0.096051,0.202214,1.100437,7.538400,7.633803,-0.044946,0.004025,0.203697,0.493373,0.020202,10.345231,1.297213,-0.489683,1,0,,38.990413,-76.939819,-6.290000,,,
2026-09-11T19:04:55.404,14.037242,1.494809,12.099636,13.840826,0.000000,-18.717270,6.439428,1.485378,0.072141,0.151876,1.106353,7.558061,7.678999,-0.116181,-0.072108,0.153360,2.251313,-1.376363,18.129456,1.376994,-0.596720,1,0,,38.990413,-76.939819,-6.290000,,,
2026-09-11T19:04:55.438,14.070662,1.494643,12.149195,13.839290,0.000000,-18.233185,6.272885,1.485695,0.063005,0.132641,1.111107,7.578171,7.724445,-0.140409,-0.030198,0.134125,2.237780,-1.053921,18.789934,1.453822,-0.679866,1,0,,38.990413,-76.939819,-6.290000,,,
2026-09-11T19:04:55.471,14.104077,1.485081,12.199130,13.750748,0.000000,-15.545655,5.348276,1.478615,0.038218,0.080458,1.114668,7.598549,7.769617,-0.167942,0.110096,0.081941,2.214832,1.302519,8.022232,1.525569,-0.604583,1,0,,38.990413,-76.939819,-6.290000,,,
2026-09-11T19:04:55.504,14.137498,1.543854,12.250649,14.294946,0.000000,-13.141022,4.520994,1.539051,0.045132,0.095015,1.117600,7.619442,7.815533,-0.148844,0.006846,0.096499,2.473826,-0.207116,10.823502,1.610505,-0.629565,1,0,,38.990413,-76.939819,-6.290000,,,
2026-09-11T19:04:55.538,14.170913,1.602250,12.303798,14.835648,0.000000,-12.104874,4.164521,1.598019,0.043514,0.091609,1.120718,7.640983,7.863337,-0.060499,0.032627,0.093093,2.801956,-0.874851,9.926585,1.718334,-0.697474,1,0,,38.990413,-76.939819,-6.290000,,,
2026-09-11T19:04:55.571,14.204325,1.650943,12.359293,15.286506,0.000000,-11.975098,4.119873,1.646676,0.036489,0.076820,1.123532,7.663290,7.912759,0.025280,0.030150,0.078303,2.265728,-0.539170,9.869217,1.796338,-0.741624,1,0,,38.990413,-76.939819,-6.290000,,,
2026-09-11T19:04:55.604,14.237743,1.719291,12.416873,15.919357,0.000000,-12.036896,4.141134,1.714802,0.048885,0.102915,1.126535,7.686218,7.964054,0.097461,0.002375,0.104399,1.630061,-0.135822,8.764694,1.839318,-0.762431,1,0,,38.990413,-76.939819,-6.290000,,,
2026-09-11T19:04:55.638,14.271167,1.748888,12.475319,16.193409,0.000000,-12.618485,4.341222,1.743871,0.063168,0.132986,1.130477,7.709264,8.017093,0.129252,0.061823,0.134469,1.667032,-0.938693,6.580262,1.892036,-0.838549,1,0,,38.990413,-76.939819,-6.290000,,,
2026-09-11T19:04:55.671,14.304582,1.788300,12.535599,16.558329,0.000000,-13.944397,4.797384,1.782035,0.067350,0.141789,1.135068,7.732274,8.071366,0.125633,-0.073170,0.143272,0.306752,-2.588956,9.900990,1.862596,-1.021910,1,0,,38.990413,-76.939819,-6.290000,,,
2026-09-11T19:04:55.705,14.338001,1.798404,12.595503,16.651891,0.000000,-14.206009,4.887388,1.791865,0.060648,0.127679,1.139571,7.755416,8.126459,0.037171,-0.029981,0.129163,1.397448,-0.096596,13.490420,1.907916,-1.040457,1,0,,38.990413,-76.939819,-6.290000,,,
2026-09-11T19:04:55.739,14.371425,1.847410,12.657561,17.105644,0.000000,-9.116592,3.136442,1.844642,0.031480,0.066273,1.142812,7.779328,8.182354,0.003001,0.001413,0.067757,1.212886,-1.096972,10.045736,1.945596,-1.116646,1,0,,38.990413,-76.939819,-6.290000,,,
2026-09-11T19:04:55.772,14.404842,1.837964,12.718844,17.018185,0.000000,-6.608963,2.273726,1.836517,0.015035,0.031652,1.144448,7.804103,8.238655,-0.004171,-0.022444,0.033136,-0.631254,1.705278,10.792807,1.873575,-1.006527,1,0,,38.990413,-76.939819,-6.290000,,,
2026-09-11T19:04:55.805,14.438255,1.799275,12.778600,16.659954,0.000000,-6.104964,2.100332,1.798066,0.025970,0.054674,1.145891,7.828550,8.294241,0.104092,0.002067,0.056157,-0.579769,0.615858,10.035537,1.815737,-0.970713,1,0,,38.990413,-76.939819,-6.290000,,,
2026-09-11T19:04:55.839,14.471671,1.770028,12.837866,16.389147,0.000000,-6.216888,2.138837,1.768795,0.037307,0.078542,1.148116,7.852094,8.348998,0.072227,0.060645,0.080025,0.940654,-5.768272,12.010106,1.862048,-1.350951,1,0,,38.990413,-76.939819,-6.290000,,,
2026-09-11T19:04:55.872,14.505088,1.731477,12.895731,16.032198,0.000000,-7.237243,2.489877,1.729843,0.046077,0.097003,1.151049,7.874724,8.402915,-0.000483,0.031416,0.098487,-1.334195,-0.792868,8.910126,1.763780,-1.406957,1,0,,38.990413,-76.939819,-6.290000,,,
2026-09-11T19:04:55.905,14.538506,1.693024,12.952377,15.676150,0.000000,-10.555800,3.631583,1.689625,0.065921,0.138782,1.154989,7.896196,8.455894,-0.045478,0.008750,0.140265,-0.943792,1.981041,11.269998,1.695752,-1.287182,1,0,,38.990413,-76.939819,-6.290000,,,
2026-09-11T19:04:55.939,14.571924,1.664288,13.007610,15.410073,0.000000,-17.378312,5.978777,1.655235,0.085897,0.180835,1.160330,7.916313,8.508099,-0.073162,-0.000171,0.182318,2.069105,2.447936,10.547739,1.827391,-1.142720,1,0,,38.990413,-76.939819,-6.290000,,,
2026-09-11T19:04:55.972,14.605336,1.635415,13.062239,15.142727,0.000000,-19.798737,6.811492,1.623871,0.110562,0.232763,1.167239,7.934986,8.559701,-0.030144,-0.016274,0.234247,0.551428,-0.316264,11.148690,1.864557,-1.183788,1,0,,38.990413,-76.939819,-6.290000,,,
2026-09-11T19:04:56.005,14.638774,1.645628,13.117632,15.237295,0.000000,-19.640809,6.757159,1.634197,0.101107,0.212856,1.174690,7.952929,8.611254,-0.033184,-0.010629,0.214340,-0.600167,1.336744,5.916842,1.830205,-1.115469,1,0,,38.990413,-76.939819,-6.290000,,,
2026-09-11T19:04:56.039,14.672191,1.597612,13.170974,14.792706,0.000000,-19.753418,6.795901,1.586387,0.103131,0.217118,1.181874,7.970362,8.662278,-0.078996,0.011610,0.218601,-0.402367,0.984097,10.004352,1.806051,-1.070542,1,0,,38.990413,-76.939819,-6.290000,,,
2026-09-11T19:04:56.073,14.705622,1.598172,13.224464,14.797890,0.000000,-20.285569,6.978980,1.586331,0.108725,0.228896,1.189329,7.987007,8.712755,-0.054040,-0.012140,0.230379,1.586030,-1.025187,10.249126,1.906536,-1.157354,1,0,,38.990413,-76.939819,-6.290000,,,
2026-09-11T19:04:56.106,14.739039,1.637764,13.279389,15.164478,0.000000,-21.159668,7.279702,1.624562,0.113266,0.238454,1.197138,8.003335,8.763993,-0.026084,-0.010544,0.239938,0.964484,0.882500,11.344137,1.961773,-1.121317,1,0,,38.990413,-76.939819,-6.290000,,,
2026-09-11T19:04:56.139,14.772452,1.647949,13.334144,15.258792,0.000000,-21.897126,7.533415,1.633725,0.114248,0.240523,1.205140,8.019457,8.816124,0.022723,-0.062645,0.242006,1.156106,0.542014,11.070041,2.023577,-1.108069,1,0,,38.990413,-76.939819,-6.290000,,,
2026-09-11T19:04:56.173,14.805873,1.648233,13.389503,15.261414,0.000000,-23.532715,8.096118,1.631805,0.127094,0.267566,1.213630,8.034979,8.868591,0.032521,-0.024370,0.269049,1.929949,-0.063645,13.667626,2.127875,-1.136978,1,1,14.804656,38.990428,-76.939814,-6.168000,6.511948,10.096129,3.238506
2026-09-11T19:04:56.206,14.839289,1.639147,13.444166,15.177290,0.000000,-23.972168,8.247306,1.622196,0.122881,0.258697,1.222423,8.049845,8.921055,0.075370,0.063948,0.260181,1.084812,1.193175,9.619833,2.170564,-1.083155,1,0,,38.990428,-76.939814,-6.168000,,,
2026-09-11T19:04:56.239,14.872714,1.629433,13.498624,15.087338,0.000000,-23.727723,8.163207,1.612922,0.113199,0.238313,1.230729,8.064377,8.973281,0.058860,-0.004999,0.239797,0.638805,2.961314,13.215834,2.179153,-0.913212,1,0,,38.990428,-76.939814,-6.168000,,,
2026-09-11T19:04:56.273,14.906130,1.629530,13.552821,15.088236,0.000000,-23.664551,8.141474,1.613106,0.131318,0.276459,1.239330,8.078279,9.025516,0.109838,-0.008122,0.277943,2.058122,0.410310,9.789685,2.272345,-0.914218,1,0,,38.990428,-76.939814,-6.168000,,,
2026-09-11T19:04:56.306,14.939543,1.629589,13.607165,15.088787,0.000000,-23.752442,8.171712,1.613043,0.121416,0.255613,1.248219,8.091594,9.077914,0.063983,-0.009035,0.257096,-0.000392,0.302241,10.222158,2.220754,-0.920027,1,0,,38.990428,-76.939814,-6.168000,,,
2026-09-11T19:04:56.340,14.972959,1.630145,13.661704,15.093935,0.000000,-23.696824,8.152577,1.613671,0.124486,0.262075,1.256869,8.104561,9.130403,0.041570,-0.047160,0.263559,1.106680,-0.043345,9.283956,2.233380,-0.948815,1,0,,38.990428,-76.939814,-6.168000,,,
2026-09-11T19:04:56.373,15.006376,1.620889,13.715604,15.008233,0.000000,-23.641892,8.133678,1.604584,0.112990,0.237874,1.265222,8.117173,9.182825,0.043225,0.017805,0.239358,0.219375,0.378733,10.517828,2.183050,-0.947312,1,0,,38.990428,-76.939814,-6.168000,,,
2026-09-11T19:04:56.406,15.039794,1.631071,13.770370,15.102509,0.000000,-23.117981,7.953434,1.615381,0.110412,0.232447,1.273081,8.129592,9.235307,0.051061,-0.014338,0.233930,0.579769,1.262214,11.718653,2.150110,-0.888264,1,0,,38.990428,-76.939814,-6.168000,,,
2026-09-11T19:04:56.440,15.073206,1.650708,13.825341,15.284337,0.000000,-21.000367,7.224897,1.637602,0.100681,0.211960,1.280505,8.141964,9.288343,-0.017609,-0.064808,0.213443,2.404689,-0.477584,9.322692,2.230513,-0.940588,1,0,,38.990428,-76.939814,-6.168000,,,
2026-09-11T19:04:56.473,15.106631,1.650942,13.880585,15.286503,0.000000,-20.736008,7.133948,1.638162,0.090500,0.190526,1.287232,8.154393,9.341755,-0.047246,0.051067,0.192009,0.198781,1.643693,10.440062,2.162751,-0.852815,1,0,,38.990428,-76.939814,-6.168000,,,
2026-09-11T19:04:56.508,15.140057,1.700003,13.937641,15.740768,0.000000,-18.049164,6.209575,1.690029,0.077710,0.163599,1.293150,8.167094,9.395983,-0.075437,0.114423,0.165082,1.016753,-0.426099,3.338870,2.145580,-0.897652,1,0,,38.990428,-76.939814,-6.168000,,,
