timestamp,time_s,speed_mps,distance_m,wheel_omega_rad_s,motor_current_A,steer_motor_deg,steer_column_deg,vx_mps,vy_mps,yaw_rate_rad_s,heading_rad,x_m,y_m,gyro_x_rad_s,gyro_y_rad_s,gyro_z_rad_s,accel_x_mps2,accel_y_mps2,accel_z_mps2,grade_deg,bank_deg,moving,gps_new_fix,gps_time_s,gps_latitude_deg,gps_longitude_deg,gps_altitude_m,gps_east_m,gps_north_m,gps_sigma_m
2026-09-11T19:04:27.706,0.000008,0.301380,0.001470,2.790555,0.000000,-9.029109,3.106345,0.300937,0.000567,0.001194,0.000000,0.000000,0.000000,0.035217,-0.001042,0.002678,0.326071,0.147688,9.743888,3.108555,0.238329,0,1,-0.488518,38.990378,-76.939808,-9.383000,0.000000,0.000000,3.421588
2026-09-11T19:04:27.739,0.033429,0.066089,0.002381,0.611939,0.000000,-9.029109,3.106345,0.065992,0.001320,0.002779,0.000066,0.006132,0.000032,0.035013,0.001662,0.004262,0.170930,0.187895,9.731825,3.098468,0.240942,0,0,,38.990378,-76.939808,-9.383000,,,
2026-09-11T19:04:27.774,0.066857,0.007267,0.002279,0.067285,0.000000,-9.029109,3.106345,0.007256,-0.000757,-0.001594,0.000086,0.007356,0.000041,0.023138,-0.000286,-0.000110,0.096497,0.184757,9.726432,3.083653,0.243336,0,0,,38.990378,-76.939808,-9.383000,,,
2026-09-11T19:04:27.807,0.100277,-0.000000,0.002267,-0.000000,0.000000,-9.029109,3.106345,-0.000000,0.000089,0.000188,0.000063,0.007477,0.000030,0.018057,0.002145,0.001671,0.068156,0.164850,9.692207,3.067169,0.244415,0,0,,38.990378,-76.939808,-9.383000,,,
2026-09-11T19:04:27.841,0.133696,-0.000000,0.002267,-0.000000,0.000000,-9.029109,3.106345,-0.000000,0.001379,0.002903,0.000114,0.007477,0.000054,0.006694,0.001829,0.004386,0.147198,0.185934,9.710251,3.056009,0.246845,0,0,,38.990378,-76.939808,-9.383000,,,
2026-09-11T19:04:27.874,0.167110,-0.000000,0.002267,-0.000000,0.000000,-9.040096,3.110125,-0.000000,0.000096,0.000202,0.000166,0.007477,0.000079,-0.007330,0.000106,0.001685,0.280862,0.127192,9.710545,3.053659,0.245448,0,0,,38.990378,-76.939808,-9.383000,,,
2026-09-11T19:04:27.907,0.200528,-0.000000,0.002267,-0.000000,0.000000,-9.117000,3.136583,-0.000000,-0.000609,-0.001283,0.000148,0.007477,0.000071,-0.004146,0.001749,0.000201,0.415900,0.169557,9.716919,3.060105,0.246808,0,0,,38.990378,-76.939808,-9.383000,,,
2026-09-11T19:04:27.942,0.233952,-0.000000,0.002267,-0.000000,0.000000,-9.383418,3.228240,-0.000000,0.000152,0.000319,0.000132,0.007477,0.000063,0.007998,-0.000656,0.001803,0.533678,0.155141,9.733100,3.074134,0.247219,0,0,,38.990378,-76.939808,-9.383000,,,
2026-09-11T19:04:27.974,0.267374,-0.000000,0.002267,-0.000000,0.000000,-9.683482,3.331473,-0.000000,0.000067,0.000141,0.000140,0.007477,0.000067,0.011731,0.001255,0.001624,0.685681,0.136901,9.668867,3.082656,0.246446,0,0,,38.990378,-76.939808,-9.383000,,,
2026-09-11T19:04:28.008,0.300790,-0.000000,0.002267,-0.000000,0.000000,-9.938915,3.419351,-0.000000,-0.001024,-0.002156,0.000106,0.007477,0.000051,0.006985,0.002319,-0.000672,0.785513,0.275371,9.693481,3.077905,0.254641,0,0,,38.990378,-76.939808,-9.383000,,,
2026-09-11T19:04:28.041,0.334209,-0.000000,0.002267,-0.000000,0.000000,-9.995906,3.438959,-0.000000,-0.000139,-0.000293,0.000065,0.007477,0.000031,-0.014824,-0.002852,0.001190,0.858866,0.152690,9.677791,3.073060,0.254807,0,0,,38.990378,-76.939808,-9.383000,,,
2026-09-11T19:04:28.075,0.367627,-0.000000,0.002267,-0.000000,0.000000,-9.995906,3.438959,-0.000000,0.000437,0.000919,0.000076,0.007477,0.000036,-0.021685,-0.001439,0.002403,0.720004,0.164948,9.712016,3.058776,0.255764,0,0,,38.990378,-76.939808,-9.383000,,,
2026-09-11T19:04:28.108,0.401057,-0.000000,0.002267,-0.000000,0.000000,-9.995906,3.438959,-0.000000,-0.000818,-0.001721,0.000062,0.007477,0.000030,-0.015616,-0.000077,-0.000238,0.619584,0.134253,9.719665,3.018271,0.254725,0,0,,38.990378,-76.939808,-9.383000,,,
2026-09-11T19:04:28.142,0.434476,-0.000000,0.002267,-0.000000,0.000000,-9.995906,3.438959,-0.000000,0.000215,0.000452,0.000041,0.007477,0.000020,-0.011645,-0.002543,0.001935,0.648612,0.191818,9.686421,2.974687,0.257422,0,0,,38.990378,-76.939808,-9.383000,,,
2026-09-11T19:04:28.175,0.467892,-0.000000,0.002267,-0.000000,0.000000,-9.995906,3.438959,-0.000000,-0.000164,-0.000346,0.000043,0.007477,0.000020,-0.005753,-0.000133,0.001138,0.719710,0.147002,9.699267,2.950618,0.257189,0,0,,38.990378,-76.939808,-9.383000,,,
2026-09-11T19:04:28.209,0.501305,-0.000000,0.002267,-0.000000,0.000000,-9.995906,3.438959,-0.000000,0.000151,0.000317,0.000042,0.007477,0.000020,-0.011203,-0.001277,0.001801,0.768547,0.170636,9.696620,2.918642,0.258488,0,1,0.499846,38.990379,-76.939808,-9.419000,-0.028809,0.032247,3.633368
2026-09-11T19:04:28.242,0.534720,-0.000000,0.002267,-0.000000,0.000000,-9.995906,3.438959,-0.000000,0.001770,0.003727,0.000110,0.007477,0.000052,-0.025389,-0.001706,0.005211,0.923394,0.177598,9.735748,2.889451,0.260224,0,0,,38.990379,-76.939808,-9.419000,,,
2026-09-11T19:04:28.275,0.568136,0.009804,0.002575,0.090776,0.000000,-10.588481,3.642826,0.009784,0.005034,0.010597,0.000349,0.007641,0.000166,-0.023302,0.000348,0.012081,1.139729,0.270369,9.709957,2.874629,0.267935,0,0,,38.990379,-76.939808,-9.419000,,,
2026-09-11T19:04:28.308,0.601553,0.009804,0.002905,0.090776,0.000000,-11.699474,4.025048,0.009780,0.005933,0.012491,0.000735,0.007967,0.000349,-0.018268,-0.003092,0.013975,1.231127,0.062370,9.598847,2.860258,0.262102,0,0,,38.990379,-76.939808,-9.419000,,,
2026-09-11T19:04:28.342,0.634973,0.009804,0.003236,0.090776,0.000000,-14.296367,4.918475,0.009768,0.008456,0.017801,0.001241,0.008294,0.000590,0.001755,-0.001885,0.019285,1.379992,0.101401,9.721234,2.853180,0.258856,0,0,,38.990379,-76.939808,-9.419000,,,
2026-09-11T19:04:28.375,0.668390,0.317704,0.014629,2.941701,0.000000,-18.031033,6.203337,0.315843,0.009125,0.019210,0.001860,0.013734,0.000894,0.024236,0.002222,0.020694,1.168168,0.222905,9.726922,2.831761,0.263126,0,0,,38.990379,-76.939808,-9.419000,,,
2026-09-11T19:04:28.408,0.701808,0.094172,0.017693,0.871966,0.000000,-18.498639,6.364211,0.093592,0.015923,0.033523,0.002741,0.020574,0.001327,0.039257,0.005499,0.035007,1.438145,0.076492,9.607575,2.826837,0.258064,0,0,,38.990379,-76.939808,-9.419000,,,
2026-09-11T19:04:28.443,0.735228,0.094172,0.020861,0.871966,0.000000,-20.009259,6.883919,0.093493,0.016125,0.033947,0.003868,0.023698,0.001872,0.047511,0.010786,0.035430,1.494926,-0.103460,9.452630,2.820003,0.241412,0,0,,38.990379,-76.939808,-9.419000,,,
2026-09-11T19:04:28.476,0.768646,0.270925,0.031467,2.508563,0.000000,-21.150464,7.276536,0.268743,0.018265,0.038452,0.005078,0.029748,0.002476,0.046624,0.024192,0.039936,1.707240,0.296063,9.633759,2.818850,0.250333,0,0,,38.990379,-76.939808,-9.419000,,,
2026-09-11T19:04:28.509,0.802062,0.213064,0.037961,1.972814,0.000000,-22.138547,7.616472,0.211184,0.018736,0.039445,0.006379,0.037763,0.003139,0.042565,0.032799,0.040928,1.594954,0.601736,9.682106,2.807258,0.279063,0,0,,38.990379,-76.939808,-9.419000,,,
2026-09-11T19:04:28.543,0.835479,0.271411,0.047645,2.513067,0.000000,-22.652157,7.793173,0.268904,0.019662,0.041394,0.007730,0.045780,0.003838,0.030904,0.009708,0.042877,1.682625,-0.378046,11.561256,2.798330,0.243897,0,0,,38.990379,-76.939808,-9.419000,,,
2026-09-11T19:04:28.578,0.868898,0.301186,0.058685,2.788762,0.000000,-22.652157,7.793173,0.298405,0.014434,0.030388,0.008929,0.055255,0.004487,0.063945,-0.013445,0.031872,0.652829,0.852100,10.831053,2.715046,0.288853,0,0,,38.990379,-76.939808,-9.419000,,,
2026-09-11T19:04:28.610,0.902317,0.310905,0.069121,2.878751,0.000000,-22.585553,7.770259,0.308050,0.037563,0.079081,0.010759,0.065379,0.005456,0.093741,0.010826,0.080564,0.347057,-0.478663,8.725761,2.624486,0.246211,1,0,,38.990379,-76.939808,-9.419000,,,
2026-09-11T19:04:28.643,0.935736,0.311433,0.080207,2.883642,0.000000,-22.585553,7.770259,0.308574,0.018877,0.039741,0.012744,0.075671,0.006520,0.093216,0.002714,0.041224,1.206708,-1.054117,9.778505,2.588644,0.167586,1,0,,38.990379,-76.939808,-9.419000,,,
2026-09-11T19:04:28.677,0.969157,0.330882,0.091337,3.063727,0.000000,-22.652157,7.793173,0.327826,0.020316,0.042771,0.014123,0.086295,0.007318,0.066089,-0.012606,0.044254,2.270436,1.423828,9.256889,2.601579,0.250065,1,0,,38.990379,-76.939808,-9.419000,,,
2026-09-11T19:04:28.709,1.002570,0.399509,0.105237,3.699157,0.000000,-22.652157,7.793173,0.395819,0.035669,0.075092,0.016092,0.098369,0.008437,0.023873,0.002371,0.076575,1.660462,-0.358825,10.809772,2.579835,0.215266,1,0,,38.990379,-76.939808,-9.419000,,,
2026-09-11T19:04:28.743,1.035985,0.458326,0.120105,4.243755,0.000000,-22.541608,7.755140,0.454134,0.028863,0.060765,0.018362,0.112549,0.009761,0.003389,-0.011779,0.062249,1.351356,0.780904,10.446436,2.540243,0.254728,1,0,,38.990379,-76.939808,-9.419000,,,
2026-09-11T19:04:28.778,1.069400,0.458407,0.135406,4.244506,0.000000,-22.215451,7.642930,0.454334,0.037758,0.079491,0.020705,0.127703,0.011170,-0.017383,-0.015618,0.080975,2.492752,1.450109,8.481478,2.572005,0.336503,1,0,,38.990379,-76.939808,-9.419000,,,
2026-09-11T19:04:28.811,1.102824,0.517229,0.153099,4.789161,0.000000,-22.012204,7.573006,0.512718,0.032969,0.069408,0.023193,0.143834,0.012708,-0.065366,-0.001537,0.070891,1.873266,1.417944,9.214623,2.566842,0.415346,1,0,,38.990379,-76.939808,-9.419000,,,
2026-09-11T19:04:28.843,1.136242,0.576046,0.172205,5.333760,0.000000,-21.838483,7.513239,0.571101,0.040511,0.085286,0.025778,0.161908,0.014380,-0.049953,-0.000512,0.086769,1.975648,1.383032,9.413011,2.568975,0.490196,1,0,,38.990379,-76.939808,-9.419000,,,
2026-09-11T19:04:28.877,1.169656,0.644512,0.193498,5.967706,0.000000,-21.838483,7.513239,0.638979,0.052066,0.109612,0.029034,0.182074,0.016482,-0.014982,-0.008165,0.111095,2.218755,-0.014024,9.480873,2.586263,0.472434,1,0,,38.990379,-76.939808,-9.419000,,,
2026-09-11T19:04:28.910,1.203073,0.693610,0.216273,6.422317,0.000000,-21.838483,7.513239,0.687655,0.054224,0.114156,0.032773,0.204175,0.018943,-0.014837,-0.031685,0.115640,2.954842,2.123630,8.864427,2.652394,0.592648,1,0,,38.990379,-76.939808,-9.419000,,,
2026-09-11T19:04:28.944,1.236490,0.742469,0.241041,6.874712,0.000000,-21.896161,7.533083,0.736061,0.052889,0.111345,0.036541,0.227887,0.021557,-0.005588,0.002496,0.112828,0.655575,-2.087345,9.077035,2.573360,0.438815,1,0,,38.990379,-76.939808,-9.419000,,,
2026-09-11T19:04:28.977,1.269906,0.791294,0.267313,7.326795,0.000000,-21.992978,7.566391,0.784404,0.061431,0.129329,0.040562,0.253198,0.024447,-0.021687,-0.011067,0.130813,2.032232,0.143864,8.908459,2.590641,0.429805,1,0,,38.990379,-76.939808,-9.419000,,,
2026-09-11T19:04:29.010,1.303323,0.830406,0.294907,7.688947,0.000000,-21.875561,7.525996,0.823253,0.068961,0.145180,0.045149,0.279941,0.027776,-0.087110,-0.016959,0.146664,0.979586,0.907802,11.567140,2.539792,0.469159,1,0,,38.990379,-76.939808,-9.419000,,,
2026-09-11T19:04:29.044,1.336743,0.840503,0.323241,7.782433,0.000000,-20.763882,7.143537,0.833979,0.062541,0.131666,0.049775,0.307498,0.031285,-0.063697,-0.015420,0.133150,1.897783,0.420411,10.276683,2.546485,0.477168,1,0,,38.990379,-76.939808,-9.419000,,,
2026-09-11T19:04:29.077,1.370160,0.860575,0.352020,7.968285,0.000000,-20.344342,6.999200,0.854162,0.051112,0.107605,0.053773,0.335568,0.034642,-0.060372,-0.008115,0.109088,1.974667,3.692204,7.692434,2.556145,0.697969,1,0,,38.990379,-76.939808,-9.419000,,,
2026-09-11T19:04:29.112,1.403583,0.870377,0.381733,8.059044,0.000000,-20.410947,7.022115,0.863848,0.051349,0.108103,0.057378,0.364140,0.037947,0.037459,-0.041393,0.109587,1.359692,2.161680,8.764399,2.524457,0.817216,1,0,,38.990379,-76.939808,-9.419000,,,
2026-09-11T19:04:29.144,1.437005,0.880024,0.410785,8.148373,0.000000,-20.030545,6.891243,0.873667,0.049365,0.103926,0.060921,0.393025,0.041343,0.056875,-0.028701,0.105409,0.973310,0.553487,8.015466,2.469902,0.831214,1,0,,38.990379,-76.939808,-9.419000,,,
2026-09-11T19:04:29.180,1.470431,0.870197,0.439609,8.057381,0.000000,-18.815182,6.473113,0.864649,0.039854,0.083904,0.064060,0.421928,0.044646,0.079333,-0.068062,0.085387,0.969976,1.384503,8.580917,2.418894,0.900039,1,1,1.461299,38.990376,-76.939811,-9.419000,-0.315889,-0.302636,4.715195
2026-09-11T19:04:29.213,1.503849,0.889725,0.468935,8.238198,0.000000,-15.936764,5.482832,0.885655,0.029537,0.062182,0.066501,0.451036,0.047711,0.106639,-0.010421,0.063666,2.020072,1.414315,11.275686,2.442268,0.971145,1,0,,38.990376,-76.939811,-9.419000,,,
2026-09-11T19:04:29.247,1.537265,0.899717,0.499479,8.330713,0.000000,-11.374691,3.913311,0.897619,0.022528,0.047427,0.068332,0.480705,0.050586,0.068690,0.001846,0.048911,0.349019,-3.301017,12.387172,2.365034,0.737104,1,0,,38.990376,-76.939811,-9.419000,,,
2026-09-11T19:04:29.280,1.570684,0.938671,0.530833,8.691398,0.000000,-6.919048,2.380407,0.937861,0.007496,0.015781,0.069389,0.511268,0.053197,0.022330,0.045108,0.017265,1.539840,-0.943890,11.833587,2.375403,0.659998,1,0,,38.990376,-76.939811,-9.419000,,,
2026-09-11T19:04:29.313,1.604101,0.997286,0.564237,9.234126,0.000000,-4.043376,1.391070,0.996992,0.006591,0.013876,0.069884,0.543502,0.055682,0.026139,-0.023942,0.015360,2.884332,0.166419,8.910813,2.479892,0.655667,1,0,,38.990376,-76.939811,-9.419000,,,
2026-09-11T19:04:29.345,1.637517,1.084900,0.599874,10.045374,0.000000,-2.124889,0.731040,1.084812,-0.014494,-0.030514,0.069606,0.578209,0.057974,0.004919,-0.007785,-0.029030,3.627676,0.686760,8.518547,2.639003,0.688093,1,0,,38.990376,-76.939811,-9.419000,,,
2026-09-11T19:04:29.378,1.670942,1.143460,0.638952,10.587593,0.000000,0.327122,-0.112542,1.143458,-0.013633,-0.028702,0.068616,0.615392,0.060076,-0.020882,0.061794,-0.027218,1.152379,-2.185118,10.478602,2.642482,0.534261,1,0,,38.990376,-76.939811,-9.419000,,,
2026-09-11T19:04:29.413,1.704358,1.172994,0.677529,10.861053,0.000000,4.429143,-1.523788,1.172579,-0.033413,-0.070344,0.066962,0.654052,0.061913,0.008202,-0.005443,-0.068860,1.240247,1.373912,10.312771,2.648467,0.615691,1,0,,38.990376,-76.939811,-9.419000,,,
2026-09-11T19:04:29.445,1.737779,1.192441,0.717826,11.041120,0.000000,6.087393,-2.094287,1.191644,-0.025316,-0.053297,0.064896,0.693539,0.063536,-0.041189,0.005519,-0.051813,-0.344311,-1.196804,8.649073,2.550300,0.528630,1,0,,38.990376,-76.939811,-9.419000,,,
2026-09-11T19:04:29.478,1.771202,1.183074,0.757576,10.954392,0.000000,6.292700,-2.164920,1.182230,-0.026743,-0.056301,0.063064,0.733185,0.065204,-0.109556,-0.024500,-0.054818,0.177402,1.054117,7.721364,2.489186,0.588411,1,0,,38.990376,-76.939811,-9.419000,,,
2026-09-11T19:04:29.512,1.804624,1.154504,0.795833,10.689851,0.000000,7.534155,-2.592026,1.153323,-0.037956,-0.079907,0.060788,0.772206,0.066541,-0.082167,-0.019150,-0.078424,-1.880719,-0.410506,11.699432,2.298477,0.554394,1,0,,38.990376,-76.939811,-9.419000,,,
2026-09-11T19:04:29.545,1.838043,1.087191,0.831790,10.066579,0.000000,7.937903,-2.730930,1.085956,-0.034144,-0.071882,0.058251,0.809628,0.067565,-0.029208,-0.042878,-0.070398,-0.312832,-2.226600,8.413125,2.219997,0.402322,1,0,,38.990376,-76.939811,-9.419000,,,
2026-09-11T19:04:29.578,1.871461,1.078126,0.867461,9.982652,0.000000,8.176169,-2.812902,1.076827,-0.027995,-0.058937,0.056066,0.845766,0.068593,-0.075673,-0.058666,-0.057454,-1.623981,-0.607424,12.090619,2.069357,0.355773,1,0,,38.990376,-76.939811,-9.419000,,,
2026-09-11T19:04:29.612,1.904877,1.001281,0.900261,9.271118,0.000000,8.153509,-2.805106,1.000081,-0.032784,-0.069019,0.053928,0.880471,0.069488,-0.098335,-0.066777,-0.067536,0.754916,0.633902,7.372149,2.088035,0.390422,1,0,,38.990376,-76.939811,-9.419000,,,
2026-09-11T19:04:29.645,1.938291,0.991853,0.933449,9.183824,0.000000,8.272299,-2.845974,0.990630,-0.020659,-0.043493,0.052048,0.913730,0.070358,-0.135084,-0.031694,-0.042009,2.794797,-0.404720,9.664552,2.248957,0.355806,1,0,,38.990376,-76.939811,-9.419000,,,
2026-09-11T19:04:29.679,1.971713,1.050909,0.969166,9.730637,0.000000,8.171362,-2.811248,1.049644,-0.011248,-0.023680,0.050925,0.947808,0.071580,-0.137386,-0.023275,-0.022196,1.322525,-1.955544,10.725926,2.319510,0.220025,1,0,,38.990376,-76.939811,-9.419000,,,
2026-09-11T19:04:29.713,2.005133,1.022093,1.003425,9.463823,0.000000,8.109564,-2.789988,1.020881,-0.048052,-0.101161,0.048839,0.982412,0.072316,-0.100559,0.088840,-0.099678,-0.958796,3.636208,11.662166,2.241258,0.452679,1,0,,38.990376,-76.939811,-9.419000,,,
2026-09-11T19:04:29.745,2.038551,1.051592,1.038549,9.736959,0.000000,7.670111,-2.638800,1.050477,0.002198,0.004626,0.047226,1.017020,0.073212,0.016931,0.013562,0.006110,2.277496,0.728634,9.207856,2.371513,0.487607,1,0,,38.990376,-76.939811,-9.419000,,,
2026-09-11T19:04:29.779,2.071972,1.022626,1.072694,9.468755,0.000000,7.566427,-2.603129,1.021570,-0.003653,-0.007690,0.047175,1.051607,0.074821,-0.020568,0.064024,-0.006207,0.038638,-0.919864,10.397991,2.348789,0.416291,1,0,,38.990376,-76.939811,-9.419000,,,
2026-09-11T19:04:29.812,2.105386,1.022635,1.106622,9.468845,0.000000,7.318548,-2.517849,1.021648,-0.023207,-0.048857,0.046230,1.085727,0.075967,0.020910,-0.040101,-0.047373,-0.884952,1.729795,9.044575,2.257697,0.519939,1,0,,38.990376,-76.939811,-9.419000,,,
2026-09-11T19:04:29.845,2.138800,0.983482,1.139400,9.106314,0.000000,7.506003,-2.582340,0.982483,-0.027667,-0.058246,0.044441,1.119213,0.076636,-0.016170,-0.030691,-0.056762,1.069807,0.875145,8.543161,2.283998,0.567615,1,0,,38.990376,-76.939811,-9.419000,,,
2026-09-11T19:04:29.879,2.172222,0.964114,1.171665,8.926980,0.000000,7.736715,-2.661714,0.963074,-0.021562,-0.045394,0.042709,1.151731,0.077231,0.059838,-0.014436,-0.043911,-1.079908,-0.346273,9.112928,2.158109,0.534850,1,0,,38.990376,-76.939811,-9.419000,,,
2026-09-11T19:04:29.913,2.205639,0.915663,1.202255,8.478357,0.000000,8.676733,-2.985115,0.914420,-0.040412,-0.085079,0.040529,1.183117,0.077502,0.021195,0.003292,-0.083595,-0.539268,-0.322835,10.113206,2.063247,0.506175,1,0,,38.990376,-76.939811,-9.419000,,,
2026-09-11T19:04:29.946,2.239058,0.906143,1.232686,8.390216,0.000000,10.578055,-3.639239,0.904316,-0.049628,-0.104480,0.037362,1.213542,0.077182,0.054121,-0.047632,-0.102997,1.093736,4.540577,8.263280,2.068633,0.793636,1,0,,38.990376,-76.939811,-9.419000,,,
2026-09-11T19:04:29.979,2.272482,0.925943,1.263800,8.573543,0.000000,13.004660,-4.474080,0.923121,-0.051543,-0.108511,0.033802,1.244123,0.076578,0.040840,-0.052450,-0.107028,-1.067356,-0.082474,9.029767,1.926863,0.779092,1,0,,38.990376,-76.939811,-9.419000,,,
2026-09-11T19:04:30.013,2.305895,0.906879,1.294014,8.397027,0.000000,14.393744,-4.951976,0.903494,-0.044885,-0.094494,0.030411,1.274676,0.075948,0.041122,-0.004708,-0.093011,0.637236,-1.597601,10.523712,1.892266,0.665715,1,0,,38.990376,-76.939811,-9.419000,,,
2026-09-11T19:04:30.046,2.339313,0.926486,1.324900,8.578578,0.000000,14.969153,-5.149938,0.922746,-0.052333,-0.110174,0.026991,1.305224,0.075200,0.062126,-0.018357,-0.108691,1.313405,-1.487178,9.114203,1.896825,0.561784,1,0,,38.990376,-76.939811,-9.419000,,,
2026-09-11T19:04:30.080,2.372733,0.965557,1.357165,8.940343,0.000000,15.856299,-5.455149,0.961184,-0.056749,-0.119471,0.023153,1.336740,0.074166,0.043399,-0.033164,-0.117987,0.884168,0.226239,8.913264,1.871503,0.570739,1,0,,38.990376,-76.939811,-9.419000,,,
2026-09-11T19:04:30.113,2.406149,1.004562,1.390615,9.301504,0.000000,17.911429,-6.162189,0.998758,-0.052716,-0.110981,0.019303,1.369518,0.073031,-0.005596,-0.029573,-0.109497,2.744195,-0.053054,8.752337,1.963914,0.561262,1,0,,38.990376,-76.939811,-9.419000,,,
2026-09-11T19:04:30.146,2.439563,1.072969,1.426173,9.934902,0.000000,19.084906,-6.565908,1.065932,-0.065615,-0.138137,0.015141,1.404042,0.071646,-0.006124,-0.020063,-0.136653,3.759674,4.012195,10.397501,2.115500,0.817301,1,0,,38.990376,-76.939811,-9.419000,,,
2026-09-11T19:04:30.180,2.472988,1.141010,1.464259,10.564908,0.000000,19.600577,-6.743318,1.133117,-0.074849,-0.157577,0.010199,1.440819,0.069762,-0.044598,-0.053530,-0.156094,2.167564,-0.792475,9.385847,2.158327,0.761609,1,0,,38.990376,-76.939811,-9.419000,,,
2026-09-11T19:04:30.213,2.506406,1.209326,1.504852,11.197462,0.000000,19.777731,-6.804265,1.200808,-0.071356,-0.150224,0.005056,1.479834,0.067613,0.028087,-0.019294,-0.148740,1.761863,-0.547505,11.047191,2.176188,0.722518,1,1,2.495454,38.990371,-76.939821,-9.280000,-1.182458,-0.763168,5.899992
2026-09-11T19:04:30.247,2.539821,1.248577,1.546312,11.560894,0.000000,19.711126,-6.781351,1.239842,-0.071070,-0.149622,0.000046,1.520617,0.065336,0.037937,-0.043642,-0.148138,1.915239,-1.504830,6.615664,2.203770,0.622249,1,0,,38.990371,-76.939821,-9.280000,,,
2026-09-11T19:04:30.280,2.573247,1.288120,1.589115,11.927037,0.000000,19.653448,-6.761507,1.279161,-0.058247,-0.122624,-0.004504,1.562713,0.063079,0.052782,-0.004541,-0.121141,-0.028635,-2.236603,5.990000,2.105466,0.473839,1,0,,38.990371,-76.939821,-9.280000,,,
2026-09-11T19:04:30.314,2.606664,1.298177,1.632363,12.020157,0.000000,19.073233,-6.561892,1.289673,-0.071778,-0.151112,-0.009077,1.605618,0.060615,0.080458,-0.225514,-0.149628,0.126114,1.129138,4.930980,2.020778,0.547373,1,0,,38.990371,-76.939821,-9.280000,,,
2026-09-11T19:04:30.347,2.640082,1.279410,1.675257,11.846389,0.000000,19.426169,-6.683315,1.270716,-0.062689,-0.131977,-0.013808,1.648371,0.057880,0.071767,0.042063,-0.130494,2.877467,-1.799520,11.881639,2.114181,0.428818,1,0,,38.990371,-76.939821,-9.280000,,,
2026-09-11T19:04:30.381,2.673505,1.289425,1.718630,11.939122,0.000000,19.373984,-6.665361,1.280710,-0.077764,-0.163715,-0.018749,1.690964,0.054838,-0.048760,-0.033043,-0.162231,-1.390485,-7.693513,9.887849,1.930090,-0.067134,1,0,,38.990371,-76.939821,-9.280000,,,
2026-09-11T19:04:30.414,2.706906,1.299332,1.761867,12.030852,0.000000,19.217428,-6.611501,1.290691,-0.069104,-0.145481,-0.023913,1.733847,0.051470,0.020309,-0.124563,-0.143998,-1.541311,-6.263311,15.829600,1.745203,-0.466180,1,0,,38.990371,-76.939821,-9.280000,,,
2026-09-11T19:04:30.448,2.740320,1.289685,1.804841,11.941527,0.000000,19.558005,-6.728671,1.280802,-0.086951,-0.183055,-0.029402,1.776723,0.047719,0.054073,-0.069469,-0.181571,0.660380,0.795123,7.933678,1.715131,-0.401303,1,0,,38.990371,-76.939821,-9.280000,,,
2026-09-11T19:04:30.481,2.773740,1.279698,1.847268,11.849052,0.000000,19.645895,-6.758909,1.270804,-0.072611,-0.152864,-0.035015,1.819253,0.043681,-0.001269,-0.029326,-0.151381,0.405113,0.282530,7.872681,1.677777,-0.372900,1,0,,38.990371,-76.939821,-9.280000,,,
2026-09-11T19:04:30.514,2.807294,1.289416,1.890049,11.939040,0.000000,19.491400,-6.705757,1.280595,-0.068938,-0.145133,-0.040014,1.861939,0.039702,0.001347,-0.113199,-0.143649,0.681366,0.251246,8.810883,1.666544,-0.347278,1,0,,38.990371,-76.939821,-9.280000,,,
2026-09-11T19:04:30.547,2.840711,1.270038,1.932260,11.759613,0.000000,19.558005,-6.728671,1.261290,-0.072962,-0.153603,-0.045006,1.904270,0.035530,-0.019874,-0.002064,-0.152120,1.772944,-0.103264,9.399968,1.732380,-0.344470,1,0,,38.990371,-76.939821,-9.280000,,,
2026-09-11T19:04:30.581,2.874134,1.309285,1.976362,12.123008,0.000000,19.403509,-6.675519,1.300408,-0.069157,-0.145594,-0.050006,1.946919,0.031123,-0.052992,0.032090,-0.144110,3.127341,0.652338,9.211681,1.884642,-0.293082,1,0,,38.990371,-76.939821,-9.280000,,,
2026-09-11T19:04:30.614,2.907551,1.367892,2.022299,12.665667,0.000000,19.426169,-6.683315,1.358597,-0.077223,-0.162575,-0.055155,1.991156,0.026343,-0.112519,-0.060958,-0.161092,2.030271,1.326349,10.089278,1.958727,-0.196626,1,0,,38.990371,-76.939821,-9.280000,,,
2026-09-11T19:04:30.647,2.940964,1.406978,2.069545,13.027578,0.000000,19.470114,-6.698434,1.397374,-0.088461,-0.186233,-0.060982,2.036959,0.020906,-0.114630,-0.022357,-0.184750,2.455389,-0.152788,11.022577,2.055971,-0.194388,1,0,,38.990371,-76.939821,-9.280000,,,
2026-09-11T19:04:30.682,2.974391,1.397756,2.116564,12.942185,0.000000,19.810003,-6.815368,1.387879,-0.085873,-0.180786,-0.067116,2.083229,0.015019,-0.088002,-0.006751,-0.179302,-0.526323,-1.619961,10.527047,1.954948,-0.287730,1,0,,38.990371,-76.939821,-9.280000,,,
2026-09-11T19:04:30.715,3.007807,1.388389,2.162820,12.855457,0.000000,20.925116,-7.199008,1.377444,-0.091693,-0.193038,-0.073362,2.129109,0.008817,0.023495,-0.019773,-0.191554,1.069317,0.763252,10.618249,1.955452,-0.224853,1,0,,38.990371,-76.939821,-9.280000,,,
2026-09-11T19:04:30.748,3.041221,1.369642,2.208562,12.681870,0.000000,22.873816,-7.869432,1.356744,-0.102921,-0.216675,-0.080207,2.174404,0.002073,-0.011895,0.000185,-0.215192,0.605757,-1.679683,9.537752,1.926501,-0.318897,1,0,,38.990371,-76.939821,-9.280000,,,
2026-09-11T19:04:30.782,3.074647,1.350818,2.254089,12.507571,0.000000,25.564779,-8.795222,1.334934,-0.133389,-0.280819,-0.088522,2.218896,-0.005652,-0.015168,0.012860,-0.279335,-2.398020,2.653287,8.719387,1.705436,-0.126284,1,0,,38.990371,-76.939821,-9.280000,,,
2026-09-11T19:04:30.815,3.108063,1.332098,2.297610,12.334243,0.000000,29.248635,-10.062604,1.311607,-0.113171,-0.238254,-0.097195,2.262543,-0.013852,-0.075174,0.006140,-0.236771,-3.096842,-5.764839,8.022330,1.448988,-0.484525,1,0,,38.990371,-76.939821,-9.280000,,,
2026-09-11T19:04:30.848,3.141475,1.361727,2.342886,12.608583,0.000000,31.242654,-10.748619,1.337835,-0.131387,-0.276605,-0.105796,2.306161,-0.022403,-0.144150,0.086295,-0.275121,-0.081199,-6.895056,9.744868,1.401725,-0.908135,1,0,,38.990371,-76.939821,-9.280000,,,
2026-09-11T19:04:30.882,3.174900,1.410716,2.389779,13.062187,0.000000,32.004830,-11.010836,1.384746,-0.145924,-0.307208,-0.115553,2.350869,-0.032038,-0.071882,0.053229,-0.305724,2.253666,-1.307226,10.709156,1.516918,-0.962032,1,0,,38.990371,-76.939821,-9.280000,,,
2026-09-11T19:04:30.916,3.208314,1.440066,2.438245,13.333947,0.000000,32.059762,-11.029735,1.413465,-0.148499,-0.312628,-0.125909,2.396686,-0.042554,-0.073938,0.084866,-0.311145,-0.673521,1.032640,11.095146,1.447344,-0.862877,1,0,,38.990371,-76.939821,-9.280000,,,
2026-09-11T19:04:30.949,3.241730,1.469240,2.486255,13.604077,0.000000,31.983544,-11.003513,1.442229,-0.136451,-0.287265,-0.135931,2.443368,-0.053505,-0.088385,0.062425,-0.285782,2.860992,-4.313063,10.368473,1.605575,-1.112443,1,0,,38.990371,-76.939821,-9.280000,,,
2026-09-11T19:04:30.982,3.275154,1.469254,2.535620,13.604208,0.000000,32.020623,-11.016269,1.442180,-0.145479,-0.306271,-0.145851,2.490432,-0.064939,-0.174547,0.051008,-0.304788,1.631827,-0.327542,6.766883,1.676578,-1.099624,1,0,,38.990371,-76.939821,-9.280000,,,
2026-09-11T19:04:31.015,3.308571,1.459729,2.584200,13.516013,0.000000,32.232797,-11.089265,1.432474,-0.144474,-0.304155,-0.156050,2.537188,-0.076951,-0.107999,0.208180,-0.302672,-0.037265,-3.635816,12.648225,1.635096,-1.301385,1,0,,38.990371,-76.939821,-9.280000,,,
2026-09-11T19:04:31.049,3.341994,1.421125,2.631846,13.158565,0.000000,32.258203,-11.098005,1.394549,-0.149495,-0.314725,-0.166392,2.583030,-0.089380,-0.072372,0.034849,-0.313242,-1.433536,-2.327314,6.840040,1.502367,-1.416066,1,0,,38.990371,-76.939821,-9.280000,,,
2026-09-11T19:04:31.083,3.375420,1.363416,2.677725,12.624222,0.000000,31.826303,-10.949416,1.338595,-0.113137,-0.238184,-0.175633,2.627299,-0.101475,-0.053939,-0.040610,-0.236700,-0.415017,1.261822,7.338414,1.437227,-1.304968,1,0,,38.990371,-76.939821,-9.280000,,,
2026-09-11T19:04:31.116,3.408842,1.344580,2.722830,12.449816,0.000000,28.350503,-9.753613,1.325145,-0.099538,-0.209554,-0.183115,2.670465,-0.112913,-0.024919,-0.007524,-0.208070,-1.150516,2.543257,10.630703,1.327868,-1.114861,1,0,,38.990371,-76.939821,-9.280000,,,
2026-09-11T19:04:31.149,3.442256,1.286770,2.765223,11.914539,0.000000,24.540307,-8.442766,1.272825,-0.069379,-0.146062,-0.189057,2.712600,-0.123715,0.061053,0.081419,-0.144578,2.200318,-0.357060,12.403647,1.443625,-1.120476,1,0,,38.990371,-76.939821,-9.280000,,,
2026-09-11T19:04:31.183,3.475679,1.267608,2.807389,11.737110,0.000000,21.908395,-7.537292,1.256655,-0.069918,-0.147197,-0.193957,2.753655,-0.134045,-0.081943,0.080981,-0.145713,1.570829,-4.436430,8.801370,1.525963,-1.390076,1,1,3.462179,38.990370,-76.939836,-9.238000,-2.426998,-0.952014,4.714436
2026-09-11T19:04:31.216,3.509093,1.297055,2.850329,12.009766,0.000000,21.864449,-7.522173,1.285893,-0.064029,-0.134798,-0.198669,2.794881,-0.144527,-0.015994,0.035583,-0.133315,1.802953,-1.122273,12.289890,1.628621,-1.442963,1,0,,38.990370,-76.939836,-9.238000,,,
2026-09-11T19:04:31.249,3.542507,1.326636,2.894385,12.283669,0.000000,21.843163,-7.514850,1.315242,-0.071978,-0.151533,-0.203452,2.837009,-0.155433,-0.055494,0.032807,-0.150050,1.166991,-3.720349,8.265535,1.692040,-1.661684,1,0,,38.990370,-76.939836,-9.238000,,,
2026-09-11T19:04:31.283,3.575929,1.307545,2.938704,12.106899,0.000000,21.591165,-7.428153,1.296572,-0.085769,-0.180567,-0.209002,2.879189,-0.166950,-0.094003,0.026921,-0.179084,0.704804,0.652927,9.637387,1.724238,-1.592760,1,0,,38.990370,-76.939836,-9.238000,,,
2026-09-11T19:04:31.316,3.609349,1.298560,2.982578,12.023706,0.000000,21.424996,-7.370985,1.287829,-0.068664,-0.144556,-0.214435,2.920869,-0.178547,-0.078495,0.078837,-0.143073,0.192505,1.415786,10.973151,1.719264,-1.478342,1,0,,38.990370,-76.939836,-9.238000,,,
2026-09-11T19:04:31.349,3.642765,1.308922,3.027148,12.119646,0.000000,20.982110,-7.218616,1.298547,-0.072637,-0.152921,-0.219405,2.962561,-0.190154,-0.064984,0.029690,-0.151437,0.118366,2.302994,11.437202,1.705010,-1.307006,1,0,,38.990370,-76.939836,-9.238000,,,
2026-09-11T19:04:31.384,3.676189,1.329110,3.071398,12.306579,0.000000,20.853707,-7.174441,1.318704,-0.078716,-0.165717,-0.224730,3.004669,-0.202255,-0.040256,0.037468,-0.164234,0.742560,-1.825116,8.148542,1.725219,-1.403389,1,0,,38.990370,-76.939836,-9.238000,,,
2026-09-11T19:04:31.417,3.709608,1.281215,3.113894,11.863104,0.000000,20.853707,-7.174441,1.271184,-0.066080,-0.139116,-0.229824,3.046286,-0.214362,-0.030713,0.009957,-0.137633,0.411193,0.907802,8.007032,1.717316,-1.324553,1,0,,38.990370,-76.939836,-9.238000,,,
2026-09-11T19:04:31.450,3.743026,1.252415,3.155581,11.596436,0.000000,20.853707,-7.174441,1.242609,-0.074372,-0.156574,-0.234765,3.086621,-0.226314,0.068650,0.003129,-0.155090,-0.700979,3.393885,8.012425,1.635655,-1.084591,1,0,,38.990370,-76.939836,-9.238000,,,
2026-09-11T19:04:31.484,3.776457,1.213608,3.196459,11.237109,0.000000,20.809762,-7.159322,1.204146,-0.071868,-0.151302,-0.239911,3.125799,-0.238304,0.092635,0.042794,-0.149818,0.000981,-2.442935,8.888454,1.598586,-1.225797,1,0,,38.990370,-76.939836,-9.238000,,,
2026-09-11T19:04:31.517,3.809870,1.193817,3.235969,11.053858,0.000000,20.861260,-7.177039,1.184463,-0.069994,-0.147355,-0.244900,3.163969,-0.250183,0.046026,0.024660,-0.145872,0.136018,1.688411,8.903752,1.563900,-1.098592,1,0,,38.990370,-76.939836,-9.238000,,,
2026-09-11T19:04:31.550,3.843288,1.174294,3.275059,10.873095,0.000000,20.876367,-7.182236,1.165080,-0.065948,-0.138838,-0.249682,3.201477,-0.261994,0.051339,-0.042890,-0.137354,0.072961,1.980355,15.687502,1.517454,-0.954720,1,0,,38.990370,-76.939836,-9.238000,,,
2026-09-11T19:04:31.584,3.876713,1.155009,3.313590,10.694527,0.000000,20.785729,-7.151054,1.146025,-0.063427,-0.133530,-0.254234,3.238343,-0.273716,0.024444,-0.004195,-0.132047,0.701077,-2.483828,7.061965,1.507326,-1.101870,1,0,,38.990370,-76.939836,-9.238000,,,
2026-09-11T19:04:31.617,3.910130,1.174733,3.352896,10.877158,0.000000,20.721871,-7.129084,1.165651,-0.062481,-0.131539,-0.258663,3.275171,-0.285549,0.034199,-0.024446,-0.130056,1.099031,-0.729026,11.432789,1.521253,-1.133804,1,0,,38.990370,-76.939836,-9.238000,,,
2026-09-11T19:04:31.651,3.943548,1.184915,3.392304,10.971431,0.000000,20.677239,-7.113729,1.175793,-0.068317,-0.143825,-0.263264,3.312406,-0.297755,0.027334,0.020853,-0.142342,1.912493,0.206920,19.895340,1.583320,-1.103807,1,0,,38.990370,-76.939836,-9.238000,,,
2026-09-11T19:04:31.684,3.976963,1.204923,3.433022,11.156697,0.000000,20.269372,-6.973408,1.196010,-0.055915,-0.117716,-0.267634,3.350099,-0.310154,0.058021,0.145864,-0.116232,0.682445,-3.934820,2.553848,1.556701,-1.343928,1,0,,38.990370,-76.939836,-9.238000,,,
2026-09-11T19:04:31.717,4.010384,1.224376,3.473912,11.336818,0.000000,20.261132,-6.970573,1.215326,-0.057830,-0.121748,-0.271636,3.388431,-0.322721,0.068158,0.074470,-0.120264,1.310267,0.602128,5.316872,1.564133,-1.287394,1,0,,38.990370,-76.939836,-9.238000,,,
2026-09-11T19:04:31.751,4.043804,1.292453,3.517524,11.967155,0.000000,20.305078,-6.985692,1.282858,-0.069981,-0.147329,-0.276132,3.428041,-0.336070,0.080993,0.045447,-0.145845,2.119609,0.170734,12.548393,1.621495,-1.256747,1,0,,38.990370,-76.939836,-9.238000,,,
2026-09-11T19:04:31.784,4.077358,1.341242,3.562788,12.418908,0.000000,20.349023,-7.000811,1.331242,-0.073276,-0.154265,-0.281192,3.469544,-0.350446,-0.004396,0.033327,-0.152782,1.714006,1.479137,10.212744,1.651393,-1.140257,1,0,,38.990370,-76.939836,-9.238000,,,
2026-09-11T19:04:31.817,4.110773,1.390373,3.609294,12.873828,0.000000,20.392968,-7.015929,1.379963,-0.069648,-0.146628,-0.286219,3.512363,-0.365420,-0.015425,-0.027912,-0.145144,1.875326,0.128957,8.769695,1.689356,-1.113085,1,0,,38.990370,-76.939836,-9.238000,,,
2026-09-11T19:04:31.851,4.144193,1.419907,3.657054,13.147289,0.000000,20.329797,-6.994196,1.409341,-0.067482,-0.142067,-0.291043,3.556391,-0.380885,-0.032723,0.061114,-0.140583,1.041662,-2.163739,11.671875,1.671569,-1.234695,1,0,,38.990370,-76.939836,-9.238000,,,
2026-09-11T19:04:31.885,4.177609,1.449513,3.705895,13.421412,0.000000,19.448831,-6.691111,1.439640,-0.068298,-0.143786,-0.295819,3.601301,-0.396825,0.011640,0.000290,-0.142302,1.449227,0.412566,10.984331,1.683489,-1.187824,1,0,,38.990370,-76.939836,-9.238000,,,
2026-09-11T19:04:31.918,4.211031,1.459874,3.755250,13.517353,0.000000,18.521173,-6.371963,1.450855,-0.065331,-0.137540,-0.300520,3.646817,-0.413151,0.003013,0.041642,-0.136056,0.457971,0.105323,7.253195,1.637096,-1.161829,1,0,,38.990370,-76.939836,-9.238000,,,
2026-09-11T19:04:31.951,4.244446,1.499412,3.805333,13.883443,0.000000,17.733590,-6.101006,1.490919,-0.057497,-0.121046,-0.304841,3.693120,-0.429761,0.058559,0.033937,-0.119562,-0.166223,-1.161304,10.859884,1.555498,-1.219308,1,0,,38.990370,-76.939836,-9.238000,,,
2026-09-11T19:04:31.985,4.277862,1.499746,3.855417,13.886540,0.000000,17.616174,-6.060610,1.491364,-0.063490,-0.133663,-0.309096,3.740007,-0.446745,0.024605,0.027388,-0.132179,0.435023,0.641257,10.733869,1.521054,-1.158309,1,0,,38.990370,-76.939836,-9.238000,,,
2026-09-11T19:04:32.018,4.311286,1.480564,3.904612,13.708927,0.000000,17.712304,-6.093683,1.472198,-0.069004,-0.145272,-0.313758,3.786473,-0.464027,0.012678,-0.043977,-0.143789,0.527794,1.573477,10.662280,1.503549,-1.036708,1,0,,38.990370,-76.939836,-9.238000,,,
2026-09-11T19:04:32.052,4.344702,1.470663,3.953658,13.617255,0.000000,17.888085,-6.154158,1.462188,-0.069476,-0.146266,-0.318629,3.832351,-0.481471,-0.022401,0.004950,-0.144782,0.933495,-0.714218,10.132525,1.523252,-1.064487,1,0,,38.990370,-76.939836,-9.238000,,,
2026-09-11T19:04:32.085,4.378119,1.471199,4.003252,13.622215,0.000000,17.932031,-6.169277,1.462679,-0.073727,-0.155215,-0.323666,3.877967,-0.499168,-0.082597,0.011029,-0.153731,1.392348,0.166223,10.158121,1.580214,-1.034145,1,0,,38.990370,-76.939836,-9.238000,,,
2026-09-11T19:04:32.118,4.411545,1.490844,4.052937,13.804113,0.000000,17.826974,-6.133133,1.482311,-0.075491,-0.158928,-0.328916,3.923790,-0.517307,-0.073419,-0.008942,-0.157444,-0.493863,2.477650,11.833096,1.518357,-0.853993,1,0,,38.990370,-76.939836,-9.238000,,,
2026-09-11T19:04:32.152,4.444961,1.452411,4.101505,13.448246,0.000000,16.950128,-5.831466,1.444894,-0.064460,-0.135705,-0.333839,3.969277,-0.535429,-0.042063,0.183818,-0.134221,-1.425887,-1.030189,12.151616,1.397793,-0.905389,1,0,,38.990370,-76.939836,-9.238000,,,
2026-09-11T19:04:32.185,4.478382,1.423781,4.149697,13.183155,0.000000,14.750802,-5.074817,1.418200,-0.036643,-0.077144,-0.337396,4.013896,-0.552781,0.021831,0.064770,-0.075661,4.355231,-2.282890,1.848750,1.653064,-1.042888,1,1,4.477110,38.990368,-76.939851,-9.276000,-3.718353,-1.099162,3.318161
2026-09-11T19:04:32.218,4.511805,1.414397,4.197434,13.096264,0.000000,11.476190,-3.948230,1.411040,-0.067976,-0.143107,-0.341077,4.057899,-0.570162,0.110078,0.087246,-0.141624,-0.925846,-4.178221,10.473404,1.561263,-1.295534,1,0,,38.990368,-76.939851,-9.276000,,,
2026-09-11T19:04:32.252,4.545214,1.395307,4.244008,12.919511,0.000000,9.940850,-3.420017,1.392822,-0.054644,-0.115040,-0.345389,4.101315,-0.587853,0.135963,0.020320,-0.113556,-0.634588,-1.608389,10.075352,1.482550,-1.381754,1,0,,38.990368,-76.939851,-9.276000,,,
2026-09-11T19:04:32.285,4.578633,1.366594,4.290025,12.653649,0.000000,10.414636,-3.583017,1.363923,-0.042663,-0.089818,-0.348812,4.144079,-0.605051,0.121708,-0.098576,-0.088334,-1.647713,0.501806,7.145714,1.330248,-1.332943,1,0,,38.990368,-76.939851,-9.276000,,,
2026-09-11T19:04:32.319,4.612058,1.328451,4.334229,12.300470,0.000000,13.014962,-4.477625,1.324396,-0.063038,-0.132711,-0.352531,4.185667,-0.622143,0.109889,-0.121011,-0.131227,0.735008,2.256706,6.424238,1.325353,-1.167645,1,0,,38.990368,-76.939851,-9.276000,,,
2026-09-11T19:04:32.353,4.645509,1.329016,4.378958,12.305705,0.000000,16.363046,-5.629488,1.322606,-0.068962,-0.145184,-0.357179,4.226413,-0.639595,0.063455,-0.015933,-0.143700,0.287237,-0.724908,9.483129,1.287016,-1.196109,1,0,,38.990368,-76.939851,-9.276000,,,
2026-09-11T19:04:32.386,4.678927,1.329558,4.423334,12.310723,0.000000,19.872491,-6.836866,1.320104,-0.081880,-0.172380,-0.362485,4.266855,-0.657503,-0.026403,0.018972,-0.170896,0.015004,-0.901525,8.365073,1.228266,-1.233359,1,0,,38.990368,-76.939851,-9.276000,,,
2026-09-11T19:04:32.419,4.712352,1.358908,4.468553,12.582483,0.000000,20.642907,-7.101918,1.348482,-0.087759,-0.184757,-0.368454,4.307494,-0.676091,-0.052184,0.023336,-0.183273,0.717553,-1.743819,9.036142,1.210059,-1.323317,1,0,,38.990368,-76.939851,-9.276000,,,
2026-09-11T19:04:32.453,4.745768,1.388328,4.514694,12.854886,0.000000,21.096093,-7.257830,1.377204,-0.080329,-0.169115,-0.374366,4.348910,-0.695237,-0.010425,-0.010460,-0.167631,1.297224,-1.526405,5.745716,1.227888,-1.399239,1,0,,38.990368,-76.939851,-9.276000,,,
2026-09-11T19:04:32.486,4.779188,1.427476,4.562488,13.217368,0.000000,20.985543,-7.219797,1.416158,-0.087278,-0.183742,-0.380262,4.391271,-0.715040,-0.027654,-0.021713,-0.182259,2.397530,1.886309,8.381352,1.319506,-1.251733,1,0,,38.990368,-76.939851,-9.276000,,,
2026-09-11T19:04:32.519,4.812614,1.476162,4.611534,13.668171,0.000000,20.938851,-7.203733,1.464510,-0.088606,-0.186538,-0.386451,4.434819,-0.735775,-0.032685,-0.010125,-0.185054,2.931306,2.509130,10.024162,1.446005,-1.064697,1,0,,38.990368,-76.939851,-9.276000,,,
2026-09-11T19:04:32.553,4.846030,1.534415,4.662814,14.207549,0.000000,20.809762,-7.159322,1.522452,-0.095245,-0.200515,-0.392918,4.479816,-0.757579,-0.071808,-0.041375,-0.199032,2.039391,-2.312702,9.884711,1.509979,-1.189672,1,0,,38.990368,-76.939851,-9.276000,,,
2026-09-11T19:04:32.586,4.879449,1.602787,4.716919,14.840621,0.000000,20.467126,-7.041442,1.590698,-0.077715,-0.163611,-0.399002,4.526694,-0.780312,-0.016605,0.068138,-0.162128,0.914176,-1.071671,11.209491,1.498067,-1.235886,1,0,,38.990368,-76.939851,-9.276000,,,
2026-09-11T19:04:32.620,4.912866,1.622666,4.771059,15.024685,0.000000,19.901330,-6.846788,1.611094,-0.074150,-0.156105,-0.404344,4.574941,-0.803564,-0.042882,0.001836,-0.154621,1.149241,-1.649184,7.782361,1.501497,-1.319519,1,0,,38.990368,-76.939851,-9.276000,,,
2026-09-11T19:04:32.653,4.946283,1.632729,4.825517,15.117864,0.000000,18.420236,-6.337237,1.622752,-0.078539,-0.165346,-0.409715,4.623549,-0.827297,-0.092940,-0.033970,-0.163863,1.304873,-0.324894,9.337304,1.516904,-1.315455,1,0,,38.990368,-76.939851,-9.276000,,,
2026-09-11T19:04:32.687,4.979703,1.642933,4.881081,15.212341,0.000000,17.077157,-5.875169,1.634303,-0.064614,-0.136029,-0.414751,4.672457,-0.851295,-0.055838,0.065703,-0.134546,0.533188,1.846004,11.011495,1.487561,-1.173941,1,0,,38.990368,-76.939851,-9.276000,,,
2026-09-11T19:04:32.720,5.013126,1.624024,4.934787,15.037257,0.000000,16.722848,-5.753273,1.615843,-0.059559,-0.125387,-0.419120,4.721278,-0.875188,-0.104332,-0.027232,-0.123903,0.178677,-0.589184,7.217106,1.442434,-1.192844,1,0,,38.990368,-76.939851,-9.276000,,,
2026-09-11T19:04:32.754,5.046545,1.576006,4.987548,14.592650,0.000000,16.789453,-5.776188,1.568004,-0.060979,-0.128378,-0.423360,4.769006,-0.898778,-0.069645,0.024216,-0.126894,0.003923,1.317818,8.956512,1.393997,-1.088228,1,0,,38.990368,-76.939851,-9.276000,,,
2026-09-11T19:04:32.787,5.079965,1.557279,5.039967,14.419252,0.000000,16.881463,-5.807843,1.549285,-0.068363,-0.143922,-0.427910,4.815556,-0.922253,-0.119767,-0.073926,-0.142438,0.884462,2.013599,7.345377,1.411905,-0.938351,1,0,,38.990368,-76.939851,-9.276000,,,
2026-09-11T19:04:32.820,5.113384,1.558061,5.091976,14.426491,0.000000,16.792199,-5.777133,1.550148,-0.074042,-0.155878,-0.432919,4.861628,-0.946024,-0.035114,0.003674,-0.154395,0.312244,-0.352941,10.219706,1.405001,-0.942050,1,0,,38.990368,-76.939851,-9.276000,,,
2026-09-11T19:04:32.854,5.146799,1.549019,5.143415,14.342773,0.000000,15.523965,-5.340814,1.542295,-0.058827,-0.123847,-0.437593,4.907543,-0.969823,-0.109970,-0.235864,-0.122363,3.684457,1.334195,18.588309,1.628137,-0.839834,1,0,,38.990368,-76.939851,-9.276000,,,
2026-09-11T19:04:32.887,5.180221,1.549566,5.194502,14.347832,0.000000,10.727746,-3.690738,1.546352,-0.051170,-0.107727,-0.441463,4.953469,-0.993448,-0.079459,-0.054208,-0.106243,2.667703,-2.946702,9.156567,1.788722,-1.017312,1,0,,38.990368,-76.939851,-9.276000,,,
2026-09-11T19:04:32.921,5.213661,1.540389,5.245747,14.262866,0.000000,8.356759,-2.875032,1.538451,-0.026815,-0.056453,-0.444208,4.999514,-1.016728,0.013392,0.045220,-0.054970,-1.544057,0.157397,15.063897,1.678884,-0.997119,1,0,,38.990368,-76.939851,-9.276000,,,
2026-09-11T19:04:32.954,5.247077,1.520930,5.296776,14.082688,0.000000,8.272302,-2.845975,1.519054,-0.025801,-0.054317,-0.446059,5.045242,-1.039517,-0.074699,-0.041260,-0.052834,-0.129350,1.323211,8.668392,1.664772,-0.902021,1,0,,38.990368,-76.939851,-9.276000,,,
2026-09-11T19:04:32.987,5.280498,1.501321,5.346632,13.901117,0.000000,7.652261,-2.632659,1.499736,-0.018351,-0.038633,-0.447612,5.090416,-1.061981,-0.050786,-0.015213,-0.037150,-0.184071,-2.333787,8.975537,1.647330,-1.046182,1,0,,38.990368,-76.939851,-9.276000,,,
2026-09-11T19:04:33.021,5.313919,1.491699,5.396419,13.812025,0.000000,7.582223,-2.608563,1.490153,-0.026383,-0.055544,-0.449186,5.135115,-1.084314,-0.029144,0.014516,-0.054060,-1.138650,-3.335046,11.373361,1.568198,-1.251931,1,0,,38.990368,-76.939851,-9.276000,,,
2026-09-11T19:04:33.054,5.347335,1.472791,5.445033,13.636956,0.000000,7.582223,-2.608563,1.471265,-0.028927,-0.060898,-0.451131,5.179264,-1.106675,-0.014023,0.001726,-0.059415,-0.387068,3.063205,9.686715,1.537448,-1.040975,1,0,,38.990368,-76.939851,-9.276000,,,
2026-09-11T19:04:33.088,5.380758,1.424801,5.492576,13.192601,0.000000,7.692773,-2.646596,1.423281,-0.032215,-0.067822,-0.453282,5.222328,-1.128729,0.013091,0.007530,-0.066339,-0.260465,0.652633,7.216125,1.512174,-0.987857,1,0,,38.990368,-76.939851,-9.276000,,,
2026-09-11T19:04:33.122,5.414176,1.386432,5.539310,12.837338,0.000000,7.736718,-2.661715,1.384937,-0.033167,-0.069825,-0.455582,5.264009,-1.150307,0.048861,0.005233,-0.068342,-0.664106,-0.714120,8.044297,1.460639,-1.023753,1,0,,38.990368,-76.939851,-9.276000,,,
2026-09-11T19:04:33.155,5.447587,1.367272,5.584301,12.659925,0.000000,7.868554,-2.707071,1.365746,-0.035287,-0.074289,-0.457990,5.304745,-1.171601,0.039660,0.039406,-0.072806,1.109034,-0.542504,11.094067,1.525499,-1.047836,1,1,5.456091,38.990369,-76.939867,-9.293000,-5.147415,-1.084707,3.802019
2026-09-11T19:04:33.188,5.481008,1.338484,5.629223,12.393367,0.000000,8.160378,-2.807470,1.336877,-0.045763,-0.096342,-0.460841,5.344623,-1.192839,-0.023702,0.007229,-0.094859,0.387853,1.128255,8.288385,1.541039,-0.961783,1,0,,38.990369,-76.939867,-9.293000,,,
2026-09-11T19:04:33.222,5.514429,1.319398,5.672824,12.216651,0.000000,8.709008,-2.996218,1.317595,-0.035823,-0.075416,-0.463711,5.383718,-1.213843,-0.007517,-0.021746,-0.073933,0.822484,-2.565420,7.593780,1.578929,-1.117593,1,0,,38.990369,-76.939867,-9.293000,,,
2026-09-11T19:04:33.255,5.547841,1.271313,5.715058,11.771415,0.000000,8.835351,-3.039685,1.269524,-0.038687,-0.081446,-0.466332,5.421791,-1.234336,-0.048538,-0.033199,-0.079963,0.024419,0.057663,10.495960,1.558388,-1.101687,1,0,,38.990369,-76.939867,-9.293000,,,
2026-09-11T19:04:33.288,5.581256,1.252429,5.757634,11.596567,0.000000,8.768746,-3.016771,1.250694,-0.037464,-0.078872,-0.469010,5.458802,-1.254453,-0.040507,0.025369,-0.077388,0.270958,1.525719,11.752584,1.549063,-0.991288,1,0,,38.990369,-76.939867,-9.293000,,,
2026-09-11T19:04:33.322,5.614671,1.272606,5.800562,11.783392,0.000000,8.601205,-2.959130,1.270909,-0.029110,-0.061284,-0.471352,5.495856,-1.274532,-0.101446,-0.030909,-0.059801,2.111274,1.015577,10.410740,1.649774,-0.916460,1,0,,38.990369,-76.939867,-9.293000,,,
2026-09-11T19:04:33.355,5.648086,1.292590,5.843525,11.968424,0.000000,7.899453,-2.717702,1.291136,-0.007399,-0.015577,-0.472636,5.533705,-1.294538,-0.023464,-0.020460,-0.014094,0.203292,-5.129270,8.789799,1.613729,-1.243740,1,0,,38.990369,-76.939867,-9.293000,,,
2026-09-11T19:04:33.388,5.681503,1.273688,5.885748,11.793412,0.000000,5.585458,-1.921602,1.272972,-0.005867,-0.012351,-0.473103,5.571745,-1.314247,-0.023263,0.046857,-0.010868,-0.100616,-5.649023,7.145027,1.547098,-1.601347,1,0,,38.990369,-76.939867,-9.293000,,,
2026-09-11T19:04:33.422,5.714919,1.274068,5.927651,11.796930,0.000000,2.536752,-0.872736,1.273921,0.007680,0.016169,-0.473039,5.609638,-1.333608,0.052757,-0.041159,0.017652,0.407957,-0.099047,6.695196,1.503586,-1.598242,1,0,,38.990369,-76.939867,-9.293000,,,
2026-09-11T19:04:33.455,5.748338,1.274270,5.970591,11.798798,0.000000,-0.104774,0.036046,1.274270,0.013758,0.028963,-0.472285,5.647713,-1.352674,0.066959,0.015207,0.030447,1.639280,0.061292,12.233306,1.531751,-1.585850,1,0,,38.990369,-76.939867,-9.293000,,,
2026-09-11T19:04:33.489,5.781760,1.322883,6.014784,12.248921,0.000000,-1.444419,0.496933,1.322834,0.019148,0.040311,-0.471127,5.686623,-1.371905,0.058952,-0.010717,0.041795,2.406748,2.841673,11.193409,1.600276,-1.394727,1,0,,38.990369,-76.939867,-9.293000,,,
2026-09-11T19:04:33.522,5.815187,1.342331,6.059809,12.428988,0.000000,-2.437308,0.838524,1.342187,0.023813,0.050132,-0.469616,5.726653,-1.391452,0.015352,-0.057100,0.051615,2.425969,-1.314778,7.286537,1.662235,-1.475616,1,0,,38.990369,-76.939867,-9.293000,,,
2026-09-11T19:04:33.555,5.848609,1.371775,6.105826,12.701624,0.000000,-2.869895,0.987349,1.371572,0.023134,0.048703,-0.467964,5.767464,-1.411241,0.037321,-0.063050,0.050187,1.510224,3.307587,12.289596,1.664355,-1.256445,1,0,,38.990369,-76.939867,-9.293000,,,
2026-09-11T19:04:33.589,5.882031,1.420843,6.153756,13.155958,0.000000,-2.876761,0.989712,1.420631,0.019897,0.041889,-0.466450,5.809449,-1.431614,0.031845,-0.029472,0.043373,2.541491,-0.227514,10.972269,1.735289,-1.267991,1,0,,38.990369,-76.939867,-9.293000,,,
2026-09-11T19:04:33.622,5.915452,1.469834,6.202757,13.609578,0.000000,-3.634818,1.250511,1.469484,0.031214,0.065713,-0.464652,5.852988,-1.452530,0.026738,0.025693,0.067196,1.672328,1.702729,13.093937,1.747958,-1.156905,1,0,,38.990369,-76.939867,-9.293000,,,
2026-09-11T19:04:33.656,5.948871,1.538150,6.254356,14.242133,0.000000,-4.950431,1.703130,1.537471,0.039803,0.083796,-0.462154,5.898464,-1.473927,0.010171,-0.006613,0.085279,2.503540,-0.291944,11.417785,1.813375,-1.178207,1,0,,38.990369,-76.939867,-9.293000,,,
2026-09-11T19:04:33.689,5.982295,1.586865,6.307493,14.693193,0.000000,-7.296012,2.510096,1.585342,0.052421,0.110359,-0.458909,5.945900,-1.495738,-0.023940,-0.023067,0.111843,2.558849,-0.960071,7.977220,1.884430,-1.245498,1,0,,38.990369,-76.939867,-9.293000,,,
2026-09-11T19:04:33.723,6.015712,1.626106,6.361962,15.056537,0.000000,-10.164817,3.497070,1.623078,0.065813,0.138555,-0.454750,5.994883,-1.517611,0.035347,0.031134,0.140038,1.312718,-0.856121,9.632288,1.881036,-1.308536,1,0,,38.990369,-76.939867,-9.293000,,,
2026-09-11T19:04:33.756,6.049129,1.665452,6.416979,15.420853,0.000000,-14.861472,5.112892,1.658825,0.083790,0.176400,-0.449488,6.045301,-1.539317,0.060954,-0.040076,0.177883,0.930063,0.524264,8.806568,1.858746,-1.285945,1,0,,38.990369,-76.939867,-9.293000,,,
2026-09-11T19:04:33.790,6.082546,1.675713,6.473454,15.515864,0.000000,-18.477353,6.356887,1.665410,0.100843,0.212302,-0.442993,6.096736,-1.560504,0.045318,-0.023190,0.213786,0.105127,-0.515339,7.283007,1.788863,-1.334812,1,0,,38.990369,-76.939867,-9.293000,,,
2026-09-11T19:04:33.823,6.115962,1.666533,6.529337,15.430860,0.000000,-18.477353,6.356887,1.656286,0.101742,0.214195,-0.435867,6.148401,-1.581052,0.013609,0.015117,0.215678,0.357256,1.515324,8.515114,1.745248,-1.251831,1,0,,38.990369,-76.939867,-9.293000,,,
2026-09-11T19:04:33.856,6.149380,1.686517,6.586119,15.615895,0.000000,-18.762997,6.455160,1.675824,0.108174,0.227734,-0.428483,6.200427,-1.601185,-0.057200,-0.000976,0.229217,1.501202,1.410000,10.025731,1.788979,-1.178319,1,0,,38.990369,-76.939867,-9.293000,,,
2026-09-11T19:04:33.890,6.182806,1.686705,6.643312,15.617637,0.000000,-19.388531,6.670366,1.675287,0.121780,0.256380,-0.420392,6.253045,-1.620746,-0.029732,0.029835,0.257863,0.837096,0.187503,7.681549,1.805735,-1.187818,1,0,,38.990369,-76.939867,-9.293000,,,
2026-09-11T19:04:33.923,6.216231,1.686883,6.699286,15.619289,0.000000,-20.137662,6.928095,1.674566,0.127893,0.269249,-0.411607,6.305940,-1.639553,0.017015,0.052268,0.270733,0.947224,0.552801,13.246725,1.844369,-1.174955,1,0,,38.990369,-76.939867,-9.293000,,,
2026-09-11T19:04:33.956,6.249648,1.648089,6.754496,15.260087,0.000000,-21.848096,7.516547,1.633928,0.126376,0.266054,-0.402663,6.358383,-1.657545,0.042237,0.163355,0.267538,-2.244840,-2.069007,4.485758,1.686595,-1.330827,1,0,,38.990369,-76.939867,-9.293000,,,
2026-09-11T19:04:33.990,6.283070,1.629263,6.809410,15.085772,0.000000,-24.037808,8.269888,1.612322,0.137320,0.289095,-0.393386,6.410096,-1.674510,0.142000,0.277046,0.290579,-0.021967,-2.062142,10.176263,1.681274,-1.486585,1,0,,38.990369,-76.939867,-9.293000,,,
2026-09-11T19:04:34.023,6.316490,1.629604,6.863880,15.088925,0.000000,-25.295056,8.702428,1.610843,0.133496,0.281045,-0.383859,6.461653,-1.690730,0.198747,-0.027853,0.282528,-2.176782,3.228840,4.355231,1.538905,-1.297371,1,0,,38.990369,-76.939867,-9.293000,,,
2026-09-11T19:04:34.057,6.349905,1.591552,6.916857,14.736592,0.000000,-25.150174,8.652583,1.573438,0.113251,0.238424,-0.375180,6.512597,-1.706613,0.172031,-0.017612,0.239907,-3.031432,-1.040093,9.218840,1.343173,-1.381456,1,0,,38.990369,-76.939867,-9.293000,,,
2026-09-11T19:04:34.090,6.383330,1.562768,6.969003,14.470072,0.000000,-22.827939,7.853649,1.548110,0.112642,0.237142,-0.367232,6.562580,-1.722020,0.074526,0.019713,0.238625,1.195333,-2.570617,13.091290,1.423137,-1.563168,1,0,,38.990369,-76.939867,-9.293000,,,
2026-09-11T19:04:34.124,6.416750,1.485494,7.018585,13.754578,0.000000,-19.251202,6.623120,1.475581,0.106796,0.224833,-0.359513,6.611109,-1.736556,-0.072936,0.016144,0.226316,0.174166,-5.490547,6.381285,1.433620,-1.929535,1,0,,38.990369,-76.939867,-9.293000,,,
2026-09-11T19:04:34.157,6.450171,1.418057,7.065866,13.130156,0.000000,-19.183224,6.599733,1.408660,0.081183,0.170912,-0.352900,6.657375,-1.750423,-0.067336,-0.016705,0.172395,-0.644885,0.757760,10.326697,1.385360,-1.881588,1,0,,38.990369,-76.939867,-9.293000,,,
2026-09-11T19:04:34.192,6.483591,1.369964,7.112224,12.684851,0.000000,-19.125546,6.579890,1.360940,0.087249,0.183681,-0.346974,6.701814,-1.763647,0.046499,0.018594,0.185165,1.142965,-3.113906,13.005383,1.444370,-2.085345,1,1,6.461742,38.990368,-76.939885,-9.348000,-6.647201,-1.160875,3.446097
2026-09-11T19:04:34.224,6.517006,1.331776,7.157500,12.331255,0.000000,-19.069928,6.560755,1.323054,0.074233,0.156279,-0.341294,6.744939,-1.776239,-0.033102,0.022275,0.157763,-0.840430,-3.844795,8.271027,1.362896,-2.331349,1,0,,38.990368,-76.939885,-9.348000,,,
2026-09-11T19:04:34.257,6.550420,1.342309,7.201921,12.428789,0.000000,-19.025983,6.545636,1.333559,0.086931,0.183012,-0.335626,6.787698,-1.788435,-0.003053,-0.027569,0.184496,0.167400,-2.218264,11.283041,1.339115,-2.471777,1,0,,38.990368,-76.939885,-9.348000,,,
2026-09-11T19:04:34.291,6.583838,1.333384,7.246422,12.346145,0.000000,-19.102200,6.571858,1.324622,0.090791,0.191139,-0.329374,6.830649,-1.800126,0.011573,-0.033208,0.192623,1.013125,0.510436,10.936376,1.361731,-2.434629,1,0,,38.990368,-76.939885,-9.348000,,,
2026-09-11T19:04:34.324,6.617258,1.333819,7.290832,12.350176,0.000000,-19.781979,6.805727,1.324420,0.087689,0.184609,-0.323095,6.873536,-1.811488,0.012214,-0.012118,0.186093,0.869948,-1.861400,8.496678,1.362874,-2.550875,1,0,,38.990368,-76.939885,-9.348000,,,
2026-09-11T19:04:34.357,6.650676,1.353702,7.335857,12.534274,0.000000,-20.899151,7.190075,1.343057,0.101974,0.214683,-0.316424,6.916842,-1.822488,0.005086,0.035641,0.216166,1.168070,2.168937,11.440046,1.369590,-2.407769,1,0,,38.990368,-76.939885,-9.348000,,,
2026-09-11T19:04:34.392,6.684101,1.392569,7.382545,12.894155,0.000000,-22.214078,7.642458,1.380199,0.120519,0.253725,-0.308595,6.961293,-1.832939,0.008778,-0.014522,0.255209,2.532567,-3.060754,9.661316,1.452667,-2.608828,1,0,,38.990368,-76.939885,-9.348000,,,
2026-09-11T19:04:34.425,6.717519,1.441101,7.430248,13.343528,0.000000,-23.217267,7.987592,1.427120,0.120647,0.253993,-0.300112,7.007253,-1.843149,-0.041871,0.064617,0.255476,1.971823,4.458888,8.872371,1.492755,-2.321640,1,0,,38.990368,-76.939885,-9.348000,,,
2026-09-11T19:04:34.458,6.750938,1.499433,7.480411,13.883639,0.000000,-26.176709,9.005748,1.480949,0.147051,0.309580,-0.290695,7.055042,-1.853011,0.077150,0.013281,0.311064,3.831949,-0.008728,12.439736,1.649784,-2.333050,1,0,,38.990368,-76.939885,-9.348000,,,
2026-09-11T19:04:34.492,6.784359,1.567720,7.533115,14.515922,0.000000,-32.103833,11.044897,1.538681,0.157103,0.330744,-0.279995,7.104892,-1.862333,0.080863,0.047207,0.332227,2.412044,2.950821,10.924412,1.712390,-2.156024,1,0,,38.990368,-76.939885,-9.348000,,,
2026-09-11T19:04:34.524,6.817781,1.626355,7.588006,15.058839,0.000000,-35.232876,12.121402,1.590095,0.187797,0.395362,-0.267861,7.156783,-1.870922,0.135150,0.060327,0.396845,0.879362,1.704004,9.396438,1.674990,-2.069424,1,0,,38.990368,-76.939885,-9.348000,,,
2026-09-11T19:04:34.558,6.851204,1.684792,7.644151,15.599923,0.000000,-40.910061,14.074562,1.634214,0.212504,0.447376,-0.253777,7.210566,-1.878347,0.117979,0.048322,0.448860,1.345178,2.450682,10.527341,1.666756,-1.942083,1,0,,38.990368,-76.939885,-9.348000,,,
2026-09-11T19:04:34.592,6.884625,1.772630,7.703599,16.413245,0.000000,-43.693036,15.032008,1.711973,0.237445,0.499884,-0.237948,7.266629,-1.884653,0.070916,-0.171818,0.501367,2.551690,1.068435,6.485922,1.741405,-1.913695,1,0,,38.990368,-76.939885,-9.348000,,,
2026-09-11T19:04:34.624,6.918045,1.811525,7.764438,16.773381,0.000000,-43.898343,15.102641,1.748956,0.247900,0.521895,-0.220874,7.324788,-1.889901,-0.103795,0.104819,0.523378,-2.398412,1.577890,18.233701,1.502228,-1.856340,1,0,,38.990368,-76.939885,-9.348000,,,
2026-09-11T19:04:34.658,6.951462,1.821868,7.825151,16.869144,0.000000,-43.936795,15.115870,1.758832,0.237073,0.499101,-0.203815,7.383788,-1.894331,-0.247698,-0.145522,0.500585,-0.408545,-1.003318,3.325827,1.403784,-1.964402,1,0,,38.990368,-76.939885,-9.348000,,,
2026-09-11T19:04:34.693,6.984881,1.783519,7.885055,16.514066,0.000000,-43.725308,15.043111,1.722399,0.226239,0.476293,-0.187517,7.442352,-1.898052,-0.239357,0.052320,0.477777,-0.132880,2.533352,6.344118,1.331995,-1.838671,1,0,,38.990368,-76.939885,-9.348000,,,
2026-09-11T19:04:34.725,7.018297,1.784324,7.944492,16.521523,0.000000,-43.614072,15.004841,1.723486,0.229478,0.483112,-0.171487,7.500358,-1.900839,-0.183914,-0.029360,0.484595,-0.665283,1.105013,9.580509,1.234229,-1.807568,1,0,,38.990368,-76.939885,-9.348000,,,
2026-09-11T19:04:34.758,7.051716,1.765344,8.003405,16.345779,0.000000,-43.835858,15.081144,1.704543,0.236300,0.497474,-0.155102,7.558138,-1.902474,0.018668,0.059311,0.498958,-0.526421,2.561595,12.244780,1.154196,-1.683541,1,0,,38.990368,-76.939885,-9.348000,,,
2026-09-11T19:04:34.793,7.085133,1.794967,8.064358,16.620069,0.000000,-47.148236,16.220723,1.723515,0.268420,0.565094,-0.137348,7.616028,-1.902473,0.016941,0.074615,0.566578,-1.644477,-0.954089,12.046391,1.008887,-1.796547,1,0,,38.990368,-76.939885,-9.348000,,,
2026-09-11T19:04:34.826,7.118550,1.804508,8.124718,16.708409,0.000000,-51.775540,17.812686,1.718003,0.285300,0.600632,-0.117870,7.674234,-1.900615,0.108436,-0.010284,0.602115,-2.626809,1.089127,4.603438,0.809235,-1.779832,1,0,,38.990368,-76.939885,-9.348000,,,
2026-09-11T19:04:34.859,7.151966,1.775601,8.183619,16.440747,0.000000,-57.210339,19.682456,1.671859,0.329369,0.693408,-0.096249,7.731633,-1.896463,0.046389,-0.317883,0.694892,-4.101239,-2.093426,6.351473,0.522561,-1.977492,1,0,,38.990368,-76.939885,-9.348000,,,
2026-09-11T19:04:34.893,7.185386,1.756399,8.242054,16.262952,0.000000,-58.456601,20.111216,1.649306,0.311346,0.655466,-0.073710,7.787838,-1.890511,0.072431,-0.021594,0.656949,-0.849648,-0.475721,8.264064,0.450966,-2.063234,1,0,,38.990368,-76.939885,-9.348000,,,
2026-09-11T19:04:34.926,7.218807,1.727589,8.300443,15.996195,0.000000,-59.985074,20.637067,1.616733,0.311172,0.655099,-0.051810,7.842956,-1.883558,0.158248,0.079276,0.656582,0.211431,0.464541,11.755035,0.444845,-2.085750,1,0,,38.990368,-76.939885,-9.348000,,,
2026-09-11T19:04:34.959,7.252227,1.747478,8.358513,16.180350,0.000000,-61.103619,21.021887,1.631172,0.319939,0.673555,-0.029608,7.897608,-1.875228,0.136371,-0.027788,0.675039,1.203766,-0.041482,9.869609,0.499067,-2.143328,1,0,,38.990368,-76.939885,-9.348000,,,
2026-09-11T19:04:34.993,7.285649,1.728157,8.416127,16.001453,0.000000,-62.264737,21.421354,1.608775,0.320390,0.674504,-0.007081,7.951934,-1.865527,0.108466,0.054539,0.675988,-0.187993,1.576419,10.499882,0.457926,-2.094672,1,0,,38.990368,-76.939885,-9.348000,,,
2026-09-11T19:04:35.026,7.319073,1.747779,8.474482,16.183136,0.000000,-63.549451,21.863343,1.622069,0.334325,0.703842,0.015955,8.005873,-1.854344,0.135498,0.098912,0.705325,0.637530,1.414609,13.183766,0.465519,-2.060686,1,0,,38.990368,-76.939885,-9.348000,,,
2026-09-11T19:04:35.059,7.352491,1.748295,8.532712,16.187921,0.000000,-67.404965,23.189782,1.607043,0.340819,0.717514,0.039704,8.059488,-1.841570,0.078990,0.113820,0.718997,-0.241832,1.090303,10.618543,0.411767,-2.048811,1,0,,38.990368,-76.939885,-9.348000,,,
2026-09-11T19:04:35.093,7.385909,1.778004,8.592320,16.462997,0.000000,-69.541806,23.924933,1.625233,0.367438,0.773555,0.064618,8.112796,-1.826934,0.232756,0.066318,0.775038,-0.261347,1.201119,7.805407,0.350936,-2.036634,1,0,,38.990368,-76.939885,-9.348000,,,
2026-09-11T19:04:35.126,7.419332,1.778524,8.651916,16.467818,0.000000,-69.639310,23.958478,1.625287,0.351610,0.740231,0.089916,8.166027,-1.810761,0.099039,0.118593,0.741714,0.592322,0.301162,11.470544,0.339065,-2.079340,1,0,,38.990368,-76.939885,-9.348000,,,
2026-09-11T19:04:35.160,7.452755,1.808243,8.712367,16.742989,0.000000,-69.585751,23.940052,1.652681,0.355791,0.749035,0.114803,8.219305,-1.793400,-0.013249,-0.013698,0.750518,0.806695,1.846592,13.079031,0.337511,-2.023795,1,0,,38.990368,-76.939885,-9.348000,,,
2026-09-11T19:04:35.193,7.486176,1.818146,8.773115,16.834681,0.000000,-69.640683,23.958951,1.661488,0.360667,0.759299,0.140009,8.272712,-1.774487,0.019057,0.018391,0.760782,1.723225,4.322085,10.557643,0.400736,-1.810182,1,1,7.477685,38.990363,-76.939900,-9.061000,-7.996606,-1.697761,4.940571
2026-09-11T19:04:35.227,7.519598,1.837417,8.834717,17.013118,0.000000,-69.581631,23.938635,1.679363,0.375063,0.789606,0.165892,8.326007,-1.753829,0.007318,0.085146,0.791090,1.496201,3.904027,7.124924,0.454171,-1.630176,1,0,,38.990363,-76.939900,-9.061000,,,
2026-09-11T19:04:35.260,7.553019,1.876307,8.897697,17.373217,0.000000,-69.588498,23.940997,1.714877,0.385239,0.811030,0.192640,8.379545,-1.731208,-0.111836,-0.116089,0.812514,5.277057,3.004463,7.258784,0.753289,-1.514582,1,0,,38.990363,-76.939900,-9.061000,,,
2026-09-11T19:04:35.294,7.586440,1.925556,8.962181,17.829223,0.000000,-69.585751,23.940052,1.759901,0.393541,0.828507,0.220037,8.433703,-1.706567,-0.035513,0.009453,0.829991,5.366003,7.536901,8.611612,1.056008,-1.111342,1,0,,38.990363,-76.939900,-9.061000,,,
2026-09-11T19:04:35.327,7.619866,1.964524,9.028192,18.190038,0.000000,-69.714841,23.984463,1.794899,0.419391,0.882929,0.248640,8.488321,-1.679553,-0.168597,0.015146,0.884413,0.628410,-1.905138,10.412015,1.048844,-1.331777,1,0,,38.990363,-76.939900,-9.061000,,,
2026-09-11T19:04:35.360,7.653281,1.984152,9.094875,18.371775,0.000000,-70.802487,24.358654,1.807526,0.433119,0.911830,0.278626,8.542708,-1.650118,-0.020265,0.201244,0.913313,0.246245,0.205744,1.162971,1.018991,-1.417240,1,0,,38.990363,-76.939900,-9.061000,,,
2026-09-11T19:04:35.394,7.686705,2.023383,9.164144,18.735027,0.000000,-72.502621,24.943562,1.834649,0.443570,0.933831,0.309471,8.596706,-1.618452,0.034197,0.058378,0.935314,-2.285146,5.779059,1.183270,0.829174,-1.145311,1,0,,38.990363,-76.939900,-9.061000,,,
2026-09-11T19:04:35.427,7.720129,2.014199,9.230565,18.649987,0.000000,-75.699643,26.043455,1.809679,0.465888,0.980816,0.341469,8.649543,-1.584589,0.137184,-0.034739,0.982300,-0.426001,0.942713,6.102580,0.764796,-1.193373,1,0,,38.990363,-76.939900,-9.061000,,,
2026-09-11T19:04:35.461,7.753545,1.956767,9.295790,18.118211,0.000000,-80.416897,27.666364,1.733042,0.455520,0.958989,0.373879,8.699602,-1.549469,0.155473,-0.085542,0.960472,-2.500892,2.035272,8.091271,0.568560,-1.162894,1,0,,38.990363,-76.939900,-9.061000,,,
2026-09-11T19:04:35.494,7.786982,1.947515,9.360628,18.032547,0.000000,-82.243374,28.294739,1.714828,0.455947,0.959888,0.405960,8.747122,-1.513472,0.133794,-0.048403,0.961372,-3.786250,3.177159,11.039052,0.296390,-1.057780,1,0,,38.990363,-76.939900,-9.061000,,,
2026-09-11T19:04:35.528,7.820402,1.938151,9.425021,17.945841,0.000000,-82.761792,28.473094,1.703714,0.479645,1.009778,0.438873,8.792804,-1.475805,0.249351,-0.115259,1.011262,-1.352631,-2.329276,10.961972,0.191527,-1.314986,1,0,,38.990363,-76.939900,-9.061000,,,
2026-09-11T19:04:35.561,7.853824,1.928511,9.490154,17.856586,0.000000,-82.538632,28.396318,1.696471,0.468893,0.987143,0.472244,8.836854,-1.436577,0.144571,0.086034,0.988626,1.493847,-6.206531,5.748266,0.277415,-1.817351,1,0,,38.990363,-76.939900,-9.061000,,,
2026-09-11T19:04:35.594,7.887246,1.928511,9.554559,17.856586,0.000000,-82.043561,28.225996,1.699190,0.456846,0.961781,0.504812,8.879697,-1.396288,0.063723,-0.009419,0.963264,0.697057,5.263327,8.387628,0.316934,-1.569244,1,0,,38.990363,-76.939900,-9.061000,,,
2026-09-11T19:04:35.628,7.920666,1.908969,9.618337,17.675638,0.000000,-81.703671,28.109061,1.683811,0.425051,0.894845,0.535836,8.921423,-1.355402,0.039874,-0.021605,0.896328,0.250756,2.189825,11.999613,0.331205,-1.514549,1,0,,38.990363,-76.939900,-9.061000,,,
2026-09-11T19:04:35.662,7.954085,1.880373,9.681078,17.410857,0.000000,-79.877881,27.480922,1.668200,0.433951,0.913581,0.566054,8.961628,-1.313860,-0.128976,0.048317,0.915065,0.890836,-8.462158,7.040194,0.384453,-2.150924,1,0,,38.990363,-76.939900,-9.061000,,,
2026-09-11T19:04:35.695,7.987505,1.880751,9.744161,17.414357,0.000000,-78.388547,26.968537,1.676230,0.406089,0.854924,0.595606,9.000646,-1.271459,-0.103774,0.013799,0.856408,0.944773,4.954810,9.747810,0.433645,-1.906049,1,0,,38.990363,-76.939900,-9.061000,,,
2026-09-11T19:04:35.728,8.020923,1.871285,9.806560,17.326715,0.000000,-78.606900,27.043658,1.666680,0.414076,0.871739,0.624457,9.038573,-1.228234,-0.032983,0.069746,0.873222,-0.283608,0.902604,9.347797,0.395400,-1.927438,1,0,,38.990363,-76.939900,-9.061000,,,
2026-09-11T19:04:35.761,8.054346,1.852119,9.868105,17.149249,0.000000,-78.925503,27.153270,1.647995,0.417520,0.878988,0.653714,9.074743,-1.184048,-0.025538,0.037587,0.880472,-1.430594,-8.258965,7.659974,0.279632,-2.541387,1,0,,38.990363,-76.939900,-9.061000,,,
2026-09-11T19:04:35.795,8.087766,1.862537,9.930755,17.245709,0.000000,-80.973767,27.857947,1.646685,0.417184,0.878282,0.683078,9.109303,-1.138989,-0.036941,-0.308031,0.879765,-2.287990,3.964338,3.857348,0.106322,-2.357111,1,0,,38.990363,-76.939900,-9.061000,,,
2026-09-11T19:04:35.828,8.121183,1.863431,9.992562,17.253991,0.000000,-81.050671,27.884405,1.647074,0.441715,0.929926,0.713290,9.142225,-1.092629,-0.086504,-0.114104,0.931410,-0.621938,-1.999184,2.513444,0.039870,-2.566434,1,0,,38.990363,-76.939900,-9.061000,,,
2026-09-11T19:04:35.862,8.154601,1.805651,10.052910,16.718991,0.000000,-80.556973,27.714555,1.598499,0.405177,0.853005,0.743081,9.173296,-1.045983,0.072951,0.029459,0.854488,-2.342809,3.490285,4.625110,-0.141280,-2.407214,1,0,,38.990363,-76.939900,-9.061000,,,
2026-09-11T19:04:35.895,8.188017,1.816126,10.114125,16.815978,0.000000,-77.415570,26.633797,1.623416,0.399141,0.840296,0.771373,9.203181,-0.999238,0.109505,-0.031105,0.841780,0.596342,7.234268,10.393970,-0.134260,-2.007522,1,0,,38.990363,-76.939900,-9.061000,,,
2026-09-11T19:04:35.928,8.221437,1.797044,10.174132,16.639300,0.000000,-70.910290,24.395742,1.636594,0.370376,0.779738,0.798444,9.232631,-0.951639,0.182797,0.059775,0.781222,1.502085,-1.406470,11.463582,-0.070224,-2.165797,1,0,,38.990363,-76.939900,-9.061000,,,
2026-09-11T19:04:35.963,8.254854,1.787340,10.233797,16.549440,0.000000,-70.491437,24.251641,1.629607,0.349073,0.734890,0.823751,9.261502,-0.903793,0.140989,-0.055857,0.736374,2.444798,0.413841,9.993173,0.051494,-2.199419,1,0,,38.990363,-76.939900,-9.061000,,,
2026-09-11T19:04:35.995,8.288277,1.797341,10.293929,16.642047,0.000000,-66.697720,22.946463,1.655117,0.339350,0.714422,0.847971,9.289770,-0.855354,0.136986,0.019511,0.715905,1.346257,-1.271628,13.612023,0.098514,-2.340804,1,0,,38.990363,-76.939900,-9.061000,,,
2026-09-11T19:04:36.029,8.321698,1.778329,10.353400,16.466013,0.000000,-61.959180,21.316231,1.656671,0.336231,0.707856,0.871738,9.317326,-0.806056,0.084243,0.082693,0.709339,-2.499029,-0.225553,9.607281,-0.105332,-2.412271,1,0,,38.990363,-76.939900,-9.061000,,,
2026-09-11T19:04:36.063,8.355123,1.788672,10.413031,16.561774,0.000000,-56.093854,19.298344,1.688167,0.294960,0.620968,0.893946,9.344671,-0.756165,0.060122,-0.020306,0.622452,1.389406,-0.094536,5.971760,-0.054608,-2.466424,1,0,,38.990363,-76.939900,-9.061000,,,
2026-09-11T19:04:36.095,8.388546,1.779133,10.472445,16.473454,0.000000,-50.426282,17.348491,1.698198,0.254162,0.535079,0.913265,9.372481,-0.706026,-0.028565,-0.068148,0.536562,-0.326856,0.030499,7.233777,-0.116210,-2.502839,1,0,,38.990363,-76.939900,-9.061000,,,
2026-09-11T19:04:36.129,8.421965,1.798953,10.532463,16.656968,0.000000,-43.627804,15.009566,1.737577,0.228171,0.480361,0.930233,9.400757,-0.655414,0.097460,0.051178,0.481844,1.295262,1.979276,11.390130,-0.070640,-2.407903,1,0,,38.990363,-76.939900,-9.061000,,,
2026-09-11T19:04:36.163,8.455387,1.780119,10.592140,16.482582,0.000000,-39.051999,13.435321,1.731402,0.201381,0.423959,0.945345,9.429265,-0.604429,0.063473,0.018270,0.425443,-0.334701,-6.670287,6.370204,-0.128175,-2.867511,1,0,,38.990363,-76.939900,-9.061000,,,
2026-09-11T19:04:36.196,8.488810,1.790483,10.652215,16.578542,0.000000,-33.643292,11.574527,1.754072,0.167894,0.353461,0.958337,9.458033,-0.553403,0.034689,-0.034027,0.354944,-1.443931,1.622314,9.470576,-0.257192,-2.777715,1,1,8.467450,38.990349,-76.939906,-9.032000,-8.541093,-3.293408,5.207473
2026-09-11T19:04:36.229,8.522232,1.800667,10.711823,16.672839,0.000000,-30.322674,10.432113,1.770902,0.145530,0.306378,0.969363,9.487328,-0.502029,0.014030,-0.014473,0.307862,-0.223297,-1.486394,11.983628,-0.302732,-2.885207,1,0,,38.990349,-76.939906,-9.032000,,,
2026-09-11T19:04:36.263,8.555654,1.781762,10.771374,16.497792,0.000000,-25.836133,8.888578,1.760364,0.131902,0.277689,0.979124,9.516645,-0.450607,-0.058214,-0.043843,0.279173,0.724319,0.574670,6.811895,-0.279149,-2.854564,1,0,,38.990349,-76.939906,-9.032000,,,
2026-09-11T19:04:36.296,8.589081,1.782377,10.830789,16.503492,0.000000,-18.329037,6.305861,1.771593,0.109046,0.229572,0.987602,9.546009,-0.399238,-0.007474,-0.052929,0.231055,0.530736,1.992123,11.322660,-0.260183,-2.727142,1,0,,38.990349,-76.939906,-9.032000,,,
2026-09-11T19:04:36.329,8.622503,1.763195,10.889838,16.325881,0.000000,-19.113873,6.575874,1.751595,0.084399,0.177682,0.994407,9.575562,-0.348212,-0.004405,0.020365,0.179166,-1.075103,6.245561,11.410822,-0.341119,-2.319603,1,0,,38.990349,-76.939906,-9.032000,,,
2026-09-11T19:04:36.363,8.655926,1.743489,10.947851,16.143414,0.000000,-18.316678,6.301609,1.732954,0.074504,0.156850,0.999998,9.604932,-0.297859,0.036915,0.092382,0.158334,-1.603682,4.356506,12.056982,-0.454253,-2.036384,1,0,,38.990349,-76.939906,-9.032000,,,
2026-09-11T19:04:36.396,8.689349,1.714394,11.005272,15.874019,0.000000,-16.999005,5.848282,1.705471,0.080264,0.168977,1.005443,9.633667,-0.248033,0.046610,0.052291,0.170461,0.405995,-3.178139,11.551842,-0.435219,-2.245090,1,0,,38.990349,-76.939906,-9.032000,,,
2026-09-11T19:04:36.430,8.722771,1.734279,11.063171,16.058138,0.000000,-16.758679,5.765601,1.725505,0.063960,0.134653,1.010517,9.662221,-0.198254,0.023569,0.066325,0.136137,-1.502869,3.664843,14.061363,-0.540255,-2.004922,1,0,,38.990349,-76.939906,-9.032000,,,
2026-09-11T19:04:36.463,8.756194,1.724917,11.120318,15.971449,0.000000,-16.746319,5.761348,1.716203,0.068224,0.143630,1.015167,9.690799,-0.148292,-0.050724,-0.049238,0.145114,1.181799,-2.187177,8.038903,-0.469781,-2.147129,1,0,,38.990349,-76.939906,-9.032000,,,
2026-09-11T19:04:36.497,8.789613,1.706027,11.176543,15.796549,0.000000,-16.640576,5.724969,1.697518,0.067569,0.142250,1.019944,9.718842,-0.098567,0.024207,-0.187191,0.143734,-0.827779,0.103362,20.108732,-0.529890,-2.139170,1,0,,38.990349,-76.939906,-9.032000,,,
2026-09-11T19:04:36.530,8.823039,1.638353,11.232163,15.169931,0.000000,-16.019162,5.511180,1.630779,0.071716,0.150982,1.024845,9.745857,-0.049886,0.073494,0.223580,0.152465,5.439259,-6.541722,10.688464,-0.184811,-2.561834,1,0,,38.990349,-76.939906,-9.032000,,,
2026-09-11T19:04:36.564,8.856462,1.609699,11.285653,14.904622,0.000000,-14.058789,4.836739,1.603967,0.063206,0.133065,1.029592,9.771886,-0.002455,-0.066437,0.100322,0.134548,-0.315774,-6.532504,9.558934,-0.218726,-2.977154,1,0,,38.990349,-76.939906,-9.032000,,,
2026-09-11T19:04:36.597,8.889888,1.610147,11.339792,14.908764,0.000000,-11.993359,4.126156,1.605973,0.045829,0.096483,1.033429,9.797872,0.044515,0.065737,0.017477,0.097966,-0.401582,-3.864703,9.878435,-0.260451,-3.211417,1,0,,38.990349,-76.939906,-9.032000,,,
2026-09-11T19:04:36.630,8.923307,1.640116,11.394524,15.186260,0.000000,-11.846417,4.075602,1.635968,0.040193,0.084616,1.036455,9.824294,0.091828,0.005928,-0.018597,0.086100,1.937794,1.654872,10.244517,-0.152703,-3.084506,1,0,,38.990349,-76.939906,-9.032000,,,
2026-09-11T19:04:36.664,8.956732,1.630841,11.450338,15.100379,0.000000,-11.753720,4.043711,1.626781,0.040114,0.084450,1.039280,9.850842,0.139475,0.003254,-0.021219,0.085934,2.520897,-3.211776,6.333233,-0.006402,-3.274150,1,0,,38.990349,-76.939906,-9.032000,,,
2026-09-11T19:04:36.697,8.990156,1.660755,11.504467,15.377365,0.000000,-11.525754,3.965282,1.656780,0.049554,0.104324,1.042435,9.877286,0.187581,0.081115,0.067593,0.105807,3.192359,0.695684,6.456208,0.186178,-3.210878,1,0,,38.990349,-76.939906,-9.032000,,,
2026-09-11T19:04:36.731,9.023575,1.661090,11.559962,15.380463,0.000000,-10.280865,3.536995,1.657926,0.048265,0.101610,1.045876,9.903713,0.236286,-0.039780,0.022279,0.103094,0.167301,-0.521714,9.498525,0.181348,-3.226882,1,0,,38.990349,-76.939906,-9.032000,,,
2026-09-11T19:04:36.764,9.056995,1.661011,11.615582,15.379731,0.000000,-9.103268,3.131858,1.658530,0.026105,0.054958,1.048492,9.930346,0.284899,-0.037772,0.050251,0.056441,-0.469052,3.794977,8.436171,0.133527,-2.958145,1,0,,38.990349,-76.939906,-9.032000,,,
2026-09-11T19:04:36.799,9.090437,1.680272,11.672866,15.558078,0.000000,-8.334225,2.867279,1.678169,0.029054,0.061167,1.050434,9.957333,0.333740,0.024380,0.003300,0.062651,-1.278395,3.593353,10.844292,0.038260,-2.706063,1,0,,38.990349,-76.939906,-9.032000,,,
2026-09-11T19:04:36.831,9.123856,1.690270,11.728008,15.650649,0.000000,-6.903256,2.374973,1.688818,0.018973,0.039944,1.052123,9.984568,0.382977,0.019462,0.057604,0.041428,0.526617,4.675026,11.608426,0.064315,-2.384686,1,0,,38.990349,-76.939906,-9.032000,,,
2026-09-11T19:04:36.864,9.157308,1.680933,11.783845,15.564198,0.000000,-4.962109,1.707148,1.680187,0.018753,0.039479,1.053452,10.011922,0.432247,-0.028063,0.027758,0.040963,-0.201919,1.848750,11.672954,0.038598,-2.249647,1,0,,38.990349,-76.939906,-9.032000,,,
2026-09-11T19:04:36.897,9.190729,1.681199,11.840354,15.566654,0.000000,-3.645810,1.254292,1.680796,0.008109,0.017071,1.054397,10.039285,0.481295,-0.059328,0.003549,0.018554,1.596032,0.858474,6.527895,0.129663,-2.177902,1,0,,38.990349,-76.939906,-9.032000,,,
2026-09-11T19:04:36.931,9.224146,1.642684,11.895542,15.210037,0.000000,-3.155545,1.085623,1.642389,0.045362,0.095500,1.056278,10.065879,0.530046,0.053752,0.096148,0.096983,4.073192,-6.993122,2.890412,0.386525,-2.623471,1,0,,38.990349,-76.939906,-9.032000,,,
2026-09-11T19:04:36.965,9.257565,1.623901,11.949237,15.036123,0.000000,-3.654050,1.257127,1.623510,-0.037163,-0.078237,1.056566,10.092608,0.577623,0.044794,0.068697,-0.076754,-2.128435,0.121406,5.440337,0.243471,-2.585210,1,0,,38.990349,-76.939906,-9.032000,,,
2026-09-11T19:04:36.998,9.290986,1.604822,12.003160,14.859462,0.000000,-3.972653,1.366738,1.604365,-0.011143,-0.023459,1.054867,10.119881,0.624167,0.024326,0.007176,-0.021975,-1.896116,2.217578,10.149981,0.116520,-2.417455,1,0,,38.990349,-76.939906,-9.032000,,,
2026-09-11T19:04:37.031,9.324407,1.566679,12.055351,14.506287,0.000000,-2.984570,1.026802,1.566427,-0.021209,-0.044650,1.053729,10.146517,0.669974,0.028158,0.102327,-0.043166,-3.263163,-2.505893,10.839094,-0.097581,-2.555262,1,0,,38.990349,-76.939906,-9.032000,,,
2026-09-11T19:04:37.065,9.357824,1.441258,12.103634,13.344982,0.000000,-1.170453,0.402679,1.441222,0.008246,0.017359,1.053273,10.171557,0.713545,-0.071807,0.028383,0.018843,2.646521,-1.709299,2.214538,0.074602,-2.646111,1,0,,38.990349,-76.939906,-9.032000,,,
2026-09-11T19:04:37.098,9.391240,1.490226,12.153251,13.798386,0.000000,0.137607,-0.047342,1.490225,-0.015750,-0.033158,1.053009,10.195902,0.756044,-0.034916,-0.086761,-0.031674,3.174805,-1.567397,8.369584,0.279803,-2.721951,1,0,,38.990349,-76.939906,-9.032000,,,
2026-09-11T19:04:37.131,9.424665,1.539471,12.204907,14.254359,0.000000,0.491916,-0.169237,1.539464,-0.032128,-0.067637,1.051324,10.221697,0.799623,0.015948,-0.041948,-0.066154,-0.653711,2.666036,9.966204,0.233595,-2.519302,1,0,,38.990349,-76.939906,-9.032000,,,
2026-09-11T19:04:37.165,9.458085,1.510671,12.256050,13.987692,0.000000,1.648227,-0.567051,1.510597,-0.001038,-0.002186,1.050157,10.247504,0.843576,0.060899,0.056694,-0.000702,-0.688133,4.276288,9.653863,0.181297,-2.221248,1,1,9.461155,38.990333,-76.939909,-9.184000,-8.724173,-5.013779,6.098878
2026-09-11T19:04:37.198,9.491502,1.462119,12.303832,13.538140,0.000000,4.604236,-1.584026,1.461560,-0.019847,-0.041782,1.049423,10.272525,0.886474,-0.039489,0.028004,-0.040299,1.028325,2.457154,8.471377,0.233893,-2.040556,1,0,,38.990333,-76.939909,-9.184000,,,
2026-09-11T19:04:37.232,9.524924,1.471757,12.352970,13.627378,0.000000,5.593692,-1.924435,1.470927,-0.015724,-0.033104,1.048171,10.297475,0.928656,-0.110823,0.038671,-0.031620,0.563098,-4.854782,11.337076,0.250822,-2.335944,1,0,,38.990333,-76.939909,-9.184000,,,
2026-09-11T19:04:37.265,9.558336,1.472271,12.402746,13.632139,0.000000,5.208484,-1.791910,1.471551,-0.005956,-0.012539,1.047409,10.322342,0.971061,-0.000628,0.042235,-0.011055,-0.587516,-3.623459,8.875116,0.188746,-2.550270,1,0,,38.990333,-76.939909,-9.184000,,,
2026-09-11T19:04:37.299,9.591764,1.492258,12.453251,13.817204,0.000000,3.994495,-1.374253,1.491829,-0.008623,-0.018154,1.046896,10.347320,1.013832,-0.005174,-0.034141,-0.016670,-0.724613,-2.224148,10.377986,0.105404,-2.671173,1,0,,38.990333,-76.939909,-9.184000,,,
2026-09-11T19:04:37.333,9.625179,1.482992,12.502913,13.731409,0.000000,3.019458,-1.038804,1.482748,0.006102,0.012846,1.046807,10.372220,1.056841,-0.027183,-0.016801,0.014330,0.374124,-0.505141,11.317757,0.084255,-2.682401,1,0,,38.990333,-76.939909,-9.184000,,,
2026-09-11T19:04:37.365,9.658595,1.483156,12.552438,13.732929,0.000000,2.551853,-0.877931,1.482982,0.018511,0.038971,1.047673,10.396638,1.099961,-0.076741,-0.091878,0.040455,2.453526,-4.120264,4.871355,0.198723,-2.930066,1,0,,38.990333,-76.939909,-9.184000,,,
2026-09-11T19:04:37.399,9.692013,1.493338,12.602624,13.827203,0.000000,0.805026,-0.276959,1.493320,-0.001529,-0.003220,1.048270,10.421224,1.143190,-0.121626,-0.026701,-0.001736,2.141772,1.401959,8.758123,0.286221,-2.813401,1,0,,38.990333,-76.939909,-9.184000,,,
2026-09-11T19:04:37.433,9.725440,1.513138,12.653311,14.010534,0.000000,-1.716336,0.590483,1.513057,0.019824,0.041734,1.048914,10.446022,1.186893,-0.076133,0.007755,0.043218,1.170031,-0.206430,8.430189,0.299229,-2.806569,1,0,,38.990333,-76.939909,-9.184000,,,
2026-09-11T19:04:37.466,9.758851,1.542542,12.704340,14.282793,0.000000,-4.286450,1.474696,1.542031,0.026369,0.055513,1.050539,10.470759,1.231542,0.003413,-0.011425,0.056996,1.625845,3.559618,14.655352,0.335365,-2.557498,1,0,,38.990333,-76.939909,-9.184000,,,
2026-09-11T19:04:37.499,9.792272,1.552783,12.756030,14.377621,0.000000,-5.834836,2.007398,1.551830,0.036619,0.077094,1.052755,10.495496,1.276952,-0.066743,-0.039592,0.078577,1.221418,3.790761,8.120985,0.340686,-2.298393,1,0,,38.990333,-76.939909,-9.184000,,,
2026-09-11T19:04:37.533,9.825700,1.553151,12.808313,14.381031,0.000000,-7.215680,2.482459,1.551694,0.074706,0.157276,1.056672,10.519474,1.322985,0.005019,-0.036669,0.158759,2.279850,-1.195333,5.055230,0.410993,-2.373009,1,0,,38.990333,-76.939909,-9.184000,,,
2026-09-11T19:04:37.566,9.859118,1.592773,12.861700,14.747896,0.000000,-8.877362,3.054138,1.590510,0.037362,0.078656,1.060614,10.543571,1.369671,0.096472,0.076146,0.080140,0.872302,-0.225651,15.131857,0.388161,-2.376312,1,0,,38.990333,-76.939909,-9.184000,,,
2026-09-11T19:04:37.599,9.892537,1.632018,12.916102,15.111276,0.000000,-10.171689,3.499434,1.628975,0.047785,0.100600,1.063609,10.568527,1.417349,-0.018048,-0.004399,0.102084,2.177665,0.692840,12.040703,0.448106,-2.322634,1,0,,38.990333,-76.939909,-9.184000,,,
2026-09-11T19:04:37.633,9.925960,1.680885,12.972223,15.563748,0.000000,-10.736798,3.693853,1.677393,0.081460,0.171495,1.068156,10.593363,1.466752,0.023661,-0.023142,0.172978,2.055768,-1.637514,11.653537,0.499244,-2.428421,1,0,,38.990333,-76.939909,-9.184000,,,
2026-09-11T19:04:37.666,9.959374,1.739114,13.030635,16.102910,0.000000,-11.479748,3.949455,1.734984,0.077183,0.162490,1.073736,10.618359,1.518059,0.084197,0.021706,0.163974,1.104523,2.122846,12.175054,0.492382,-2.289265,1,0,,38.990333,-76.939909,-9.184000,,,
2026-09-11T19:04:37.700,9.992796,1.768296,13.089958,16.373113,0.000000,-12.441052,4.280178,1.763364,0.101138,0.212922,1.080010,10.643449,1.570945,0.016224,0.019929,0.214405,1.902098,-4.737298,4.651785,0.542144,-2.601787,1,0,,38.990333,-76.939909,-9.184000,,,
2026-09-11T19:04:37.733,10.026215,1.797917,13.150273,16.647383,0.000000,-13.643368,4.693819,1.791888,0.088391,0.186086,1.086677,10.668474,1.624918,0.043020,0.015750,0.187570,1.416276,1.245052,7.792364,0.566055,-2.520831,1,0,,38.990333,-76.939909,-9.184000,,,
2026-09-11T19:04:37.766,10.059627,1.846996,13.212103,17.101811,0.000000,-15.521344,5.339912,1.838980,0.093552,0.196951,1.093076,10.693837,1.680100,0.071774,-0.063438,0.198435,0.961738,1.105700,4.804572,0.565241,-2.451675,1,0,,38.990333,-76.939909,-9.184000,,,
2026-09-11T19:04:37.800,10.093070,1.876144,13.274741,17.371705,0.000000,-16.092633,5.536456,1.867392,0.084146,0.177148,1.099331,10.719514,1.736585,0.008513,0.006594,0.178632,0.538777,-3.333869,18.124651,0.542684,-2.668795,1,0,,38.990333,-76.939909,-9.184000,,,
2026-09-11T19:04:37.833,10.126489,1.876520,13.337323,17.375188,0.000000,-15.670346,5.391174,1.868219,0.060316,0.126981,1.104413,10.745570,1.793360,-0.030391,0.033300,0.128465,2.576697,-1.640751,10.014453,0.662414,-2.767702,1,0,,38.990333,-76.939909,-9.184000,,,
2026-09-11T19:04:37.867,10.159906,1.896561,13.400577,17.560754,0.000000,-13.828763,4.757602,1.890027,0.064847,0.136519,1.108816,10.771812,1.850445,-0.058219,-0.076133,0.138002,-1.593973,-0.010199,6.753840,0.521210,-2.761290,1,0,,38.990333,-76.939909,-9.184000,,,
2026-09-11T19:04:37.901,10.193319,1.887508,13.463602,17.476922,0.000000,-11.949414,4.111037,1.882651,0.040136,0.084496,1.112508,10.798230,1.907698,-0.032842,-0.046195,0.085980,-1.278983,1.423533,8.050377,0.412533,-2.655737,1,0,,38.990333,-76.939909,-9.184000,,,
2026-09-11T19:04:37.934,10.226732,1.858775,13.526366,17.210882,0.000000,-10.263013,3.530853,1.855247,0.048890,0.102927,1.115640,10.824435,1.964400,-0.074000,-0.041601,0.104410,0.457088,-1.207983,14.003504,0.425428,-2.723759,1,0,,38.990333,-76.939909,-9.184000,,,
2026-09-11T19:04:37.967,10.260147,1.859139,13.588253,17.214254,0.000000,-9.776181,3.363365,1.855937,0.039151,0.082424,1.118736,10.850284,2.020778,-0.080079,-0.026974,0.083907,1.150222,0.792573,11.271077,0.489750,-2.659067,1,0,,38.990333,-76.939909,-9.184000,,,
2026-09-11T19:04:38.001,10.293569,1.801350,13.649057,16.679164,0.000000,-9.573620,3.293677,1.798374,0.033918,0.071406,1.121307,10.875792,2.076278,-0.030171,-0.009156,0.072889,0.249972,2.088032,8.424109,0.501739,-2.509614,1,0,,38.990333,-76.939909,-9.184000,,,
2026-09-11T19:04:38.034,10.327004,1.791730,13.708403,16.590092,0.000000,-9.869565,3.395492,1.788584,0.055185,0.116180,1.124443,10.900419,2.130972,0.070565,-0.075949,0.117663,-0.615563,10.264621,9.973952,0.462923,-1.837463,1,0,,38.990333,-76.939909,-9.184000,,,
2026-09-11T19:04:38.068,10.360426,1.752636,13.766371,16.228108,0.000000,-9.998654,3.439904,1.749478,0.061215,0.128874,1.128538,10.924077,2.185191,0.129292,0.064839,0.130357,-1.279278,4.640017,11.158007,0.384577,-1.538298,1,0,,38.990333,-76.939909,-9.184000,,,
2026-09-11T19:04:38.101,10.393836,1.714026,13.824156,15.870607,0.000000,-9.882611,3.399981,1.711009,0.044498,0.093680,1.132256,10.947124,2.238234,-0.013137,-0.016211,0.095163,-1.337921,6.479940,6.505241,0.302781,-1.119350,1,0,,38.990333,-76.939909,-9.184000,,,
2026-09-11T19:04:38.133,10.427252,1.675697,13.880061,15.515710,0.000000,-10.017880,3.446518,1.672666,0.026194,0.055145,1.134742,10.969997,2.289949,0.092586,0.017666,0.056629,-0.649494,6.029815,10.306201,0.264192,-0.729705,1,0,,38.990333,-76.939909,-9.184000,,,
2026-09-11T19:04:38.167,10.460674,1.656695,13.935602,15.339767,0.000000,-9.533795,3.279975,1.653981,0.071037,0.149553,1.138163,10.991917,2.341062,0.060721,-0.100076,0.151036,2.169035,-10.764760,3.251101,0.406398,-1.441104,1,0,,38.990333,-76.939909,-9.184000,,,
2026-09-11T19:04:38.201,10.494083,1.637614,13.989958,15.163090,0.000000,-7.661999,2.636009,1.635881,0.020137,0.042393,1.141369,11.013495,2.391629,-0.127764,0.048149,0.043877,3.233841,-7.603096,2.222285,0.614272,-1.928393,1,1,10.481641,38.990318,-76.939909,-9.213000,-8.724173,-6.678367,5.681489
2026-09-11T19:04:38.234,10.527501,1.608798,14.043243,14.896278,0.000000,-6.711682,2.309065,1.607492,0.029438,0.061975,1.143113,11.035262,2.441265,0.086904,-0.049580,0.063458,-2.355165,-1.443049,7.882585,0.452270,-2.013756,1,0,,38.990318,-76.939909,-9.213000,,,
2026-09-11T19:04:38.267,10.560920,1.609220,14.096721,14.900183,0.000000,-6.703442,2.306230,1.607916,0.021397,0.045046,1.144902,11.056730,2.490525,-0.061176,-0.130530,0.046530,-0.095223,3.162743,11.323249,0.433431,-1.798339,1,0,,38.990318,-76.939909,-9.213000,,,
2026-09-11T19:04:38.300,10.594327,1.600221,14.149779,14.816864,0.000000,-5.926846,2.039053,1.599208,0.014844,0.031250,1.146176,11.078279,2.539573,-0.010337,-0.054361,0.032734,-2.989950,3.973949,10.793395,0.223543,-1.531483,1,0,,38.990318,-76.939909,-9.213000,,,
2026-09-11T19:04:38.335,10.627743,1.591043,14.202653,14.731880,0.000000,-3.888196,1.337682,1.590609,0.012612,0.026552,1.147142,11.099794,2.588336,-0.046810,-0.058468,0.028036,1.200530,-3.765950,10.691896,0.280984,-1.767823,1,0,,38.990318,-76.939909,-9.213000,,,
2026-09-11T19:04:38.368,10.661165,1.630500,14.256952,15.097221,0.000000,-0.643796,0.221489,1.630488,-0.013375,-0.028158,1.147115,11.121934,2.637398,0.027556,0.010423,-0.026675,-0.185444,3.272969,15.795866,0.243038,-1.540345,1,0,,38.990318,-76.939909,-9.213000,,,
2026-09-11T19:04:38.401,10.694585,1.640585,14.312459,15.190600,0.000000,4.109851,-1.413940,1.640085,-0.008331,-0.017538,1.146351,11.144753,2.687060,-0.023879,0.011981,-0.016055,1.491297,-0.119249,10.782902,0.309761,-1.536028,1,0,,38.990318,-76.939909,-9.213000,,,
2026-09-11T19:04:38.434,10.728002,1.631302,14.366951,15.104644,0.000000,7.285587,-2.506509,1.629741,-0.035447,-0.074625,1.144811,11.167956,2.736527,-0.041581,0.008519,-0.073141,0.640472,-2.921401,13.101979,0.318822,-1.707067,1,0,,38.990318,-76.939909,-9.213000,,,
2026-09-11T19:04:38.468,10.761416,1.641034,14.421581,15.194760,0.000000,7.337085,-2.524227,1.639442,-0.015100,-0.031790,1.143034,11.191339,2.785895,-0.032957,0.013495,-0.030307,1.802658,-2.716736,4.971874,0.401230,-1.867464,1,0,,38.990318,-76.939909,-9.213000,,,
2026-09-11T19:04:38.501,10.794833,1.660814,14.477235,15.377908,0.000000,7.262241,-2.498477,1.659235,-0.034022,-0.071625,1.141306,11.214992,2.835682,-0.042617,-0.007994,-0.070142,0.336074,7.309681,13.647229,0.385251,-1.373003,1,0,,38.990318,-76.939909,-9.213000,,,
2026-09-11T19:04:38.534,10.828253,1.651434,14.532560,15.291054,0.000000,7.165424,-2.465169,1.649905,-0.046508,-0.097911,1.138473,11.239312,2.885362,0.052326,0.035265,-0.096428,1.057255,-1.484629,11.139864,0.415569,-1.450302,1,0,,38.990318,-76.939909,-9.213000,,,
2026-09-11T19:04:38.568,10.861665,1.671439,14.588625,15.476290,0.000000,7.034961,-2.420285,1.669948,-0.011761,-0.024759,1.136423,11.263485,2.935288,-0.062717,-0.020750,-0.023276,2.125493,-3.800567,7.346652,0.512921,-1.684335,1,0,,38.990318,-76.939909,-9.213000,,,
2026-09-11T19:04:38.602,10.895079,1.671614,14.644667,15.477904,0.000000,6.999942,-2.408237,1.670137,-0.021793,-0.045879,1.135243,11.287507,2.985659,-0.001201,-0.016682,-0.044396,0.192995,-3.178139,9.657687,0.486018,-1.873249,1,0,,38.990318,-76.939909,-9.213000,,,
2026-09-11T19:04:38.635,10.928498,1.671813,14.700367,15.479755,0.000000,6.901752,-2.374456,1.670378,-0.031542,-0.066405,1.133367,11.311912,3.035866,0.039527,0.041091,-0.064921,1.407156,-1.004986,11.184190,0.542511,-1.917248,1,0,,38.990318,-76.939909,-9.213000,,,
2026-09-11T19:04:38.668,10.961911,1.681995,14.756523,15.574030,0.000000,7.054874,-2.427135,1.680486,-0.028181,-0.059328,1.131266,11.336584,3.086129,-0.002555,0.072995,-0.057845,-1.120998,-3.513232,13.210735,0.434539,-2.123790,1,0,,38.990318,-76.939909,-9.213000,,,
2026-09-11T19:04:38.702,10.995331,1.663070,14.812132,15.398801,0.000000,6.835147,-2.351541,1.661670,-0.022672,-0.047730,1.129477,11.361161,3.136283,0.013452,0.009831,-0.046247,1.429908,-6.967527,11.019929,0.489704,-2.553026,1,0,,38.990318,-76.939909,-9.213000,,,
2026-09-11T19:04:38.736,11.028745,1.663633,14.868345,15.404006,0.000000,6.996509,-2.407056,1.662165,-0.020366,-0.042876,1.127964,11.385568,3.186169,-0.058396,0.072012,-0.041392,2.174625,-5.021397,12.814350,0.591793,-2.852073,1,0,,38.990318,-76.939909,-9.213000,,,
2026-09-11T19:04:38.769,11.062160,1.673761,14.924159,15.497784,0.000000,6.945697,-2.389575,1.672305,-0.040350,-0.084947,1.125828,11.410410,3.236045,0.056074,0.011300,-0.083464,1.243974,-2.510601,9.999547,0.634357,-2.980712,1,0,,38.990318,-76.939909,-9.213000,,,
2026-09-11T19:04:38.802,11.095578,1.664491,14.979723,15.411957,0.000000,6.914111,-2.378708,1.663057,-0.041463,-0.087291,1.122950,11.435703,3.285724,-0.061735,-0.056412,-0.085807,0.724221,0.923885,12.583305,0.639039,-2.885348,1,0,,38.990318,-76.939909,-9.213000,,,
2026-09-11T19:04:38.835,11.128996,1.684384,15.036038,15.596149,0.000000,6.903125,-2.374928,1.682937,-0.019182,-0.040383,1.120817,11.460880,3.335653,-0.067591,-0.019763,-0.038900,0.336270,-6.692156,6.156027,0.610387,-3.289235,1,0,,38.990318,-76.939909,-9.213000,,,
2026-09-11T19:04:38.868,11.162414,1.665127,15.091499,15.417840,0.000000,6.927844,-2.383433,1.663686,-0.021302,-0.044846,1.119393,11.485847,3.385694,-0.032808,-0.011272,-0.043362,0.840822,-1.052646,5.217726,0.607196,-3.323017,1,0,,38.990318,-76.939909,-9.213000,,,
2026-09-11T19:04:38.903,11.195830,1.664763,15.147313,15.414469,0.000000,6.306430,-2.169643,1.663569,-0.024748,-0.052101,1.117773,11.510830,3.435361,-0.092929,-0.042075,-0.050617,2.242781,5.656280,6.257918,0.688568,-2.921190,1,0,,38.990318,-76.939909,-9.213000,,,
2026-09-11T19:04:38.936,11.229248,1.664816,15.203572,15.414967,0.000000,4.247180,-1.461186,1.664275,0.005045,0.010621,1.117080,11.535480,3.485204,-0.116964,-0.034105,0.012105,0.263897,0.008140,2.304857,0.633302,-2.896327,1,0,,38.990318,-76.939909,-9.213000,,,
2026-09-11T19:04:38.970,11.262662,1.713895,15.260696,15.869395,0.000000,2.236682,-0.769501,1.713740,-0.015352,-0.032319,1.116717,11.560381,3.535850,0.089302,0.055798,-0.030836,0.110913,6.275570,14.479225,0.563126,-2.461311,1,0,,38.990318,-76.939909,-9.213000,,,
2026-09-11T19:04:39.003,11.296071,1.704556,15.317843,15.782923,0.000000,0.441791,-0.151992,1.704550,0.005107,0.010752,1.116357,11.585590,3.587086,0.088848,0.300622,0.012236,1.490120,0.882697,1.642516,0.583149,-2.385001,1,0,,38.990318,-76.939909,-9.213000,,,
2026-09-11T19:04:39.036,11.329491,1.695246,15.375070,15.696725,0.000000,-2.202481,0.757734,1.695098,0.043765,0.092138,1.118076,11.609749,3.638507,0.113266,0.349761,0.093621,-3.639150,0.628999,-13.861308,0.272693,-2.334859,1,0,,38.990318,-76.939909,-9.213000,,,
2026-09-11T19:04:39.070,11.362906,1.773437,15.434815,16.420715,0.000000,-2.825955,0.972232,1.773182,0.013656,0.028749,1.120096,11.634179,3.691061,-0.090061,0.018193,0.030233,0.281941,-2.117354,14.215328,0.225396,-2.456225,1,0,,38.990318,-76.939909,-9.213000,,,
2026-09-11T19:04:39.103,11.396323,1.841840,15.496622,17.054077,0.000000,-3.458356,1.189801,1.841443,0.024249,0.051052,1.121429,11.659879,3.745718,-0.069956,0.013502,0.052535,2.793915,-0.770214,5.738950,0.348199,-2.491843,1,0,,38.990318,-76.939909,-9.213000,,,
2026-09-11T19:04:39.136,11.429742,1.890832,15.560058,17.507701,0.000000,-3.838757,1.320673,1.890329,0.017059,0.035914,1.122883,11.686303,3.802203,-0.148719,-0.046016,0.037398,0.652731,1.363321,7.481297,0.336530,-2.387268,1,0,,38.990318,-76.939909,-9.213000,,,
2026-09-11T19:04:39.171,11.463168,1.949728,15.625955,18.053036,0.000000,-3.960980,1.362723,1.949176,0.033400,0.070316,1.124658,11.713281,3.860431,0.070688,0.033289,0.071800,-0.191916,5.549976,8.911107,0.275893,-2.017283,1,1,11.454981,38.990304,-76.939908,-9.113000,-8.673037,-8.309412,6.856806
2026-09-11T19:04:39.205,11.496591,1.998860,15.693196,18.507963,0.000000,-4.148434,1.427214,1.998240,0.056901,0.119793,1.127835,11.740286,3.920636,-0.027386,0.068796,0.121276,0.420117,1.343217,7.233679,0.259415,-1.930376,1,0,,38.990304,-76.939908,-9.113000,,,
2026-09-11T19:04:39.237,11.530008,2.018689,15.759367,18.691568,0.000000,-4.898251,1.685178,2.017816,0.048726,0.102581,1.131551,11.767339,3.982069,-0.033481,0.118365,0.104064,-2.052728,-0.929278,10.812616,0.087412,-1.989416,1,0,,38.990304,-76.939908,-9.113000,,,
2026-09-11T19:04:39.270,11.563422,2.008963,15.826562,18.601509,0.000000,-6.244763,2.148428,2.007551,0.045097,0.094941,1.134851,11.794418,4.043649,-0.022544,0.084733,0.096424,-0.850335,1.294380,11.263918,-0.003570,-1.902845,1,0,,38.990304,-76.939908,-9.113000,,,
2026-09-11T19:04:39.304,11.596840,1.989698,15.893724,18.423126,0.000000,-7.185467,2.472064,1.987846,0.035933,0.075649,1.137701,11.821294,4.104774,0.059041,0.120412,0.077133,-0.550643,-3.125183,6.139649,-0.067275,-2.100642,1,0,,38.990304,-76.939908,-9.113000,,,
2026-09-11T19:04:39.337,11.630248,1.931963,15.956932,17.888550,0.000000,-7.846707,2.699555,1.929819,0.043591,0.091771,1.140498,11.847470,4.164767,0.021535,-0.136234,0.093255,-2.515112,5.972544,10.860473,-0.246150,-1.709319,1,0,,38.990304,-76.939908,-9.113000,,,
2026-09-11T19:04:39.369,11.663661,1.883920,16.019605,17.443699,0.000000,-7.983349,2.746565,1.881755,0.064784,0.136388,1.144309,11.872277,4.223440,0.020012,0.087581,0.137872,-2.071165,4.487719,13.883765,-0.388061,-1.423540,1,0,,38.990304,-76.939908,-9.113000,,,
2026-09-11T19:04:39.404,11.697076,1.826232,16.081412,16.909560,0.000000,-7.427167,2.555218,1.824417,0.080049,0.168525,1.149404,11.895544,4.280873,0.172627,0.124045,0.170009,1.091088,3.977381,11.428670,-0.317397,-1.177229,1,0,,38.990304,-76.939908,-9.113000,,,
2026-09-11T19:04:39.437,11.730490,1.797266,16.141179,16.641355,0.000000,-7.643460,2.629631,1.795374,0.025375,0.053421,1.153112,11.918572,4.336823,-0.078691,-0.102430,0.054904,3.943940,-5.371102,12.297441,-0.056505,-1.524781,1,0,,38.990304,-76.939908,-9.113000,,,
2026-09-11T19:04:39.470,11.763905,1.817033,16.201722,16.824376,0.000000,-7.539090,2.593724,1.815171,0.021463,0.045185,1.154759,11.942280,4.392297,0.018092,-0.081135,0.046668,2.962393,2.414888,8.913166,0.141689,-1.363850,1,0,,38.990304,-76.939908,-9.113000,,,
2026-09-11T19:04:39.503,11.797328,1.768956,16.261261,16.379219,0.000000,-7.653760,2.633174,1.767088,0.061857,0.130226,1.157691,11.965120,4.447651,0.026023,0.068765,0.131709,1.139435,-0.537404,11.702374,0.219538,-1.405303,1,0,,38.990304,-76.939908,-9.113000,,,
2026-09-11T19:04:39.538,11.830739,1.779490,16.320619,16.476759,0.000000,-7.974423,2.743494,1.777450,0.045895,0.096622,1.161480,11.987138,4.502648,0.088780,-0.016535,0.098105,0.450125,0.955266,18.076010,0.249234,-1.345942,1,0,,38.990304,-76.939908,-9.113000,,,
2026-09-11T19:04:39.570,11.864152,1.731415,16.378415,16.031620,0.000000,-8.060940,2.773259,1.729387,0.038503,0.081060,1.164449,12.009082,4.556988,-0.015952,-0.040826,0.082543,0.295278,3.091056,10.902347,0.262235,-1.147028,1,0,,38.990304,-76.939908,-9.113000,,,
2026-09-11T19:04:39.603,11.897574,1.751480,16.437009,16.217405,0.000000,-7.963437,2.739714,1.749478,0.055879,0.117640,1.167769,12.030521,4.611049,0.017314,-0.070472,0.119124,1.269765,2.067536,5.445927,0.331308,-1.020741,1,0,,38.990304,-76.939908,-9.113000,,,
2026-09-11T19:04:39.638,11.930986,1.751563,16.495638,16.218177,0.000000,-7.638653,2.627977,1.749721,0.037632,0.079226,1.171058,12.051922,4.665470,-0.028927,-0.060081,0.080710,0.222121,4.195383,7.221519,0.323057,-0.753906,1,0,,38.990304,-76.939908,-9.113000,,,
2026-09-11T19:04:39.671,11.964399,1.761207,16.554289,16.307468,0.000000,-7.534283,2.592070,1.759405,0.046465,0.097821,1.174016,12.073362,4.720053,0.030325,-0.075088,0.099305,1.745976,3.463415,7.951428,0.407969,-0.539533,1,0,,38.990304,-76.939908,-9.113000,,,
2026-09-11T19:04:39.704,11.997819,1.761363,16.613338,16.308917,0.000000,-7.116803,2.448441,1.759755,0.027938,0.058816,1.176633,12.094869,4.774798,0.050164,-0.041649,0.060300,0.102087,0.698332,10.201760,0.385456,-0.501962,1,0,,38.990304,-76.939908,-9.113000,,,
2026-09-11T19:04:39.737,12.031232,1.771450,16.672434,16.402312,0.000000,-5.096005,1.753213,1.770620,0.017850,0.037580,1.178244,12.116770,4.829567,0.022204,0.012969,0.039063,1.223282,3.264340,11.546350,0.433308,-0.296426,1,0,,38.990304,-76.939908,-9.113000,,,
2026-09-11T19:04:39.771,12.064644,1.771729,16.731336,16.404898,0.000000,-3.176831,1.092946,1.771407,-0.003485,-0.007336,1.178749,12.139171,4.884337,-0.059293,0.043443,-0.005853,-0.580456,2.295933,11.012378,0.362056,-0.150673,1,0,,38.990304,-76.939908,-9.113000,,,
2026-09-11T19:04:39.805,12.098056,1.781616,16.790750,16.496446,0.000000,-1.966962,0.676707,1.781492,-0.005251,-0.011055,1.178442,12.161992,4.939130,0.016147,-0.048149,-0.009571,0.997238,1.042937,7.502087,0.391530,-0.087153,1,0,,38.990304,-76.939908,-9.113000,,,
2026-09-11T19:04:39.838,12.131469,1.791798,16.850745,16.590721,0.000000,-0.218762,0.075262,1.791796,-0.019190,-0.040399,1.177582,12.185219,4.994124,0.121051,0.010567,-0.038916,0.691859,1.670269,11.628333,0.401319,0.019657,1,0,,38.990304,-76.939908,-9.113000,,,
2026-09-11T19:04:39.871,12.164887,1.782617,16.910536,16.505717,0.000000,3.089496,-1.062900,1.782311,-0.031604,-0.066534,1.175795,12.208934,5.048939,0.056626,-0.002807,-0.065051,1.900235,1.492964,13.613494,0.491774,0.116818,1,0,,38.990304,-76.939908,-9.113000,,,
2026-09-11T19:04:39.904,12.198303,1.822163,16.971203,16.871882,0.000000,5.726901,-1.970264,1.821086,-0.023241,-0.048929,1.173866,12.233002,5.104133,0.008935,-0.120454,-0.047446,-0.538091,3.849110,4.376414,0.425119,0.363447,1,0,,38.990304,-76.939908,-9.113000,,,
2026-09-11T19:04:39.938,12.231718,1.783906,17.031187,16.517653,0.000000,5.828525,-2.005226,1.782814,-0.029676,-0.062475,1.172005,12.257145,5.159300,0.003349,-0.165829,-0.060991,-2.876192,1.804326,-3.125183,0.210057,0.476482,1,0,,38.990304,-76.939908,-9.113000,,,
2026-09-11T19:04:39.971,12.265134,1.813336,17.092105,16.790148,0.000000,6.032459,-2.075387,1.812146,-0.040995,-0.086305,1.169519,12.281625,5.214161,-0.060698,-0.111680,-0.084822,-2.195023,0.197800,0.529951,0.041775,0.487230,1,0,,38.990304,-76.939908,-9.113000,,,
2026-09-11T19:04:40.005,12.298554,1.794435,17.151372,16.615139,0.000000,6.086017,-2.093813,1.793237,-0.028612,-0.060235,1.167070,12.306295,5.269137,0.027308,-0.007647,-0.058751,1.841297,-3.216581,11.358749,0.137437,0.273774,1,0,,38.990304,-76.939908,-9.113000,,,
2026-09-11T19:04:40.039,12.331969,1.803980,17.212165,16.703515,0.000000,8.340961,-2.869597,1.801718,-0.045727,-0.096267,1.164456,12.331104,5.323850,0.021602,-0.037700,-0.094784,1.257311,-6.147593,13.063929,0.196049,-0.122663,1,0,,38.990304,-76.939908,-9.113000,,,
2026-09-11T19:04:40.072,12.365381,1.794261,17.271738,16.613527,0.000000,11.353275,-3.905943,1.790093,-0.079581,-0.167539,1.160048,12.356863,5.378084,0.030639,0.005978,-0.166056,0.399523,1.587501,11.178208,0.200322,-0.006098,1,0,,38.990304,-76.939908,-9.113000,,,
2026-09-11T19:04:40.105,12.398797,1.775053,17.331107,16.435678,0.000000,15.587131,-5.362545,1.767284,-0.086060,-0.181179,1.154222,12.383286,5.431395,0.026506,0.018421,-0.179696,1.622020,-4.887438,6.679113,0.283677,-0.308405,1,0,,38.990304,-76.939908,-9.113000,,,
2026-09-11T19:04:40.138,12.432218,1.785352,17.390898,16.531035,0.000000,20.594150,-7.085143,1.771719,-0.113739,-0.239450,1.147193,12.410454,5.484028,-0.128868,0.025722,-0.237966,0.132292,-2.063711,8.102058,0.274568,-0.417965,1,0,,38.990304,-76.939908,-9.113000,,,
2026-09-11T19:04:40.173,12.465632,1.766164,17.450392,16.353369,0.000000,23.303653,-8.017312,1.748901,-0.133575,-0.281210,1.138494,12.438621,5.535826,-0.051699,0.057790,-0.279727,-0.365592,-2.118825,11.869185,0.238966,-0.525480,1,1,12.453145,38.990287,-76.939907,-9.179000,-8.577392,-10.103171,3.869336
2026-09-11T19:04:40.206,12.499048,1.766548,17.509658,16.356921,0.000000,24.968768,-8.590173,1.746730,-0.153335,-0.322812,1.128402,12.467699,5.586702,-0.033366,0.033423,-0.321328,-1.313209,3.271302,10.273447,0.143048,-0.278430,1,0,,38.990287,-76.939907,-9.179000,,,
2026-09-11T19:04:40.239,12.532461,1.776622,17.569220,16.450208,0.000000,25.361530,-8.725297,1.756062,-0.138482,-0.291541,1.118139,12.497418,5.637348,-0.049334,0.000274,-0.290058,-0.388932,-0.416881,8.140893,0.106827,-0.276086,1,0,,38.990287,-76.939907,-9.179000,,,
2026-09-11T19:04:40.272,12.565873,1.767775,17.628339,16.368285,0.000000,25.292178,-8.701438,1.747428,-0.141108,-0.297069,1.108305,12.527464,5.687793,-0.032029,-0.018043,-0.295585,0.051289,1.872482,10.913821,0.096360,-0.125208,1,0,,38.990287,-76.939907,-9.179000,,,
2026-09-11T19:04:40.305,12.599288,1.758871,17.686739,16.285845,0.000000,25.336810,-8.716793,1.738555,-0.130624,-0.274997,1.098748,12.557752,5.737748,-0.018939,-0.021780,-0.273513,0.371868,2.516484,7.726954,0.105321,0.063028,1,0,,38.990287,-76.939907,-9.179000,,,
2026-09-11T19:04:40.340,12.632700,1.759450,17.745925,16.291201,0.000000,25.358783,-8.724352,1.739092,-0.128157,-0.269805,1.089646,12.588246,5.787387,0.031162,0.024437,-0.268321,1.426573,-10.042696,12.591935,0.180203,-0.563855,1,0,,38.990287,-76.939907,-9.179000,,,
2026-09-11T19:04:40.372,12.666114,1.759857,17.803722,16.294975,0.000000,25.069019,-8.624662,1.739957,-0.137286,-0.289023,1.080310,12.619307,5.836713,0.026549,0.035110,-0.287540,-0.061095,-9.606300,9.041437,0.154200,-1.153410,1,0,,38.990287,-76.939907,-9.179000,,,
2026-09-11T19:04:40.406,12.699533,1.711515,17.860995,15.847359,0.000000,25.160343,-8.656081,1.692020,-0.112587,-0.237026,1.071520,12.650214,5.885200,0.059414,0.182683,-0.235542,-0.548486,-1.506694,2.474708,0.091114,-1.219065,1,0,,38.990287,-76.939907,-9.179000,,,
2026-09-11T19:04:40.440,12.732952,1.672500,17.916980,15.486109,0.000000,25.404102,-8.739943,1.653079,-0.133513,-0.281079,1.062862,12.680787,5.932171,0.061534,0.167481,-0.279595,0.072667,-6.427573,8.917089,0.063818,-1.598299,1,0,,38.990287,-76.939907,-9.179000,,,
2026-09-11T19:04:40.474,12.766366,1.692204,17.973546,15.668560,0.000000,25.161029,-8.656317,1.672928,-0.123232,-0.259436,1.053832,12.711772,5.978497,-0.133576,-0.078664,-0.257952,0.154259,-1.244072,5.735517,0.040423,-1.639898,1,0,,38.990287,-76.939907,-9.179000,,,
2026-09-11T19:04:40.506,12.799785,1.701892,18.030613,15.758256,0.000000,25.167209,-8.658443,1.682496,-0.117422,-0.247205,1.045366,12.743178,6.025118,0.022599,-0.055764,-0.245721,3.244138,-2.224246,5.500648,0.215895,-1.745644,1,0,,38.990287,-76.939907,-9.179000,,,
2026-09-11T19:04:40.539,12.833201,1.731258,18.088273,16.030165,0.000000,25.347110,-8.720336,1.711245,-0.131331,-0.276486,1.036617,12.775420,6.071944,0.028755,-0.045746,-0.275003,-1.218869,2.135692,9.248456,0.099028,-1.564394,1,0,,38.990287,-76.939907,-9.179000,,,
2026-09-11T19:04:40.574,12.866620,1.721783,18.145568,15.942433,0.000000,25.446674,-8.754590,1.701723,-0.132535,-0.279022,1.027334,12.808466,6.118629,-0.029151,0.058122,-0.277538,-0.357354,1.339981,8.989658,0.038496,-1.436526,1,0,,38.990287,-76.939907,-9.179000,,,
2026-09-11T19:04:40.607,12.900037,1.731846,18.203331,16.035610,0.000000,25.282565,-8.698130,1.711928,-0.128170,-0.269831,1.018164,12.841902,6.165043,-0.059897,-0.016928,-0.268348,0.974585,-0.239675,7.274769,0.064733,-1.413123,1,0,,38.990287,-76.939907,-9.179000,,,
2026-09-11T19:04:40.641,12.933457,1.761091,18.262027,16.306401,0.000000,25.100604,-8.635529,1.741127,-0.111760,-0.235285,1.009723,12.875803,6.211906,-0.023846,0.002799,-0.233802,1.170326,-0.884658,10.776430,0.100755,-1.435097,1,0,,38.990287,-76.939907,-9.179000,,,
2026-09-11T19:04:40.674,12.966873,1.800418,18.322228,16.670535,0.000000,22.906085,-7.880534,1.783415,-0.114731,-0.241539,1.001756,12.910534,6.259614,-0.050501,-0.021609,-0.240055,0.792966,-1.301244,12.729522,0.108100,-1.482415,1,0,,38.990287,-76.939907,-9.179000,,,
2026-09-11T19:04:40.707,13.000292,1.810572,18.382588,16.764556,0.000000,21.425678,-7.371219,1.795609,-0.102396,-0.215571,0.994118,12.946000,6.307903,-0.084654,-0.040643,-0.214088,0.527009,-0.451498,11.618527,0.099960,-1.477053,1,0,,38.990287,-76.939907,-9.179000,,,
2026-09-11T19:04:40.741,13.033709,1.830546,18.443722,16.949499,0.000000,20.469180,-7.042149,1.816737,-0.083252,-0.175267,0.987588,12.981670,6.356691,-0.033780,-0.058916,-0.173784,1.748428,-0.778550,9.623266,0.173418,-1.497355,1,0,,38.990287,-76.939907,-9.179000,,,
2026-09-11T19:04:40.774,13.067125,1.831207,18.504481,16.955618,0.000000,18.966113,-6.525039,1.819345,-0.107522,-0.226362,0.980878,13.017950,6.405523,0.011215,0.101934,-0.224878,-0.884658,4.139289,11.875265,0.077328,-1.193199,1,0,,38.990287,-76.939907,-9.179000,,,
2026-09-11T19:04:40.807,13.100539,1.831482,18.566345,16.958165,0.000000,18.172351,-6.251956,1.820589,-0.076371,-0.160781,0.974410,13.054491,6.454231,-0.090915,-0.035614,-0.159297,0.900741,-3.531571,9.485777,0.099089,-1.396414,1,0,,38.990287,-76.939907,-9.179000,,,
2026-09-11T19:04:40.841,13.133955,1.831464,18.627525,16.958001,0.000000,16.426212,-5.651220,1.822563,-0.077634,-0.163439,0.968993,13.090940,6.503048,-0.063784,0.062193,-0.161956,2.186883,4.466341,19.468064,0.203156,-1.079601,1,0,,38.990287,-76.939907,-9.179000,,,
2026-09-11T19:04:40.874,13.167372,1.831605,18.689047,16.959303,0.000000,14.854480,-5.110486,1.824324,-0.082502,-0.173689,0.963360,13.127779,6.551658,-0.011043,0.120170,-0.172205,3.753495,-1.378521,8.653878,0.407282,-1.143223,1,0,,38.990287,-76.939907,-9.179000,,,
2026-09-11T19:04:40.908,13.200786,1.822090,18.749920,16.871201,0.000000,13.862964,-4.769368,1.815781,-0.079169,-0.166671,0.957673,13.164845,6.599948,0.008047,-0.039982,-0.165188,-0.012553,2.457841,2.954940,0.365165,-0.958867,1,0,,38.990287,-76.939907,-9.179000,,,
2026-09-11T19:04:40.941,13.234199,1.803109,18.810052,16.695457,0.000000,13.839618,-4.761336,1.796887,-0.077817,-0.163825,0.952152,13.201851,6.647699,0.057560,0.104019,-0.162342,2.391057,4.133699,6.830136,0.480078,-0.668687,1,0,,38.990287,-76.939907,-9.179000,,,
2026-09-11T19:04:40.975,13.267822,1.774305,18.870663,16.428754,0.000000,13.415271,-4.615346,1.768552,-0.063856,-0.134434,0.947138,13.238670,6.695058,0.109999,0.182805,-0.132950,-3.032118,1.534152,10.179793,0.241303,-0.552831,1,0,,38.990287,-76.939907,-9.179000,,,
2026-09-11T19:04:41.008,13.301243,1.794243,18.929530,16.613364,0.000000,12.837116,-4.416439,1.788916,-0.086464,-0.182030,0.941849,13.275551,6.741747,0.026471,0.019748,-0.180546,3.997877,-4.162727,3.424188,0.461001,-0.801876,1,0,,38.990287,-76.939907,-9.179000,,,
2026-09-11T19:04:41.041,13.334666,1.784854,18.989275,16.526422,0.000000,12.970325,-4.462268,1.779443,-0.072787,-0.153236,0.936247,13.312915,6.788300,0.051164,-0.021645,-0.151752,0.996748,0.753347,11.562433,0.480970,-0.733492,1,0,,38.990287,-76.939907,-9.179000,,,
2026-09-11T19:04:41.074,13.368086,1.795120,19.049498,16.621485,0.000000,12.664768,-4.357145,1.789932,-0.051719,-0.108881,0.931867,13.350052,6.835020,-0.034060,0.003353,-0.107398,1.648792,-10.386125,9.066738,0.540614,-1.391690,1,0,,38.990287,-76.939907,-9.179000,,,
2026-09-11T19:04:41.107,13.401508,1.795583,19.109596,16.625772,0.000000,11.159641,-3.839326,1.791554,-0.061605,-0.129694,0.927880,13.387355,6.881859,-0.035461,0.056914,-0.128211,3.177845,-2.720561,9.081841,0.696361,-1.544181,1,0,,38.990287,-76.939907,-9.179000,,,
2026-09-11T19:04:41.142,13.434928,1.835009,19.171130,16.990822,0.000000,6.874286,-2.365007,1.833446,-0.032517,-0.068457,0.924569,13.425010,6.929335,-0.141328,-0.016189,-0.066973,2.318096,-0.781884,7.859442,0.794213,-1.576441,1,0,,38.990287,-76.939907,-9.179000,,,
2026-09-11T19:04:41.175,13.468346,1.864715,19.233757,17.265882,0.000000,3.873645,-1.332676,1.864211,0.008462,0.017814,0.923723,13.462558,6.978403,0.085652,0.017723,0.019298,-1.635455,0.958404,7.559456,0.634236,-1.506002,1,0,,38.990287,-76.939907,-9.179000,,,
2026-09-11T19:04:41.208,13.501770,1.874523,19.296771,17.356696,0.000000,-0.357464,0.122981,1.874519,-0.000231,-0.000486,0.924012,13.500108,7.028343,-0.086674,-0.029957,0.000997,2.516092,-3.015349,10.829876,0.742540,-1.691303,1,1,13.480141,38.990272,-76.939910,-9.251000,-8.876139,-11.841704,4.097848
2026-09-11T19:04:41.242,13.535191,1.893907,19.359399,17.536177,0.000000,-4.128522,1.420363,1.893325,0.042038,0.088501,0.925483,13.537455,7.079036,0.018085,-0.028361,0.089984,3.452922,-0.545740,11.406409,0.913564,-1.725619,1,0,,38.990272,-76.939910,-9.251000,,,
2026-09-11T19:04:41.275,13.568608,1.913511,19.423439,17.717693,0.000000,-4.971036,1.710219,1.912658,0.049721,0.104675,0.928711,13.574394,7.130823,0.030125,-0.002297,0.106158,1.810013,7.964765,7.932992,0.980008,-1.210992,1,0,,38.990272,-76.939910,-9.251000,,,
2026-09-11T19:04:41.309,13.602032,1.942936,19.488287,17.990152,0.000000,-4.900998,1.686123,1.942095,-0.000087,-0.000182,0.930457,13.612264,7.182945,-0.100023,0.058618,0.001301,1.742348,-2.668978,12.639105,1.041990,-1.377167,1,0,,38.990272,-76.939910,-9.251000,,,
2026-09-11T19:04:41.342,13.635453,1.952920,19.553729,18.082596,0.000000,-4.654492,1.601316,1.952158,-0.000104,-0.000219,0.930450,13.651146,7.235126,-0.180535,0.018273,0.001264,1.981630,0.694997,10.141155,1.121433,-1.323801,1,0,,38.990272,-76.939910,-9.251000,,,
2026-09-11T19:04:41.375,13.668875,1.982272,19.620036,18.354374,0.000000,-4.440945,1.527848,1.981568,0.003245,0.006831,0.930561,13.690377,7.287872,-0.092764,-0.148850,0.008314,-0.355099,4.144094,10.311104,1.054450,-1.048742,1,0,,38.990272,-76.939910,-9.251000,,,
2026-09-11T19:04:41.409,13.702296,1.953554,19.686172,18.088461,0.000000,-4.867352,1.674548,1.952719,0.024198,0.050942,0.931526,13.729258,7.340889,0.041968,0.001095,0.052426,-0.468562,-1.417453,8.288875,0.988016,-1.142173,1,0,,38.990272,-76.939910,-9.251000,,,
2026-09-11T19:04:41.443,13.735720,1.964159,19.752468,18.186658,0.000000,-5.096005,1.753213,1.963240,0.045458,0.095701,0.933977,13.767303,7.394150,0.096287,-0.031048,0.097184,-2.085188,-7.042548,9.313376,0.824522,-1.604341,1,0,,38.990272,-76.939910,-9.251000,,,
2026-09-11T19:04:41.475,13.769144,1.945317,19.816576,18.012194,0.000000,-6.279095,2.160239,1.943934,0.070127,0.147635,0.938043,13.804468,7.447871,0.019655,-0.029785,0.149119,0.087181,-5.134076,8.688104,0.810500,-1.944324,1,0,,38.990272,-76.939910,-9.251000,,,
2026-09-11T19:04:41.509,13.802565,1.907016,19.879989,17.657560,0.000000,-6.436337,2.214336,1.905592,0.047405,0.099799,0.942178,13.840817,7.500981,0.033897,0.014200,0.101283,0.825426,0.146413,8.634952,0.851337,-1.932506,1,0,,38.990272,-76.939910,-9.251000,,,
2026-09-11T19:04:41.544,13.835983,1.897867,19.944303,17.572846,0.000000,-6.524228,2.244574,1.896411,0.023013,0.048448,0.944655,13.877158,7.553102,0.016043,0.020442,0.049931,-2.722522,3.775953,11.263134,0.669993,-1.679583,1,0,,38.990272,-76.939910,-9.251000,,,
2026-09-11T19:04:41.576,13.869406,1.897967,20.007249,17.573764,0.000000,-6.088208,2.094567,1.896698,-0.000044,-0.000092,0.945463,13.913973,7.604705,0.021965,-0.042813,0.001391,-0.190837,6.466799,14.797352,0.660987,-1.249355,1,0,,38.990272,-76.939910,-9.251000,,,
2026-09-11T19:04:41.609,13.902830,1.868895,20.069238,17.304587,0.000000,-6.015423,2.069526,1.867676,0.061975,0.130475,0.947642,13.949904,7.656356,-0.009326,-0.010620,0.131958,0.461403,-3.757418,9.150781,0.696888,-1.501349,1,0,,38.990272,-76.939910,-9.251000,,,
2026-09-11T19:04:41.643,13.936250,1.849872,20.131159,17.128441,0.000000,-6.011304,2.068109,1.848667,0.028863,0.060764,0.950838,13.984831,7.707725,-0.044832,-0.106121,0.062248,0.733930,-0.524852,8.278774,0.748164,-1.532841,1,0,,38.990272,-76.939910,-9.251000,,,
2026-09-11T19:04:41.677,13.969673,1.830785,20.192419,16.951710,0.000000,-5.865048,2.017792,1.829649,0.013967,0.029404,0.952345,14.019925,7.758197,-0.017293,-0.040622,0.030888,-0.519752,1.628002,10.056131,0.716401,-1.420877,1,0,,38.990272,-76.939910,-9.251000,,,
2026-09-11T19:04:41.709,14.003094,1.782785,20.252243,16.507267,0.000000,-5.754498,1.979759,1.781721,0.042146,0.088729,0.954319,14.054100,7.807944,0.021013,-0.087834,0.090212,-0.136116,3.835283,10.254422,0.708582,-1.174081,1,0,,38.990272,-76.939910,-9.251000,,,
2026-09-11T19:04:41.742,14.036519,1.753889,20.311247,16.239710,0.000000,-6.250256,2.150317,1.752654,0.040240,0.084715,0.957217,14.087057,7.856982,0.054739,0.250264,0.086199,-4.990114,3.087232,-0.401680,0.382586,-0.977786,1,0,,38.990272,-76.939910,-9.251000,,,
2026-09-11T19:04:41.776,14.069938,1.715544,20.368998,15.884667,0.000000,-7.781476,2.677113,1.713672,0.049534,0.104282,0.960375,14.119106,7.905251,0.046541,0.042177,0.105766,-4.668554,-5.961561,-0.065312,0.078719,-1.371146,1,0,,38.990272,-76.939910,-9.251000,,,
2026-09-11T19:04:41.810,14.103358,1.677475,20.424984,15.532172,0.000000,-8.637723,2.971694,1.675219,0.040669,0.085619,0.963549,14.150257,7.952566,-0.049708,-0.027653,0.087103,-0.509357,0.103362,11.301772,0.046352,-1.365441,1,0,,38.990272,-76.939910,-9.251000,,,
2026-09-11T19:04:41.844,14.136810,1.658429,20.482142,15.355823,0.000000,-9.612073,3.306906,1.655667,0.072673,0.152996,0.967540,14.180396,7.999459,-0.013471,-0.037460,0.154479,1.712241,-1.915827,4.265501,0.156450,-1.497695,1,0,,38.990272,-76.939910,-9.251000,,,
2026-09-11T19:04:41.876,14.170236,1.678397,20.536623,15.540712,0.000000,-9.993161,3.438014,1.675376,0.087641,0.184507,0.973180,14.209639,8.046907,0.047644,0.168028,0.185990,0.763448,-1.793931,11.729146,0.202086,-1.624110,1,0,,38.990272,-76.939910,-9.251000,,,
2026-09-11T19:04:41.910,14.203654,1.688304,20.592654,15.632442,0.000000,-9.828366,3.381319,1.685365,0.061331,0.129118,0.978421,14.239053,8.094807,-0.140362,-0.007434,0.130602,0.003727,2.849714,8.673786,0.199696,-1.442696,1,0,,38.990272,-76.939910,-9.251000,,,
2026-09-11T19:04:41.944,14.237072,1.678848,20.649288,15.544893,0.000000,-9.349774,3.216665,1.676203,0.039823,0.083837,0.981979,14.268928,8.142404,-0.018316,0.015465,0.085321,0.886423,-1.393525,12.147105,0.251048,-1.532871,1,0,,38.990272,-76.939910,-9.251000,,,
2026-09-11T19:04:41.976,14.270490,1.698294,20.705410,15.724944,0.000000,-8.352765,2.873658,1.696158,0.051910,0.109283,0.985206,14.298870,8.190163,-0.074965,-0.053759,0.110767,0.046484,1.705573,10.220589,0.241233,-1.424417,1,0,,38.990272,-76.939910,-9.251000,,,
2026-09-11T19:04:42.010,14.303908,1.678926,20.761566,15.545610,0.000000,-8.457822,2.909801,1.676761,0.054298,0.114311,0.988942,14.328451,8.238167,-0.015743,0.097794,0.115794,0.083258,-2.346928,8.579054,0.234697,-1.579795,1,0,,38.990272,-76.939910,-9.251000,,,
2026-09-11T19:04:42.043,14.337323,1.688886,20.817859,15.637835,0.000000,-8.668622,2.982324,1.686599,0.057728,0.121532,0.992882,14.357674,8.286199,0.030340,0.146325,0.123016,-0.492882,3.431543,13.354010,0.185878,-1.360432,1,0,,38.990272,-76.939910,-9.251000,,,
2026-09-11T19:04:42.077,14.370738,1.689266,20.874414,15.641351,0.000000,-8.978985,3.089100,1.686811,0.062168,0.130880,0.997100,14.386683,8.334563,0.067823,-0.003959,0.132364,1.319485,3.653762,9.349856,0.242599,-1.130147,1,0,,38.990272,-76.939910,-9.251000,,,
2026-09-11T19:04:42.110,14.404156,1.689808,20.930832,15.646374,0.000000,-10.041913,3.454786,1.686737,0.075085,0.158074,1.001928,14.415233,8.383220,-0.038248,-0.062419,0.159558,-0.832094,0.294101,7.681157,0.156052,-1.122743,1,0,,38.990272,-76.939910,-9.251000,,,
2026-09-11T19:04:42.143,14.437574,1.670375,20.986714,15.466433,0.000000,-12.852353,4.421681,1.665403,0.069380,0.146064,1.007009,14.443248,8.431781,0.174581,0.040690,0.147547,3.660528,-4.390241,1.585735,0.364836,-1.416995,1,0,,38.990272,-76.939910,-9.251000,,,
2026-09-11T19:04:42.178,14.471000,1.631593,21.040865,15.107342,0.000000,-17.513302,6.025219,1.622580,0.046892,0.098719,1.011101,14.470876,8.479323,-0.058504,0.118003,0.100203,6.775807,-2.557967,8.316824,0.772923,-1.584111,1,1,14.478450,38.990256,-76.939913,-9.252000,-9.120438,-13.592097,3.410000
2026-09-11T19:04:42.211,14.504420,1.661357,21.096451,15.382932,0.000000,-17.804440,6.125381,1.651872,0.103195,0.217253,1.016381,14.497673,8.527092,-0.159113,-0.026174,0.218736,-1.789714,-10.872437,9.368587,0.619885,-2.300357,1,0,,38.990256,-76.939913,-9.252000,,,
2026-09-11T19:04:42.244,14.537838,1.652293,21.151924,15.299008,0.000000,-18.966931,6.525320,1.641589,0.108961,0.229392,1.023844,14.523448,8.575841,-0.206353,0.037739,0.230875,-4.042988,-2.198357,15.239142,0.319666,-2.448434,1,0,,38.990256,-76.939913,-9.252000,,,
2026-09-11T19:04:42.277,14.571255,1.584927,21.204331,14.675251,0.000000,-21.587857,7.427015,1.571630,0.109177,0.229847,1.031517,14.548078,8.623685,-0.194479,-0.043182,0.231330,0.920354,3.580212,4.308944,0.342078,-2.219847,1,0,,38.990256,-76.939913,-9.252000,,,
2026-09-11T19:04:42.311,14.604673,1.663360,21.259940,15.401481,0.000000,-26.524838,9.125518,1.642307,0.150437,0.316710,1.040649,14.571705,8.672100,-0.032527,0.006558,0.318193,1.267510,1.019695,5.973917,0.386724,-2.169812,1,0,,38.990256,-76.939913,-9.252000,,,
2026-09-11T19:04:42.344,14.638091,1.741238,21.318717,16.122577,0.000000,-34.030560,11.707762,1.705012,0.186524,0.392683,1.052502,14.594819,8.723337,0.082163,-0.027190,0.394166,0.139058,-0.435023,14.176690,0.357262,-2.224155,1,0,,38.990256,-76.939913,-9.252000,,,
2026-09-11T19:04:42.377,14.671516,1.741498,21.376718,16.124979,0.000000,-39.140576,13.465795,1.693622,0.221943,0.467248,1.066874,14.616646,8.776212,0.152279,-0.051941,0.468731,-0.124643,-1.169737,8.519037,0.308721,-2.333359,1,0,,38.990256,-76.939913,-9.252000,,,
2026-09-11T19:04:42.412,14.704936,1.731793,21.434777,16.035119,0.000000,-40.122479,13.803605,1.681777,0.217408,0.457700,1.082330,14.637043,8.829305,0.130576,-0.018332,0.459184,-0.331955,-1.923967,11.400623,0.241674,-2.488770,1,0,,38.990256,-76.939913,-9.252000,,,
2026-09-11T19:04:42.445,14.738358,1.751312,21.493291,16.215848,0.000000,-40.482281,13.927390,1.699826,0.216434,0.455650,1.097593,14.656750,8.882760,0.081259,-0.064286,0.457133,0.544269,2.496577,5.071705,0.231711,-2.356602,1,0,,38.990256,-76.939913,-9.252000,,,
2026-09-11T19:04:42.479,14.771779,1.770834,21.552763,16.396614,0.000000,-41.050137,14.122754,1.717311,0.216649,0.456102,1.112829,14.675916,8.937033,0.097680,-0.023788,0.457586,1.249661,2.543061,13.010973,0.268643,-2.223466,1,0,,38.990256,-76.939913,-9.252000,,,
2026-09-11T19:04:42.512,14.805199,1.800366,21.612747,16.670060,0.000000,-40.953320,14.089445,1.746206,0.217703,0.458321,1.128109,14.694569,8.992297,0.056012,-0.019529,0.459805,0.728928,0.724123,11.496532,0.265918,-2.210654,1,0,,38.990256,-76.939913,-9.252000,,,
2026-09-11T19:04:42.545,14.838620,1.790907,21.672286,16.582473,0.000000,-39.132336,13.462960,1.741694,0.201163,0.423502,1.142844,14.712802,9.048098,0.035638,0.025663,0.424985,0.853865,-1.747937,9.354171,0.271584,-2.353945,1,0,,38.990256,-76.939913,-9.252000,,,
2026-09-11T19:04:42.579,14.872040,1.801004,21.732908,16.675961,0.000000,-37.180890,12.791591,1.756306,0.183538,0.386395,1.156378,14.730832,9.104071,0.033048,-0.026251,0.387879,-0.387951,0.474740,14.894340,0.205014,-2.347953,1,0,,38.990256,-76.939913,-9.252000,,,
2026-09-11T19:04:42.612,14.905460,1.791357,21.793098,16.586635,0.000000,-35.872143,12.341334,1.749961,0.177496,0.373677,1.169078,14.748545,9.160243,-0.012505,-0.000536,0.375160,-0.698430,-0.248010,8.405966,0.123372,-2.387213,1,0,,38.990256,-76.939913,-9.252000,,,
2026-09-11T19:04:42.645,14.938879,1.811423,21.853742,16.772439,0.000000,-35.348233,12.161089,1.770774,0.163625,0.344474,1.181078,14.765961,9.216723,0.086042,0.083969,0.345957,1.192685,2.562282,10.067801,0.164191,-2.241287,1,0,,38.990256,-76.939913,-9.252000,,,
2026-09-11T19:04:42.678,14.972300,1.812231,21.914467,16.779919,0.000000,-34.754285,11.956749,1.772914,0.179658,0.378227,1.193155,14.782808,9.273781,0.062569,0.120607,0.379710,0.597127,4.303256,0.811500,0.164563,-1.988209,1,0,,38.990256,-76.939913,-9.252000,,,
2026-09-11T19:04:42.712,15.005718,1.802946,21.974815,16.693945,0.000000,-34.868954,11.996200,1.763572,0.184848,0.389154,1.205977,14.798568,9.331053,0.046194,0.059206,0.390638,-0.157985,-0.683033,8.768322,0.116479,-2.061692,1,0,,38.990256,-76.939913,-9.252000,,,
2026-09-11T19:04:42.746,15.039134,1.813207,22.035950,16.788954,0.000000,-34.268139,11.789498,1.774957,0.182987,0.385236,1.218916,14.813548,9.388575,-0.033573,-0.104183,0.386719,0.081395,-0.647729,3.720349,0.085597,-2.131916,1,0,,38.990256,-76.939913,-9.252000,,,
2026-09-11T19:04:42.778,15.072551,1.803487,22.095923,16.698950,0.000000,-32.728680,11.259867,1.768772,0.162484,0.342072,1.231068,14.828188,9.446238,0.074502,0.084533,0.343555,0.386284,0.166517,16.264918,0.075227,-2.143570,1,0,,38.990256,-76.939913,-9.252000,,,
2026-09-11T19:04:42.812,15.105973,1.803326,22.156192,16.697464,0.000000,-31.330670,10.778900,1.771509,0.148851,0.313370,1.242021,14.842681,9.503831,0.026391,0.018454,0.314854,0.028733,-0.442770,14.351542,0.040915,-2.191304,1,0,,38.990256,-76.939913,-9.252000,,,
2026-09-11T19:04:42.845,15.139393,1.803649,22.216347,16.700451,0.000000,-30.056256,10.340455,1.774355,0.141604,0.298114,1.252239,14.856924,9.561550,-0.027280,0.064646,0.299597,-0.624782,-2.993970,11.156928,-0.037953,-2.401958,1,0,,38.990256,-76.939913,-9.252000,,,
