timestamp,time_s,speed_mps,distance_m,wheel_omega_rad_s,motor_current_A,steer_motor_deg,steer_column_deg,vx_mps,vy_mps,yaw_rate_rad_s,heading_rad,x_m,y_m,gyro_x_rad_s,gyro_y_rad_s,gyro_z_rad_s,accel_x_mps2,accel_y_mps2,accel_z_mps2,grade_deg,bank_deg,moving,gps_new_fix,gps_time_s,gps_latitude_deg,gps_longitude_deg,gps_altitude_m,gps_east_m,gps_north_m,gps_sigma_m
2026-09-11T19:05:45.243,0.000008,-0.000000,-0.000000,-0.000000,0.000000,6.140671,-2.112616,-0.000000,0.000069,0.000146,0.000000,0.000000,0.000000,0.001519,0.000293,0.001630,0.390305,0.304693,9.694756,0.000000,0.000000,0,1,-0.396943,38.990287,-76.940897,-9.318000,0.000000,0.000000,2.595207
2026-09-11T19:05:45.276,0.033424,-0.000000,-0.000000,-0.000000,0.000000,6.140671,-2.112616,-0.000000,-0.000469,-0.000987,-0.000014,-0.000000,-0.000007,-0.002230,-0.000686,0.000497,0.393247,0.305379,9.694952,0.000000,0.000000,0,0,,38.990287,-76.940897,-9.318000,,,
2026-09-11T19:05:45.311,0.066836,-0.000000,-0.000000,-0.000000,0.000000,6.140671,-2.112616,-0.000000,-0.000833,-0.001753,-0.000060,-0.000000,-0.000028,0.002594,-0.000543,-0.000269,0.393541,0.306164,9.695443,0.000000,0.000000,0,0,,38.990287,-76.940897,-9.318000,,,
2026-09-11T19:05:45.344,0.100254,-0.000000,-0.000000,-0.000000,0.000000,6.140671,-2.112616,-0.000000,-0.000566,-0.001191,-0.000109,-0.000000,-0.000052,0.001426,-0.001247,0.000293,0.395894,0.301653,9.691618,0.000000,0.000000,0,0,,38.990287,-76.940897,-9.318000,,,
2026-09-11T19:05:45.377,0.133654,-0.000000,-0.000000,-0.000000,0.000000,6.140671,-2.112616,-0.000000,-0.000477,-0.001004,-0.000146,-0.000000,-0.000069,-0.000815,0.000373,0.000480,0.395502,0.306654,9.694952,0.000000,0.000000,0,0,,38.990287,-76.940897,-9.318000,,,
2026-09-11T19:05:45.411,0.167055,-0.000000,-0.000000,-0.000000,0.000000,6.140671,-2.112616,-0.000000,-0.000015,-0.000031,-0.000163,-0.000000,-0.000077,0.001386,-0.001452,0.001453,0.394423,0.301358,9.690441,0.000000,0.000000,0,0,,38.990287,-76.940897,-9.318000,,,
2026-09-11T19:05:45.444,0.200456,-0.000000,-0.000000,-0.000000,0.000000,6.140671,-2.112616,-0.000000,-0.000518,-0.001090,-0.000182,-0.000000,-0.000086,-0.001109,-0.000734,0.000394,0.391285,0.304398,9.691912,0.000000,0.000000,0,0,,38.990287,-76.940897,-9.318000,,,
2026-09-11T19:05:45.479,0.233867,-0.000000,-0.000000,-0.000000,0.000000,6.140671,-2.112616,-0.000000,-0.000555,-0.001169,-0.000219,-0.000000,-0.000104,0.001850,0.001584,0.000315,0.394031,0.306654,9.692403,0.000000,0.000000,0,0,,38.990287,-76.940897,-9.318000,,,
2026-09-11T19:05:45.511,0.267267,-0.000000,-0.000000,-0.000000,0.000000,6.140671,-2.112616,-0.000000,-0.000811,-0.001707,-0.000267,-0.000000,-0.000127,-0.002477,-0.001326,-0.000223,0.392364,0.307929,9.697894,0.000000,0.000000,0,0,,38.990287,-76.940897,-9.318000,,,
2026-09-11T19:05:45.544,0.300667,-0.000000,-0.000000,-0.000000,0.000000,6.140671,-2.112616,-0.000000,-0.000115,-0.000241,-0.000300,-0.000000,-0.000142,-0.000700,-0.000489,0.001242,0.391383,0.308125,9.703975,0.000000,0.000000,0,0,,38.990287,-76.940897,-9.318000,,,
2026-09-11T19:05:45.579,0.334074,-0.000000,-0.000000,-0.000000,0.000000,6.140671,-2.112616,-0.000000,-0.000169,-0.000356,-0.000310,-0.000000,-0.000147,0.002989,-0.000058,0.001127,0.394522,0.304595,9.698679,0.000000,0.000000,0,0,,38.990287,-76.940897,-9.318000,,,
2026-09-11T19:05:45.612,0.367473,-0.000000,-0.000000,-0.000000,0.000000,6.140671,-2.112616,-0.000000,-0.000654,-0.001376,-0.000339,-0.000000,-0.000161,-0.002630,-0.000933,0.000108,0.393051,0.304889,9.700444,0.000000,0.000000,0,0,,38.990287,-76.940897,-9.318000,,,
2026-09-11T19:05:45.645,0.400882,-0.000000,-0.000000,-0.000000,0.000000,6.140671,-2.112616,-0.000000,-0.000919,-0.001934,-0.000394,-0.000000,-0.000187,-0.001828,-0.000874,-0.000450,0.395698,0.303124,9.691422,0.000000,0.000000,0,0,,38.990287,-76.940897,-9.318000,,,
2026-09-11T19:05:45.678,0.434288,-0.000000,-0.000000,-0.000000,0.000000,6.140671,-2.112616,-0.000000,-0.000549,-0.001156,-0.000446,-0.000000,-0.000212,0.002224,-0.000022,0.000328,0.393443,0.306360,9.687695,0.000000,0.000000,0,0,,38.990287,-76.940897,-9.318000,,,
2026-09-11T19:05:45.711,0.467702,-0.000000,-0.000000,-0.000000,0.000000,6.140671,-2.112616,-0.000000,-0.000762,-0.001603,-0.000492,-0.000000,-0.000234,-0.001895,-0.000347,-0.000120,0.395993,0.304889,9.692207,0.000000,0.000000,0,0,,38.990287,-76.940897,-9.318000,,,
2026-09-11T19:05:45.744,0.501101,-0.000000,-0.000000,-0.000000,0.000000,6.140671,-2.112616,-0.000000,-0.000248,-0.000522,-0.000527,-0.000000,-0.000250,-0.002437,0.000633,0.000962,0.395993,0.309106,9.697894,0.000000,0.000000,0,0,,38.990287,-76.940897,-9.318000,,,
2026-09-11T19:05:45.778,0.534502,-0.000000,-0.000000,-0.000000,0.000000,6.140671,-2.112616,-0.000000,-0.000804,-0.001693,-0.000564,-0.000000,-0.000268,-0.000178,-0.000519,-0.000209,0.395698,0.303908,9.691128,0.000000,0.000000,0,0,,38.990287,-76.940897,-9.318000,,,
2026-09-11T19:05:45.812,0.567909,-0.000000,-0.000000,-0.000000,0.000000,6.140671,-2.112616,-0.000000,-0.001119,-0.002355,-0.000632,-0.000000,-0.000300,-0.002860,-0.000005,-0.000872,0.393737,0.305869,9.698679,0.000000,0.000000,0,0,,38.990287,-76.940897,-9.318000,,,
2026-09-11T19:05:45.846,0.601336,-0.000000,-0.000000,-0.000000,0.000000,6.140671,-2.112616,-0.000000,-0.001112,-0.002341,-0.000710,-0.000000,-0.000337,-0.002229,0.000556,-0.000858,0.392756,0.307438,9.693481,0.000000,0.000000,0,1,0.588918,38.990287,-76.940898,-9.339000,-0.015413,-0.006116,2.823521
2026-09-11T19:05:45.878,0.634748,-0.000000,-0.000000,-0.000000,0.000000,6.140671,-2.112616,-0.000000,0.000423,0.000891,-0.000735,-0.000000,-0.000349,-0.000299,-0.000797,0.002374,0.395502,0.303124,9.695933,0.000000,0.000000,0,0,,38.990287,-76.940898,-9.339000,,,
2026-09-11T19:05:45.912,0.668147,-0.000000,-0.000000,-0.000000,0.000000,6.140671,-2.112616,-0.000000,-0.001077,-0.002267,-0.000758,-0.000000,-0.000360,-0.001299,0.000195,-0.000783,0.393247,0.306164,9.695639,0.000000,0.000000,0,0,,38.990287,-76.940898,-9.339000,,,
2026-09-11T19:05:45.946,0.701556,-0.000000,-0.000000,-0.000000,0.000000,6.140671,-2.112616,-0.000000,-0.001372,-0.002888,-0.000844,-0.000000,-0.000401,-0.002117,0.001222,-0.001405,0.392266,0.300378,9.691422,0.000000,0.000000,0,0,,38.990287,-76.940898,-9.339000,,,
2026-09-11T19:05:45.979,0.734963,-0.000000,-0.000000,-0.000000,0.000000,6.140671,-2.112616,-0.000000,-0.000496,-0.001043,-0.000909,-0.000000,-0.000432,0.000280,-0.000912,0.000440,0.397954,0.306556,9.701131,0.000000,0.000000,0,0,,38.990287,-76.940898,-9.339000,,,
2026-09-11T19:05:46.012,0.768365,-0.000000,-0.000000,-0.000000,0.000000,6.140671,-2.112616,-0.000000,-0.000752,-0.001582,-0.000953,-0.000000,-0.000453,-0.001707,0.000472,-0.000099,0.397758,0.308811,9.696129,0.000000,0.000000,0,0,,38.990287,-76.940898,-9.339000,,,
2026-09-11T19:05:46.046,0.801766,-0.000000,-0.000000,-0.000000,0.000000,6.140671,-2.112616,-0.000000,-0.000690,-0.001453,-0.001004,-0.000000,-0.000477,0.001661,0.000545,0.000030,0.397954,0.303614,9.693874,0.000000,0.000000,0,0,,38.990287,-76.940898,-9.339000,,,
2026-09-11T19:05:46.079,0.835186,-0.000000,-0.000000,-0.000000,0.000000,6.140671,-2.112616,-0.000000,-0.000967,-0.002036,-0.001062,-0.000000,-0.000505,-0.000653,-0.000039,-0.000552,0.392364,0.306360,9.702700,0.000000,0.000000,0,0,,38.990287,-76.940898,-9.339000,,,
2026-09-11T19:05:46.112,0.868589,-0.000000,-0.000000,-0.000000,0.000000,6.140671,-2.112616,-0.000000,-0.000947,-0.001993,-0.001130,-0.000000,-0.000537,-0.000502,0.000228,-0.000510,0.393933,0.301162,9.694658,0.000000,0.000000,0,0,,38.990287,-76.940898,-9.339000,,,
2026-09-11T19:05:46.146,0.901989,-0.000000,-0.000000,-0.000000,0.000000,6.140671,-2.112616,-0.000000,0.000229,0.000483,-0.001155,-0.000000,-0.000549,0.002636,0.001191,0.001966,0.394718,0.305869,9.691912,0.000000,0.000000,0,0,,38.990287,-76.940898,-9.339000,,,
2026-09-11T19:05:46.179,0.935389,-0.000000,-0.000000,-0.000000,0.000000,6.140671,-2.112616,-0.000000,0.000274,0.000578,-0.001137,-0.000000,-0.000540,-0.002913,0.000003,0.002061,0.396875,0.299103,9.685930,0.000000,0.000000,0,0,,38.990287,-76.940898,-9.339000,,,
2026-09-11T19:05:46.213,0.968797,-0.000000,-0.000000,-0.000000,0.000000,6.140671,-2.112616,-0.000000,-0.001599,-0.003366,-0.001184,-0.000000,-0.000562,0.000843,0.001269,-0.001883,0.394718,0.309890,9.693972,0.000000,0.000000,0,0,,38.990287,-76.940898,-9.339000,,,
2026-09-11T19:05:46.246,1.002207,-0.000000,-0.000000,-0.000000,0.000000,6.140671,-2.112616,-0.000000,-0.000727,-0.001530,-0.001265,-0.000000,-0.000601,0.002573,0.001331,-0.000046,0.391285,0.306164,9.693972,0.000000,0.000000,0,0,,38.990287,-76.940898,-9.339000,,,
2026-09-11T19:05:46.280,1.035615,-0.000000,-0.000000,-0.000000,0.000000,6.140671,-2.112616,-0.000000,-0.000282,-0.000594,-0.001301,-0.000000,-0.000618,-0.000304,0.000666,0.000889,0.391089,0.304889,9.698189,0.000000,0.000000,0,0,,38.990287,-76.940898,-9.339000,,,
2026-09-11T19:05:46.313,1.069019,-0.000000,-0.000000,-0.000000,0.000000,6.140671,-2.112616,-0.000000,-0.000396,-0.000834,-0.001325,-0.000000,-0.000629,0.001314,0.001067,0.000649,0.393051,0.307144,9.693481,0.000000,0.000000,0,0,,38.990287,-76.940898,-9.339000,,,
2026-09-11T19:05:46.346,1.102420,-0.000000,-0.000000,-0.000000,0.000000,6.140671,-2.112616,-0.000000,-0.000538,-0.001133,-0.001358,-0.000000,-0.000645,0.000431,-0.000755,0.000351,0.392266,0.303418,9.688480,0.000000,0.000000,0,0,,38.990287,-76.940898,-9.339000,,,
2026-09-11T19:05:46.380,1.135823,-0.000000,-0.000000,-0.000000,0.000000,6.140671,-2.112616,-0.000000,-0.001804,-0.003797,-0.001440,-0.000000,-0.000684,0.000207,0.000533,-0.002313,0.396777,0.308615,9.707603,0.000000,0.000000,0,0,,38.990287,-76.940898,-9.339000,,,
2026-09-11T19:05:46.413,1.169233,-0.000000,-0.000000,-0.000000,0.000000,6.140671,-2.112616,-0.000000,-0.001437,-0.003026,-0.001554,-0.000001,-0.000738,0.001536,0.001013,-0.001543,0.394914,0.299397,9.691716,0.000000,0.000000,0,0,,38.990287,-76.940898,-9.339000,,,
2026-09-11T19:05:46.447,1.202640,-0.000000,-0.000000,-0.000000,0.000000,6.140671,-2.112616,-0.000000,0.000019,0.000040,-0.001604,-0.000001,-0.000762,0.001031,-0.001126,0.001524,0.392756,0.307340,9.696914,0.000000,0.000000,0,0,,38.990287,-76.940898,-9.339000,,,
2026-09-11T19:05:46.480,1.236040,-0.000000,-0.000000,-0.000000,0.000000,6.140671,-2.112616,-0.000000,-0.000663,-0.001397,-0.001626,-0.000001,-0.000773,0.000980,0.002167,0.000087,0.396973,0.303908,9.694854,0.000000,0.000000,0,0,,38.990287,-76.940898,-9.339000,,,
2026-09-11T19:05:46.513,1.269440,-0.000000,-0.000000,-0.000000,0.000000,6.140671,-2.112616,-0.000000,-0.001623,-0.003416,-0.001707,-0.000001,-0.000811,-0.000528,0.000079,-0.001932,0.396483,0.310871,9.700444,0.000000,0.000000,0,0,,38.990287,-76.940898,-9.339000,,,
2026-09-11T19:05:46.547,1.302843,-0.000000,-0.000000,-0.000000,0.000000,6.140671,-2.112616,-0.000000,-0.000763,-0.001607,-0.001791,-0.000001,-0.000851,0.001521,-0.000692,-0.000124,0.394816,0.308615,9.701131,0.000000,0.000000,0,0,,38.990287,-76.940898,-9.339000,,,
2026-09-11T19:05:46.580,1.336259,-0.000000,-0.000000,-0.000000,0.000000,6.140671,-2.112616,-0.000000,-0.001540,-0.003243,-0.001872,-0.000001,-0.000889,-0.000312,0.000633,-0.001759,0.394325,0.309890,9.701915,0.000000,0.000000,0,0,,38.990287,-76.940898,-9.339000,,,
2026-09-11T19:05:46.614,1.369668,-0.000000,-0.000000,-0.000000,0.000000,6.140671,-2.112616,-0.000000,-0.000203,-0.000427,-0.001933,-0.000001,-0.000918,0.001595,-0.001204,0.001056,0.394031,0.307929,9.693383,0.000000,0.000000,0,0,,38.990287,-76.940898,-9.339000,,,
2026-09-11T19:05:46.647,1.403077,-0.000000,-0.000000,-0.000000,0.000000,6.140671,-2.112616,-0.000000,-0.000101,-0.000213,-0.001944,-0.000001,-0.000923,-0.001340,-0.001889,0.001270,0.393443,0.303614,9.686715,0.000000,0.000000,0,0,,38.990287,-76.940898,-9.339000,,,
2026-09-11T19:05:46.680,1.436476,-0.000000,-0.000000,-0.000000,0.000000,6.140671,-2.112616,-0.000000,-0.001284,-0.002704,-0.001992,-0.000001,-0.000946,0.001779,-0.000220,-0.001220,0.393345,0.308125,9.698189,0.000000,0.000000,0,0,,38.990287,-76.940898,-9.339000,,,
2026-09-11T19:05:46.713,1.469881,-0.000000,-0.000000,-0.000000,0.000000,6.140671,-2.112616,-0.000000,-0.001178,-0.002480,-0.002079,-0.000001,-0.000988,0.001205,-0.001400,-0.000996,0.396483,0.306850,9.690637,0.000000,0.000000,0,0,,38.990287,-76.940898,-9.339000,,,
2026-09-11T19:05:46.747,1.503282,-0.000000,-0.000000,-0.000000,0.000000,6.140671,-2.112616,-0.000000,-0.000629,-0.001325,-0.002143,-0.000001,-0.001018,-0.001652,-0.001558,0.000159,0.397464,0.308125,9.701915,0.000000,0.000000,0,0,,38.990287,-76.940898,-9.339000,,,
2026-09-11T19:05:46.781,1.536692,-0.000000,-0.000000,-0.000000,0.000000,6.140671,-2.112616,-0.000000,-0.000742,-0.001563,-0.002191,-0.000001,-0.001041,0.003166,-0.000226,-0.000079,0.394031,0.307340,9.702700,0.000000,0.000000,0,0,,38.990287,-76.940898,-9.339000,,,
2026-09-11T19:05:46.814,1.570092,-0.000000,-0.000000,-0.000000,0.000000,6.140671,-2.112616,-0.000000,0.000315,0.000663,-0.002206,-0.000001,-0.001048,-0.001314,-0.000988,0.002147,0.393247,0.306360,9.698385,0.000000,0.000000,0,0,,38.990287,-76.940898,-9.339000,,,
2026-09-11T19:05:46.846,1.603494,-0.000000,-0.000000,-0.000000,0.000000,6.140671,-2.112616,-0.000000,-0.000440,-0.000926,-0.002210,-0.000001,-0.001050,-0.000269,-0.000811,0.000557,0.394522,0.306360,9.702405,0.000000,0.000000,0,1,1.597971,38.990287,-76.940898,-9.348000,-0.026648,-0.009637,2.823521
2026-09-11T19:05:46.881,1.636896,-0.000000,-0.000000,-0.000000,0.000000,6.140671,-2.112616,-0.000000,-0.000743,-0.001563,-0.002252,-0.000001,-0.001070,0.001522,-0.000715,-0.000080,0.397464,0.305379,9.695443,0.000000,0.000000,0,0,,38.990287,-76.940898,-9.348000,,,
2026-09-11T19:05:46.915,1.670298,-0.000000,-0.000000,-0.000000,0.000000,6.140671,-2.112616,-0.000000,-0.000510,-0.001074,-0.002296,-0.000001,-0.001091,-0.002134,0.000243,0.000410,0.394227,0.306850,9.698679,0.000000,0.000000,0,0,,38.990287,-76.940898,-9.348000,,,
2026-09-11T19:05:46.948,1.703712,-0.000000,-0.000000,-0.000000,0.000000,6.140671,-2.112616,-0.000000,-0.000434,-0.000913,-0.002329,-0.000001,-0.001106,-0.001078,0.000435,0.000571,0.394227,0.304595,9.692207,0.000000,0.000000,0,0,,38.990287,-76.940898,-9.348000,,,
2026-09-11T19:05:46.985,1.737132,-0.000000,-0.000000,-0.000000,0.000000,6.140671,-2.112616,-0.000000,-0.000226,-0.000476,-0.002352,-0.000001,-0.001117,0.000404,-0.001111,0.001007,0.392952,0.302437,9.691422,0.000000,0.000000,0,0,,38.990287,-76.940898,-9.348000,,,
2026-09-11T19:05:47.015,1.770533,-0.000000,-0.000000,-0.000000,0.000000,6.140671,-2.112616,-0.000000,-0.000438,-0.000922,-0.002376,-0.000001,-0.001128,-0.002080,-0.000309,0.000561,0.394718,0.304104,9.688970,0.000000,0.000000,0,0,,38.990287,-76.940898,-9.348000,,,
2026-09-11T19:05:47.048,1.803937,-0.000000,-0.000000,-0.000000,0.000000,6.140671,-2.112616,-0.000000,-0.001044,-0.002197,-0.002428,-0.000001,-0.001153,-0.001628,0.000234,-0.000713,0.393541,0.309106,9.697208,0.000000,0.000000,0,0,,38.990287,-76.940898,-9.348000,,,
2026-09-11T19:05:47.082,1.837342,-0.000000,-0.000000,-0.000000,0.000000,6.140671,-2.112616,-0.000000,-0.000784,-0.001650,-0.002492,-0.000001,-0.001184,-0.000094,-0.000165,-0.000166,0.395306,0.312832,9.700640,0.000000,0.000000,0,0,,38.990287,-76.940898,-9.348000,,,
2026-09-11T19:05:47.115,1.870751,-0.000000,-0.000000,-0.000000,0.000000,6.140671,-2.112616,-0.000000,0.000020,0.000042,-0.002519,-0.000002,-0.001196,-0.002169,-0.000446,0.001525,0.397660,0.305869,9.693678,0.000000,0.000000,0,0,,38.990287,-76.940898,-9.348000,,,
2026-09-11T19:05:47.148,1.904157,-0.000000,-0.000000,-0.000000,0.000000,6.140671,-2.112616,-0.000000,-0.000596,-0.001255,-0.002539,-0.000002,-0.001206,0.000153,0.001691,0.000228,0.395502,0.306654,9.693678,0.000000,0.000000,0,0,,38.990287,-76.940898,-9.348000,,,
2026-09-11T19:05:47.181,1.937558,-0.000000,-0.000000,-0.000000,0.000000,6.140671,-2.112616,-0.000000,-0.000319,-0.000672,-0.002571,-0.000002,-0.001221,-0.001256,-0.000628,0.000812,0.393933,0.298122,9.685636,0.000000,0.000000,0,0,,38.990287,-76.940898,-9.348000,,,
2026-09-11T19:05:47.214,1.970958,-0.000000,-0.000000,-0.000000,0.000000,6.140671,-2.112616,-0.000000,-0.000830,-0.001746,-0.002612,-0.000002,-0.001241,-0.000959,0.000198,-0.000263,0.394522,0.308615,9.700444,0.000000,0.000000,0,0,,38.990287,-76.940898,-9.348000,,,
2026-09-11T19:05:47.248,2.004360,-0.000000,-0.000000,-0.000000,0.000000,6.140671,-2.112616,-0.000000,-0.000992,-0.002089,-0.002676,-0.000002,-0.001271,-0.000092,-0.000913,-0.000605,0.393737,0.303418,9.691226,0.000000,0.000000,0,0,,38.990287,-76.940898,-9.348000,,,
2026-09-11T19:05:47.282,2.037763,-0.000000,-0.000000,-0.000000,0.000000,6.140671,-2.112616,-0.000000,-0.000219,-0.000461,-0.002718,-0.000002,-0.001291,-0.002408,-0.001375,0.001023,0.392756,0.304889,9.695149,0.000000,0.000000,0,0,,38.990287,-76.940898,-9.348000,,,
2026-09-11T19:05:47.315,2.071174,-0.000000,-0.000000,-0.000000,0.000000,6.140671,-2.112616,-0.000000,-0.000443,-0.000934,-0.002742,-0.000002,-0.001302,0.000482,0.000591,0.000550,0.397856,0.303614,9.692108,0.000000,0.000000,0,0,,38.990287,-76.940898,-9.348000,,,
2026-09-11T19:05:47.349,2.104583,-0.000000,-0.000000,-0.000000,0.000000,6.140671,-2.112616,-0.000000,0.000344,0.000724,-0.002745,-0.000002,-0.001304,-0.002483,-0.000653,0.002207,0.393051,0.304889,9.693972,0.000000,0.000000,0,0,,38.990287,-76.940898,-9.348000,,,
2026-09-11T19:05:47.383,2.137984,-0.000000,-0.000000,-0.000000,0.000000,6.140671,-2.112616,-0.000000,-0.000977,-0.002057,-0.002767,-0.000002,-0.001314,-0.002303,-0.000086,-0.000573,0.398640,0.305869,9.697894,0.000000,0.000000,0,0,,38.990287,-76.940898,-9.348000,,,
2026-09-11T19:05:47.415,2.171386,-0.000000,-0.000000,-0.000000,0.000000,6.140671,-2.112616,-0.000000,-0.000910,-0.001917,-0.002834,-0.000002,-0.001346,0.002040,0.001148,-0.000433,0.394620,0.301947,9.686224,0.000000,0.000000,0,0,,38.990287,-76.940898,-9.348000,,,
2026-09-11T19:05:47.449,2.204788,-0.000000,-0.000000,-0.000000,0.000000,6.140671,-2.112616,-0.000000,0.000036,0.000076,-0.002864,-0.000002,-0.001361,-0.001488,-0.000348,0.001560,0.398640,0.305379,9.694364,0.000000,0.000000,0,0,,38.990287,-76.940898,-9.348000,,,
2026-09-11T19:05:47.482,2.238196,-0.000000,-0.000000,-0.000000,0.000000,6.140671,-2.112616,-0.000000,-0.001088,-0.002290,-0.002901,-0.000002,-0.001378,-0.001191,0.000307,-0.000807,0.394522,0.305085,9.696423,0.000000,0.000000,0,0,,38.990287,-76.940898,-9.348000,,,
2026-09-11T19:05:47.515,2.271597,-0.000000,-0.000000,-0.000000,0.000000,6.140671,-2.112616,-0.000000,-0.000711,-0.001496,-0.002965,-0.000002,-0.001408,0.001413,-0.000694,-0.000013,0.395012,0.308125,9.700934,0.000000,0.000000,0,0,,38.990287,-76.940898,-9.348000,,,
2026-09-11T19:05:47.549,2.304998,-0.000000,-0.000000,-0.000000,0.000000,6.140671,-2.112616,-0.000000,-0.001231,-0.002592,-0.003033,-0.000002,-0.001441,-0.001589,0.000059,-0.001108,0.394227,0.306360,9.697698,0.000000,0.000000,0,0,,38.990287,-76.940898,-9.348000,,,
2026-09-11T19:05:47.582,2.338412,-0.000000,-0.000000,-0.000000,0.000000,6.140671,-2.112616,-0.000000,-0.000339,-0.000713,-0.003088,-0.000002,-0.001467,-0.001208,0.000586,0.000770,0.392952,0.302143,9.689657,0.000000,0.000000,0,0,,38.990287,-76.940898,-9.348000,,,
2026-09-11T19:05:47.616,2.371830,-0.000000,-0.000000,-0.000000,0.000000,6.140671,-2.112616,-0.000000,-0.001266,-0.002666,-0.003145,-0.000002,-0.001494,0.002301,0.000251,-0.001183,0.394522,0.305379,9.695443,0.000000,0.000000,0,0,,38.990287,-76.940898,-9.348000,,,
2026-09-11T19:05:47.650,2.405240,-0.000000,-0.000000,-0.000000,0.000000,6.140671,-2.112616,-0.000000,-0.001154,-0.002429,-0.003230,-0.000002,-0.001534,-0.002128,0.001066,-0.000945,0.395993,0.307144,9.692403,0.000000,0.000000,0,0,,38.990287,-76.940898,-9.348000,,,
2026-09-11T19:05:47.683,2.438686,-0.000000,-0.000000,-0.000000,0.000000,6.140671,-2.112616,-0.000000,-0.000879,-0.001850,-0.003301,-0.000003,-0.001568,0.000449,0.001720,-0.000366,0.394718,0.304398,9.689657,0.000000,0.000000,0,0,,38.990287,-76.940898,-9.348000,,,
2026-09-11T19:05:47.716,2.472085,-0.000000,-0.000000,-0.000000,0.000000,6.140671,-2.112616,-0.000000,-0.000449,-0.000946,-0.003348,-0.000003,-0.001590,0.001141,-0.000922,0.000538,0.393737,0.305575,9.699463,0.000000,0.000000,0,0,,38.990287,-76.940898,-9.348000,,,
2026-09-11T19:05:47.749,2.505487,-0.000000,-0.000000,-0.000000,0.000000,6.140671,-2.112616,-0.000000,-0.000513,-0.001079,-0.003382,-0.000003,-0.001606,0.000010,0.001136,0.000404,0.395698,0.303124,9.690637,0.000000,0.000000,0,0,,38.990287,-76.940898,-9.348000,,,
2026-09-11T19:05:47.783,2.538897,-0.000000,-0.000000,-0.000000,0.000000,6.140671,-2.112616,-0.000000,-0.001336,-0.002812,-0.003447,-0.000003,-0.001637,0.001832,0.000553,-0.001329,0.394816,0.308125,9.697894,0.000000,0.000000,0,0,,38.990287,-76.940898,-9.348000,,,
2026-09-11T19:05:47.816,2.572307,-0.000000,-0.000000,-0.000000,0.000000,6.140671,-2.112616,-0.000000,-0.000318,-0.000670,-0.003505,-0.000003,-0.001665,0.000116,-0.001203,0.000814,0.394522,0.307831,9.696914,0.000000,0.000000,0,0,,38.990287,-76.940898,-9.348000,,,
2026-09-11T19:05:47.850,2.605717,-0.000000,-0.000000,-0.000000,0.000000,6.140671,-2.112616,-0.000000,-0.000422,-0.000888,-0.003531,-0.000003,-0.001677,0.000332,0.000368,0.000595,0.393541,0.306164,9.703680,0.000000,0.000000,0,1,2.596839,38.990287,-76.940898,-9.348000,-0.042349,-0.012602,2.823521
2026-09-11T19:05:47.883,2.639117,-0.000000,-0.000000,-0.000000,0.000000,6.140671,-2.112616,-0.000000,-0.001109,-0.002335,-0.003585,-0.000003,-0.001703,0.002148,0.000689,-0.000851,0.396973,0.306066,9.697110,0.000000,0.000000,0,0,,38.990287,-76.940898,-9.348000,,,
2026-09-11T19:05:47.916,2.672518,-0.000000,-0.000000,-0.000000,0.000000,6.140671,-2.112616,-0.000000,-0.000653,-0.001375,-0.003647,-0.000003,-0.001732,0.000457,-0.001416,0.000108,0.393247,0.305183,9.696423,0.000000,0.000000,0,0,,38.990287,-76.940898,-9.348000,,,
2026-09-11T19:05:47.951,2.705931,-0.000000,-0.000000,-0.000000,0.000000,6.140671,-2.112616,-0.000000,-0.001049,-0.002208,-0.003707,-0.000003,-0.001761,0.002562,0.001158,-0.000725,0.394914,0.303418,9.692403,0.000000,0.000000,0,0,,38.990287,-76.940898,-9.348000,,,
2026-09-11T19:05:47.983,2.739351,-0.000000,-0.000000,-0.000000,0.000000,6.140671,-2.112616,-0.000000,-0.000695,-0.001463,-0.003768,-0.000003,-0.001790,0.002285,-0.000042,0.000021,0.394816,0.311361,9.698875,0.000000,0.000000,0,0,,38.990287,-76.940898,-9.348000,,,
2026-09-11T19:05:48.017,2.772763,-0.000000,-0.000000,-0.000000,0.000000,6.140671,-2.112616,-0.000000,-0.000623,-0.001312,-0.003814,-0.000003,-0.001812,-0.002599,-0.001484,0.000172,0.398150,0.304595,9.699169,0.000000,0.000000,0,0,,38.990287,-76.940898,-9.348000,,,
2026-09-11T19:05:48.050,2.806165,-0.000000,-0.000000,-0.000000,0.000000,6.140671,-2.112616,-0.000000,-0.001093,-0.002301,-0.003875,-0.000004,-0.001840,0.001208,0.000255,-0.000818,0.392854,0.309106,9.700150,0.000000,0.000000,0,0,,38.990287,-76.940898,-9.348000,,,
2026-09-11T19:05:48.083,2.839566,-0.000000,-0.000000,-0.000000,0.000000,6.140671,-2.112616,-0.000000,-0.000555,-0.001168,-0.003933,-0.000004,-0.001868,0.001458,-0.000342,0.000316,0.394620,0.300378,9.683969,0.000000,0.000000,0,0,,38.990287,-76.940898,-9.348000,,,
2026-09-11T19:05:48.117,2.872967,-0.000000,-0.000000,-0.000000,0.000000,6.140671,-2.112616,-0.000000,-0.000945,-0.001990,-0.003985,-0.000004,-0.001893,-0.002511,-0.000906,-0.000507,0.395208,0.306654,9.690932,0.000000,0.000000,0,0,,38.990287,-76.940898,-9.348000,,,
2026-09-11T19:05:48.151,2.906377,-0.000000,-0.000000,-0.000000,0.000000,6.140671,-2.112616,-0.000000,0.000036,0.000076,-0.004017,-0.000004,-0.001908,0.001687,-0.000830,0.001559,0.394423,0.303908,9.692697,0.000000,0.000000,0,0,,38.990287,-76.940898,-9.348000,,,
2026-09-11T19:05:48.183,2.939778,-0.000000,-0.000000,-0.000000,0.000000,6.140671,-2.112616,-0.000000,-0.000392,-0.000825,-0.004030,-0.000004,-0.001914,0.002017,-0.000490,0.000658,0.395306,0.311067,9.700934,0.000000,0.000000,0,0,,38.990287,-76.940898,-9.348000,,,
2026-09-11T19:05:48.217,2.973181,-0.000000,-0.000000,-0.000000,0.000000,6.140671,-2.112616,-0.000000,-0.000682,-0.001436,-0.004068,-0.000004,-0.001932,-0.001338,-0.000560,0.000047,0.396189,0.302829,9.695933,0.000000,0.000000,0,0,,38.990287,-76.940898,-9.348000,,,
2026-09-11T19:05:48.250,3.006584,-0.000000,-0.000000,-0.000000,0.000000,6.140671,-2.112616,-0.000000,-0.000109,-0.000230,-0.004095,-0.000004,-0.001945,-0.000129,-0.002003,0.001253,0.394031,0.306654,9.697404,0.000000,0.000000,0,0,,38.990287,-76.940898,-9.348000,,,
2026-09-11T19:05:48.284,3.039995,-0.000000,-0.000000,-0.000000,0.000000,6.140671,-2.112616,-0.000000,0.000001,0.000002,-0.004099,-0.000004,-0.001947,0.000614,-0.001309,0.001485,0.395502,0.303908,9.693874,0.000000,0.000000,0,0,,38.990287,-76.940898,-9.348000,,,
2026-09-11T19:05:48.317,3.073406,-0.000000,-0.000000,-0.000000,0.000000,6.140671,-2.112616,-0.000000,-0.000983,-0.002070,-0.004134,-0.000004,-0.001964,-0.002819,0.000634,-0.000587,0.389814,0.307144,9.694952,0.000000,0.000000,0,0,,38.990287,-76.940898,-9.348000,,,
2026-09-11T19:05:48.350,3.106808,-0.000000,-0.000000,-0.000000,0.000000,6.140671,-2.112616,-0.000000,-0.000549,-0.001155,-0.004188,-0.000004,-0.001989,0.000313,-0.001860,0.000328,0.394522,0.307831,9.695639,0.000000,0.000000,0,0,,38.990287,-76.940898,-9.348000,,,
2026-09-11T19:05:48.384,3.140209,-0.000000,-0.000000,-0.000000,0.000000,6.140671,-2.112616,-0.000000,-0.000784,-0.001650,-0.004235,-0.000004,-0.002011,-0.001838,-0.001339,-0.000167,0.395404,0.303908,9.688872,0.000000,0.000000,0,0,,38.990287,-76.940898,-9.348000,,,
2026-09-11T19:05:48.418,3.173619,-0.000000,-0.000000,-0.000000,0.000000,6.140671,-2.112616,-0.000000,-0.000292,-0.000614,-0.004272,-0.000004,-0.002029,-0.002003,0.000927,0.000869,0.397464,0.305575,9.693678,0.000000,0.000000,0,0,,38.990287,-76.940898,-9.348000,,,
2026-09-11T19:05:48.451,3.207030,-0.000000,-0.000000,-0.000000,0.000000,6.140671,-2.112616,-0.000000,-0.000536,-0.001128,-0.004301,-0.000004,-0.002043,-0.001751,-0.002156,0.000356,0.394718,0.303124,9.695149,0.000000,0.000000,0,0,,38.990287,-76.940898,-9.348000,,,
2026-09-11T19:05:48.484,3.240439,-0.000000,-0.000000,-0.000000,0.000000,6.140671,-2.112616,-0.000000,-0.000112,-0.000235,-0.004324,-0.000004,-0.002054,-0.001222,-0.000916,0.001249,0.393051,0.312146,9.700444,0.000000,0.000000,0,0,,38.990287,-76.940898,-9.348000,,,
2026-09-11T19:05:48.518,3.273840,-0.000000,-0.000000,-0.000000,0.000000,6.140671,-2.112616,-0.000000,-0.001681,-0.003539,-0.004387,-0.000005,-0.002084,0.000704,0.001533,-0.002055,0.392266,0.300378,9.694168,0.000000,0.000000,0,0,,38.990287,-76.940898,-9.348000,,,
2026-09-11T19:05:48.551,3.307250,-0.000000,-0.000000,-0.000000,0.000000,6.140671,-2.112616,-0.000000,-0.000230,-0.000484,-0.004454,-0.000005,-0.002116,-0.000651,-0.001171,0.001000,0.395796,0.307831,9.699169,0.000000,0.000000,0,0,,38.990287,-76.940898,-9.348000,,,
2026-09-11T19:05:48.584,3.340659,-0.000000,-0.000000,-0.000000,0.000000,6.140671,-2.112616,-0.000000,-0.000342,-0.000719,-0.004475,-0.000005,-0.002125,-0.002516,-0.000272,0.000764,0.395894,0.302633,9.694168,0.000000,0.000000,0,0,,38.990287,-76.940898,-9.348000,,,
2026-09-11T19:05:48.618,3.374061,-0.000000,-0.000000,-0.000000,0.000000,6.140671,-2.112616,-0.000000,-0.001348,-0.002838,-0.004534,-0.000005,-0.002154,0.002034,0.000270,-0.001354,0.395110,0.303124,9.684459,0.000000,0.000000,0,0,,38.990287,-76.940898,-9.348000,,,
2026-09-11T19:05:48.651,3.407464,-0.000000,-0.000000,-0.000000,0.000000,6.140671,-2.112616,-0.000000,-0.000279,-0.000587,-0.004591,-0.000005,-0.002181,-0.000976,-0.000095,0.000897,0.394227,0.303614,9.700934,0.000000,0.000000,0,0,,38.990287,-76.940898,-9.348000,,,
2026-09-11T19:05:48.684,3.440865,-0.000000,-0.000000,-0.000000,0.000000,6.140671,-2.112616,-0.000000,-0.001104,-0.002324,-0.004640,-0.000005,-0.002204,-0.000294,0.000674,-0.000840,0.394325,0.308321,9.701915,0.000000,0.000000,0,0,,38.990287,-76.940898,-9.348000,,,
2026-09-11T19:05:48.718,3.474268,-0.000000,-0.000000,-0.000000,0.000000,6.140671,-2.112616,-0.000000,-0.001078,-0.002269,-0.004716,-0.000005,-0.002240,-0.001369,-0.001108,-0.000785,0.394325,0.308419,9.697698,0.000000,0.000000,0,0,,38.990287,-76.940898,-9.348000,,,
2026-09-11T19:05:48.753,3.507677,-0.000000,-0.000000,-0.000000,0.000000,6.140671,-2.112616,-0.000000,-0.000555,-0.001169,-0.004774,-0.000005,-0.002268,-0.001441,0.000938,0.000314,0.394031,0.305869,9.694168,0.000000,0.000000,0,0,,38.990287,-76.940898,-9.348000,,,
2026-09-11T19:05:48.785,3.541101,-0.000000,-0.000000,-0.000000,0.000000,6.140671,-2.112616,-0.000000,0.000209,0.000441,-0.004786,-0.000005,-0.002273,-0.000708,0.001052,0.001924,0.394227,0.304398,9.692893,0.000000,0.000000,0,0,,38.990287,-76.940898,-9.348000,,,
2026-09-11T19:05:48.819,3.574550,-0.000000,-0.000000,-0.000000,0.000000,6.140671,-2.112616,-0.000000,-0.000110,-0.000231,-0.004783,-0.000005,-0.002272,-0.001733,-0.002138,0.001253,0.395208,0.309106,9.688382,0.000000,0.000000,0,0,,38.990287,-76.940898,-9.348000,,,
2026-09-11T19:05:48.853,3.608014,-0.000000,-0.000000,-0.000000,0.000000,6.140671,-2.112616,-0.000000,-0.000954,-0.002009,-0.004820,-0.000006,-0.002289,-0.000841,0.000885,-0.000526,0.394816,0.309596,9.703680,0.000000,0.000000,0,1,3.594730,38.990287,-76.940898,-9.358000,-0.050127,-0.023166,2.823521
2026-09-11T19:05:48.885,3.641419,-0.000000,-0.000000,-0.000000,0.000000,6.140671,-2.112616,-0.000000,-0.000075,-0.000158,-0.004856,-0.000006,-0.002307,0.001623,0.001929,0.001325,0.397464,0.306850,9.693383,0.000000,0.000000,0,0,,38.990287,-76.940898,-9.358000,,,
2026-09-11T19:05:48.919,3.674829,-0.000000,-0.000000,-0.000000,0.000000,6.140671,-2.112616,-0.000000,0.000685,0.001443,-0.004835,-0.000006,-0.002297,-0.002493,-0.002157,0.002927,0.394031,0.305869,9.695149,0.000000,0.000000,0,0,,38.990287,-76.940898,-9.358000,,,
2026-09-11T19:05:48.953,3.708246,-0.000000,-0.000000,-0.000000,0.000000,6.140671,-2.112616,-0.000000,-0.000571,-0.001203,-0.004831,-0.000006,-0.002295,-0.000582,0.000797,0.000280,0.395502,0.306164,9.694462,0.000000,0.000000,0,0,,38.990287,-76.940898,-9.358000,,,
2026-09-11T19:05:48.986,3.741661,-0.000000,-0.000000,-0.000000,0.000000,6.140671,-2.112616,-0.000000,-0.000333,-0.000701,-0.004863,-0.000006,-0.002310,0.002851,0.001464,0.000782,0.393541,0.304889,9.695443,0.000000,0.000000,0,0,,38.990287,-76.940898,-9.358000,,,
2026-09-11T19:05:49.019,3.775067,-0.000000,-0.000000,-0.000000,0.000000,6.140671,-2.112616,-0.000000,0.000204,0.000429,-0.004867,-0.000006,-0.002312,-0.003284,-0.000443,0.001912,0.392854,0.309890,9.701425,0.000000,0.000000,0,0,,38.990287,-76.940898,-9.358000,,,
2026-09-11T19:05:49.053,3.808473,-0.000000,-0.000000,-0.000000,0.000000,6.140671,-2.112616,-0.000000,-0.001645,-0.003462,-0.004918,-0.000006,-0.002336,0.001417,0.000991,-0.001979,0.391776,0.307438,9.697698,0.000000,0.000000,0,0,,38.990287,-76.940898,-9.358000,,,
2026-09-11T19:05:49.086,3.841875,-0.000000,-0.000000,-0.000000,0.000000,6.140671,-2.112616,-0.000000,-0.001605,-0.003378,-0.005032,-0.000006,-0.002390,-0.000067,0.000218,-0.001895,0.395502,0.306654,9.693187,0.000000,0.000000,0,0,,38.990287,-76.940898,-9.358000,,,
2026-09-11T19:05:49.120,3.875291,-0.000000,-0.000000,-0.000000,0.000000,6.140671,-2.112616,-0.000000,0.000409,0.000861,-0.005074,-0.000006,-0.002410,-0.002756,0.000159,0.002344,0.396483,0.308615,9.700640,0.000000,0.000000,0,0,,38.990287,-76.940898,-9.358000,,,
2026-09-11T19:05:49.153,3.908713,-0.000000,-0.000000,-0.000000,0.000000,6.140671,-2.112616,-0.000000,-0.001582,-0.003331,-0.005115,-0.000006,-0.002430,0.001501,0.001522,-0.001848,0.395208,0.306360,9.696620,0.000000,0.000000,0,0,,38.990287,-76.940898,-9.358000,,,
2026-09-11T19:05:49.186,3.942119,-0.000000,-0.000000,-0.000000,0.000000,6.140671,-2.112616,-0.000000,-0.000341,-0.000718,-0.005183,-0.000006,-0.002462,0.003860,0.000067,0.000766,0.395993,0.309302,9.701621,0.000000,0.000000,0,0,,38.990287,-76.940898,-9.358000,,,
2026-09-11T19:05:49.220,3.975523,-0.000000,-0.000000,-0.000000,0.000000,6.140671,-2.112616,-0.000000,0.000086,0.000181,-0.005192,-0.000006,-0.002466,-0.001073,0.000055,0.001664,0.394423,0.305183,9.689166,0.000000,0.000000,0,0,,38.990287,-76.940898,-9.358000,,,
2026-09-11T19:05:49.253,4.008929,-0.000000,-0.000000,-0.000000,0.000000,6.140671,-2.112616,-0.000000,-0.001647,-0.003468,-0.005247,-0.000007,-0.002492,0.000167,0.000708,-0.001984,0.393541,0.309596,9.696423,0.000000,0.000000,0,0,,38.990287,-76.940898,-9.358000,,,
2026-09-11T19:05:49.286,4.042331,-0.000000,-0.000000,-0.000000,0.000000,6.140671,-2.112616,-0.000000,-0.000267,-0.000563,-0.005314,-0.000007,-0.002524,0.002143,0.000372,0.000921,0.397660,0.301849,9.694168,0.000000,0.000000,0,0,,38.990287,-76.940898,-9.358000,,,
2026-09-11T19:05:49.320,4.075738,-0.000000,-0.000000,-0.000000,0.000000,6.140671,-2.112616,-0.000000,-0.000439,-0.000923,-0.005339,-0.000007,-0.002536,-0.000145,0.001376,0.000560,0.395698,0.307635,9.697208,0.000000,0.000000,0,0,,38.990287,-76.940898,-9.358000,,,
2026-09-11T19:05:49.353,4.109157,-0.000000,-0.000000,-0.000000,0.000000,6.140671,-2.112616,-0.000000,-0.001118,-0.002353,-0.005394,-0.000007,-0.002562,0.000156,-0.000114,-0.000870,0.395698,0.302339,9.695639,0.000000,0.000000,0,0,,38.990287,-76.940898,-9.358000,,,
2026-09-11T19:05:49.386,4.142558,-0.000000,-0.000000,-0.000000,0.000000,6.140671,-2.112616,-0.000000,-0.000050,-0.000104,-0.005435,-0.000007,-0.002582,0.000370,-0.001290,0.001379,0.394718,0.307144,9.687401,0.000000,0.000000,0,0,,38.990287,-76.940898,-9.358000,,,
2026-09-11T19:05:49.420,4.175962,-0.000000,-0.000000,-0.000000,0.000000,6.140671,-2.112616,-0.000000,-0.001053,-0.002217,-0.005474,-0.000007,-0.002600,-0.000034,0.001096,-0.000733,0.397365,0.305085,9.686617,0.000000,0.000000,0,0,,38.990287,-76.940898,-9.358000,,,
2026-09-11T19:05:49.453,4.209380,-0.000000,-0.000000,-0.000000,0.000000,6.140671,-2.112616,-0.000000,-0.000436,-0.000919,-0.005526,-0.000007,-0.002625,0.002414,-0.000704,0.000565,0.392756,0.306948,9.690147,0.000000,0.000000,0,0,,38.990287,-76.940898,-9.358000,,,
2026-09-11T19:05:49.487,4.242787,-0.000000,-0.000000,-0.000000,0.000000,6.140671,-2.112616,-0.000000,-0.000654,-0.001378,-0.005564,-0.000007,-0.002643,0.000654,-0.001324,0.000106,0.395012,0.309400,9.693874,0.000000,0.000000,0,0,,38.990287,-76.940898,-9.358000,,,
2026-09-11T19:05:49.521,4.276203,-0.000000,-0.000000,-0.000000,0.000000,6.140671,-2.112616,-0.000000,-0.001203,-0.002532,-0.005630,-0.000008,-0.002674,0.000558,0.000776,-0.001048,0.394914,0.297141,9.689166,0.000000,0.000000,0,0,,38.990287,-76.940898,-9.358000,,,
2026-09-11T19:05:49.553,4.309607,-0.000000,-0.000000,-0.000000,0.000000,6.140671,-2.112616,-0.000000,0.000197,0.000415,-0.005665,-0.000008,-0.002691,0.000736,-0.001552,0.001899,0.393345,0.309106,9.704171,0.000000,0.000000,0,0,,38.990287,-76.940898,-9.358000,,,
2026-09-11T19:05:49.587,4.343011,-0.000000,-0.000000,-0.000000,0.000000,6.140671,-2.112616,-0.000000,-0.000500,-0.001053,-0.005676,-0.000008,-0.002696,-0.000620,-0.001058,0.000430,0.393639,0.303418,9.684655,0.000000,0.000000,0,0,,38.990287,-76.940898,-9.358000,,,
2026-09-11T19:05:49.621,4.376432,-0.000000,-0.000000,-0.000000,0.000000,6.140671,-2.112616,-0.000000,-0.000928,-0.001953,-0.005726,-0.000008,-0.002720,0.002993,0.000589,-0.000469,0.395502,0.307831,9.692403,0.000000,0.000000,0,0,,38.990287,-76.940898,-9.358000,,,
2026-09-11T19:05:49.654,4.409852,-0.000000,-0.000000,-0.000000,0.000000,6.140671,-2.112616,-0.000000,-0.000542,-0.001141,-0.005778,-0.000008,-0.002744,-0.000538,-0.000726,0.000342,0.393737,0.305085,9.696718,0.000000,0.000000,0,0,,38.990287,-76.940898,-9.358000,,,
2026-09-11T19:05:49.687,4.443249,-0.000000,-0.000000,-0.000000,0.000000,6.140671,-2.112616,-0.000000,-0.000635,-0.001338,-0.005819,-0.000008,-0.002764,-0.002252,-0.001192,0.000146,0.395502,0.308125,9.695933,0.000000,0.000000,0,0,,38.990287,-76.940898,-9.358000,,,
2026-09-11T19:05:49.720,4.476654,-0.000000,-0.000000,-0.000000,0.000000,6.140671,-2.112616,-0.000000,-0.000115,-0.000242,-0.005845,-0.000008,-0.002777,0.002719,0.000556,0.001242,0.395306,0.310577,9.702209,0.000000,0.000000,0,0,,38.990287,-76.940898,-9.358000,,,
2026-09-11T19:05:49.754,4.510058,-0.000000,-0.000000,-0.000000,0.000000,6.140671,-2.112616,-0.000000,-0.001013,-0.002132,-0.005885,-0.000008,-0.002795,-0.000036,-0.000272,-0.000649,0.395502,0.305379,9.694462,0.000000,0.000000,0,0,,38.990287,-76.940898,-9.358000,,,
2026-09-11T19:05:49.787,4.543467,-0.000000,-0.000000,-0.000000,0.000000,6.140671,-2.112616,-0.000000,0.000021,0.000044,-0.005920,-0.000008,-0.002812,-0.002386,-0.000670,0.001528,0.394227,0.306850,9.691716,0.000000,0.000000,0,0,,38.990287,-76.940898,-9.358000,,,
2026-09-11T19:05:49.822,4.576886,-0.000000,-0.000000,-0.000000,0.000000,6.140671,-2.112616,-0.000000,-0.000572,-0.001204,-0.005939,-0.000008,-0.002821,0.000971,-0.000173,0.000279,0.395208,0.302633,9.690932,0.000000,0.000000,0,0,,38.990287,-76.940898,-9.358000,,,
2026-09-11T19:05:49.854,4.610294,-0.000000,-0.000000,-0.000000,0.000000,6.140671,-2.112616,-0.000000,-0.001093,-0.002301,-0.005998,-0.000009,-0.002849,-0.002189,-0.000723,-0.000817,0.394816,0.308615,9.697208,0.000000,0.000000,0,1,4.599617,38.990287,-76.940898,-9.370000,-0.059634,-0.030949,2.823521
2026-09-11T19:05:49.887,4.643694,-0.000000,-0.000000,-0.000000,0.000000,6.140671,-2.112616,-0.000000,-0.000833,-0.001754,-0.006066,-0.000009,-0.002881,-0.002073,-0.000371,-0.000271,0.392168,0.303418,9.685244,0.000000,0.000000,0,0,,38.990287,-76.940898,-9.370000,,,
2026-09-11T19:05:49.921,4.677099,-0.000000,-0.000000,-0.000000,0.000000,6.140671,-2.112616,-0.000000,-0.000220,-0.000463,-0.006103,-0.000009,-0.002899,0.001140,-0.000218,0.001021,0.392070,0.307340,9.698483,0.000000,0.000000,0,0,,38.990287,-76.940898,-9.370000,,,
2026-09-11T19:05:49.955,4.710516,-0.000000,-0.000000,-0.000000,0.000000,6.140671,-2.112616,-0.000000,-0.000326,-0.000686,-0.006122,-0.000009,-0.002908,-0.000020,0.000626,0.000798,0.398150,0.307144,9.691422,0.000000,0.000000,0,0,,38.990287,-76.940898,-9.370000,,,
2026-09-11T19:05:49.988,4.743924,-0.000000,-0.000000,-0.000000,0.000000,6.140671,-2.112616,-0.000000,-0.000680,-0.001432,-0.006157,-0.000009,-0.002925,-0.001445,0.000807,0.000051,0.396679,0.305085,9.697698,0.000000,0.000000,0,0,,38.990287,-76.940898,-9.370000,,,
2026-09-11T19:05:50.022,4.777334,-0.000000,-0.000000,-0.000000,0.000000,6.140671,-2.112616,-0.000000,-0.000114,-0.000240,-0.006185,-0.000009,-0.002938,-0.000871,-0.000823,0.001244,0.394031,0.308615,9.697698,0.000000,0.000000,0,0,,38.990287,-76.940898,-9.370000,,,
2026-09-11T19:05:50.055,4.810745,-0.000000,-0.000000,-0.000000,0.000000,6.140671,-2.112616,-0.000000,-0.000289,-0.000607,-0.006199,-0.000009,-0.002945,-0.000903,0.000966,0.000876,0.395993,0.305379,9.691128,0.000000,0.000000,0,0,,38.990287,-76.940898,-9.370000,,,
2026-09-11T19:05:50.088,4.844149,-0.000000,-0.000000,-0.000000,0.000000,6.140671,-2.112616,-0.000000,-0.000424,-0.000892,-0.006224,-0.000009,-0.002957,0.000294,-0.001685,0.000591,0.395012,0.309890,9.701621,0.000000,0.000000,0,0,,38.990287,-76.940898,-9.370000,,,
2026-09-11T19:05:50.123,4.877566,-0.000000,-0.000000,-0.000000,0.000000,6.140671,-2.112616,-0.000000,-0.000203,-0.000427,-0.006246,-0.000009,-0.002967,-0.001721,-0.001740,0.001057,0.390795,0.304693,9.691912,0.000000,0.000000,0,0,,38.990287,-76.940898,-9.370000,,,
2026-09-11T19:05:50.155,4.910991,-0.000000,-0.000000,-0.000000,0.000000,6.140671,-2.112616,-0.000000,-0.000711,-0.001498,-0.006278,-0.000009,-0.002982,0.000181,0.000920,-0.000014,0.393737,0.308419,9.696718,0.000000,0.000000,0,0,,38.990287,-76.940898,-9.370000,,,
2026-09-11T19:05:50.187,4.944391,-0.000000,-0.000000,-0.000000,0.000000,6.140671,-2.112616,-0.000000,-0.000572,-0.001204,-0.006324,-0.000009,-0.003004,-0.000536,0.000643,0.000279,0.397365,0.304595,9.689853,0.000000,0.000000,0,0,,38.990287,-76.940898,-9.370000,,,
2026-09-11T19:05:50.220,4.977798,-0.000000,-0.000000,-0.000000,0.000000,6.140671,-2.112616,-0.000000,-0.001217,-0.002563,-0.006387,-0.000010,-0.003034,-0.002155,-0.000391,-0.001079,0.395600,0.299887,9.684459,0.000000,0.000000,0,0,,38.990287,-76.940898,-9.370000,,,
2026-09-11T19:05:50.255,5.011207,-0.000000,-0.000000,-0.000000,0.000000,6.140671,-2.112616,-0.000000,-0.000737,-0.001552,-0.006455,-0.000010,-0.003066,0.001009,0.001440,-0.000068,0.395698,0.303418,9.691128,0.000000,0.000000,0,0,,38.990287,-76.940898,-9.370000,,,
2026-09-11T19:05:50.289,5.044617,-0.000000,-0.000000,-0.000000,0.000000,6.140671,-2.112616,-0.000000,-0.000437,-0.000919,-0.006497,-0.000010,-0.003086,-0.000795,-0.000929,0.000564,0.393345,0.307340,9.699463,0.000000,0.000000,0,0,,38.990287,-76.940898,-9.370000,,,
2026-09-11T19:05:50.321,5.078035,-0.000000,-0.000000,-0.000000,0.000000,6.140671,-2.112616,-0.000000,0.000151,0.000319,-0.006507,-0.000010,-0.003091,-0.001553,-0.000063,0.001802,0.394227,0.305085,9.695443,0.000000,0.000000,0,0,,38.990287,-76.940898,-9.370000,,,
2026-09-11T19:05:50.354,5.111446,-0.000000,-0.000000,-0.000000,0.000000,6.140671,-2.112616,-0.000000,-0.001271,-0.002676,-0.006546,-0.000010,-0.003109,0.001480,0.000724,-0.001192,0.395012,0.309400,9.693383,0.000000,0.000000,0,0,,38.990287,-76.940898,-9.370000,,,
2026-09-11T19:05:50.387,5.144845,-0.000000,-0.000000,-0.000000,0.000000,6.140671,-2.112616,-0.000000,-0.001257,-0.002646,-0.006635,-0.000010,-0.003152,0.000767,-0.000192,-0.001163,0.395404,0.304889,9.688872,0.000000,0.000000,0,0,,38.990287,-76.940898,-9.370000,,,
2026-09-11T19:05:50.421,5.178253,-0.000000,-0.000000,-0.000000,0.000000,6.140671,-2.112616,-0.000000,-0.000318,-0.000670,-0.006690,-0.000011,-0.003178,-0.002810,0.000341,0.000813,0.394227,0.307340,9.694952,0.000000,0.000000,0,0,,38.990287,-76.940898,-9.370000,,,
2026-09-11T19:05:50.456,5.211677,-0.000000,-0.000000,-0.000000,0.000000,6.140671,-2.112616,-0.000000,-0.001128,-0.002374,-0.006741,-0.000011,-0.003202,0.001633,-0.000312,-0.000890,0.396287,0.306850,9.698385,0.000000,0.000000,0,0,,38.990287,-76.940898,-9.370000,,,
2026-09-11T19:05:50.488,5.245087,-0.000000,-0.000000,-0.000000,0.000000,6.140671,-2.112616,-0.000000,-0.000771,-0.001622,-0.006808,-0.000011,-0.003234,-0.002035,0.000203,-0.000139,0.392756,0.305673,9.689657,0.000000,0.000000,0,0,,38.990287,-76.940898,-9.370000,,,
2026-09-11T19:05:50.521,5.278506,-0.000000,-0.000000,-0.000000,0.000000,6.140671,-2.112616,-0.000000,-0.000340,-0.000715,-0.006847,-0.000011,-0.003252,-0.001036,0.000898,0.000768,0.394718,0.305379,9.693383,0.000000,0.000000,0,0,,38.990287,-76.940898,-9.370000,,,
2026-09-11T19:05:50.554,5.311912,-0.000000,-0.000000,-0.000000,0.000000,6.140671,-2.112616,-0.000000,-0.000959,-0.002018,-0.006893,-0.000011,-0.003274,0.002971,0.000501,-0.000535,0.396287,0.309890,9.696423,0.000000,0.000000,0,0,,38.990287,-76.940898,-9.370000,,,
2026-09-11T19:05:50.588,5.345315,-0.000000,-0.000000,-0.000000,0.000000,6.140671,-2.112616,-0.000000,-0.000408,-0.000859,-0.006941,-0.000011,-0.003297,0.001249,-0.000700,0.000624,0.393051,0.306164,9.693187,0.000000,0.000000,0,0,,38.990287,-76.940898,-9.370000,,,
2026-09-11T19:05:50.623,5.378731,-0.000000,-0.000000,-0.000000,0.000000,6.140671,-2.112616,-0.000000,-0.000412,-0.000868,-0.006969,-0.000012,-0.003310,-0.000940,0.001695,0.000616,0.394031,0.309106,9.695639,0.000000,0.000000,0,0,,38.990287,-76.940898,-9.370000,,,
2026-09-11T19:05:50.656,5.412150,-0.000000,-0.000000,-0.000000,0.000000,6.140671,-2.112616,-0.000000,-0.001217,-0.002563,-0.007027,-0.000012,-0.003338,0.000975,-0.000785,-0.001079,0.393443,0.303614,9.685440,0.000000,0.000000,0,0,,38.990287,-76.940898,-9.370000,,,
2026-09-11T19:05:50.688,5.445550,-0.000000,-0.000000,-0.000000,0.000000,6.140671,-2.112616,-0.000000,-0.000056,-0.000117,-0.007072,-0.000012,-0.003359,-0.000331,-0.001543,0.001366,0.392266,0.304398,9.690932,0.000000,0.000000,0,0,,38.990287,-76.940898,-9.370000,,,
2026-09-11T19:05:50.721,5.478958,-0.000000,-0.000000,-0.000000,0.000000,6.140671,-2.112616,-0.000000,-0.001296,-0.002729,-0.007119,-0.000012,-0.003382,0.002326,0.001598,-0.001246,0.397660,0.303320,9.691422,0.000000,0.000000,0,0,,38.990287,-76.940898,-9.370000,,,
2026-09-11T19:05:50.756,5.512369,-0.000000,-0.000000,-0.000000,0.000000,6.140671,-2.112616,-0.000000,-0.000211,-0.000445,-0.007172,-0.000012,-0.003407,0.001389,-0.000633,0.001038,0.392266,0.305869,9.696914,0.000000,0.000000,0,0,,38.990287,-76.940898,-9.370000,,,
2026-09-11T19:05:50.789,5.545772,-0.000000,-0.000000,-0.000000,0.000000,6.140671,-2.112616,-0.000000,-0.000799,-0.001682,-0.007208,-0.000012,-0.003424,0.000918,0.001439,-0.000198,0.397464,0.307635,9.691128,0.000000,0.000000,0,0,,38.990287,-76.940898,-9.370000,,,
2026-09-11T19:05:50.823,5.579189,-0.000000,-0.000000,-0.000000,0.000000,6.140671,-2.112616,-0.000000,-0.000836,-0.001760,-0.007265,-0.000013,-0.003451,0.003386,0.001036,-0.000277,0.392364,0.309106,9.700150,0.000000,0.000000,0,0,,38.990287,-76.940898,-9.370000,,,
2026-09-11T19:05:50.855,5.612594,-0.000000,-0.000000,-0.000000,0.000000,6.140671,-2.112616,-0.000000,-0.000673,-0.001417,-0.007318,-0.000013,-0.003476,0.000281,-0.001506,0.000067,0.398640,0.306066,9.690637,0.000000,0.000000,0,1,5.607160,38.990287,-76.940898,-9.354000,-0.070150,-0.031505,2.824075
2026-09-11T19:05:50.889,5.645996,-0.000000,-0.000000,-0.000000,0.000000,6.140671,-2.112616,-0.000000,-0.000083,-0.000176,-0.007345,-0.000013,-0.003489,0.001172,0.001128,0.001308,0.395012,0.306654,9.694658,0.000000,0.000000,0,0,,38.990287,-76.940898,-9.354000,,,
2026-09-11T19:05:50.922,5.679399,-0.000000,-0.000000,-0.000000,0.000000,6.140671,-2.112616,-0.000000,-0.001204,-0.002535,-0.007390,-0.000013,-0.003510,0.002325,0.000339,-0.001052,0.396483,0.310380,9.691422,0.000000,0.000000,0,0,,38.990287,-76.940898,-9.354000,,,
2026-09-11T19:05:50.955,5.712803,-0.000000,-0.000000,-0.000000,0.000000,6.140671,-2.112616,-0.000000,0.000161,0.000339,-0.007427,-0.000013,-0.003528,-0.001400,0.000049,0.001822,0.392560,0.303418,9.695443,0.000000,0.000000,0,0,,38.990287,-76.940898,-9.354000,,,
2026-09-11T19:05:50.990,5.746216,-0.000000,-0.000000,-0.000000,0.000000,6.140671,-2.112616,-0.000000,-0.000727,-0.001531,-0.007447,-0.000013,-0.003537,0.002499,0.000249,-0.000047,0.395012,0.309302,9.703680,0.000000,0.000000,0,0,,38.990287,-76.940898,-9.354000,,,
2026-09-11T19:05:51.023,5.779633,-0.000000,-0.000000,-0.000000,0.000000,6.140671,-2.112616,-0.000000,-0.000692,-0.001457,-0.007497,-0.000013,-0.003561,0.001827,-0.000335,0.000026,0.396189,0.302927,9.688186,0.000000,0.000000,0,0,,38.990287,-76.940898,-9.354000,,,
2026-09-11T19:05:51.055,5.813040,-0.000000,-0.000000,-0.000000,0.000000,6.140671,-2.112616,-0.000000,-0.000312,-0.000656,-0.007532,-0.000013,-0.003578,-0.002421,-0.000734,0.000828,0.396973,0.304889,9.697894,0.000000,0.000000,0,0,,38.990287,-76.940898,-9.354000,,,
2026-09-11T19:05:51.089,5.846440,-0.000000,-0.000000,-0.000000,0.000000,6.140671,-2.112616,-0.000000,-0.001213,-0.002554,-0.007586,-0.000014,-0.003603,0.001905,-0.001190,-0.001071,0.394914,0.298907,9.688382,0.000000,0.000000,0,0,,38.990287,-76.940898,-9.354000,,,
2026-09-11T19:05:51.124,5.879851,-0.000000,-0.000000,-0.000000,0.000000,6.140671,-2.112616,-0.000000,0.000017,0.000037,-0.007628,-0.000014,-0.003623,0.001295,-0.001144,0.001520,0.395600,0.312636,9.700934,0.000000,0.000000,0,0,,38.990287,-76.940898,-9.354000,,,
2026-09-11T19:05:51.157,5.913272,-0.000000,-0.000000,-0.000000,0.000000,6.140671,-2.112616,-0.000000,-0.000743,-0.001564,-0.007653,-0.000014,-0.003635,-0.001486,0.000387,-0.000080,0.391776,0.301653,9.692697,0.000000,0.000000,0,0,,38.990287,-76.940898,-9.354000,,,
2026-09-11T19:05:51.189,5.946682,-0.000000,-0.000000,-0.000000,0.000000,6.140671,-2.112616,-0.000000,-0.000869,-0.001829,-0.007710,-0.000014,-0.003662,0.000193,-0.000425,-0.000346,0.393247,0.307635,9.694952,0.000000,0.000000,0,0,,38.990287,-76.940898,-9.354000,,,
2026-09-11T19:05:51.224,5.980100,-0.000000,-0.000000,-0.000000,0.000000,6.140671,-2.112616,-0.000000,0.000262,0.000553,-0.007731,-0.000014,-0.003672,-0.001267,-0.001362,0.002036,0.394423,0.305869,9.689657,0.000000,0.000000,0,0,,38.990287,-76.940898,-9.354000,,,
2026-09-11T19:05:51.256,6.013502,-0.000000,-0.000000,-0.000000,0.000000,6.140671,-2.112616,-0.000000,-0.001226,-0.002580,-0.007765,-0.000014,-0.003688,-0.000677,0.000912,-0.001097,0.392756,0.306164,9.699169,0.000000,0.000000,0,0,,38.990287,-76.940898,-9.354000,,,
2026-09-11T19:05:51.290,6.046905,-0.000000,-0.000000,-0.000000,0.000000,6.140671,-2.112616,-0.000000,0.000052,0.000110,-0.007806,-0.000014,-0.003708,0.000745,-0.001043,0.001593,0.396287,0.308125,9.698679,0.000000,0.000000,0,0,,38.990287,-76.940898,-9.354000,,,
2026-09-11T19:05:51.324,6.080330,-0.000000,-0.000000,-0.000000,0.000000,6.140671,-2.112616,-0.000000,-0.000733,-0.001542,-0.007830,-0.000015,-0.003719,-0.000017,-0.000760,-0.000059,0.398444,0.303124,9.697894,0.000000,0.000000,0,0,,38.990287,-76.940898,-9.354000,,,
2026-09-11T19:05:51.357,6.113768,-0.000000,-0.000000,-0.000000,0.000000,6.140671,-2.112616,-0.000000,-0.001073,-0.002259,-0.007894,-0.000015,-0.003749,-0.001793,0.000915,-0.000775,0.394031,0.311361,9.695933,0.000000,0.000000,0,0,,38.990287,-76.940898,-9.354000,,,
2026-09-11T19:05:51.390,6.147169,-0.000000,-0.000000,-0.000000,0.000000,6.140671,-2.112616,-0.000000,-0.000233,-0.000491,-0.007940,-0.000015,-0.003771,-0.000267,-0.001960,0.000993,0.395110,0.300672,9.685636,0.000000,0.000000,0,0,,38.990287,-76.940898,-9.354000,,,
2026-09-11T19:05:51.424,6.180574,-0.000000,-0.000000,-0.000000,0.000000,6.140671,-2.112616,-0.000000,-0.001397,-0.002940,-0.007997,-0.000015,-0.003799,-0.000142,-0.000116,-0.001456,0.395012,0.308909,9.691716,0.000000,0.000000,0,0,,38.990287,-76.940898,-9.354000,,,
2026-09-11T19:05:51.458,6.213993,-0.000000,-0.000000,-0.000000,0.000000,6.140671,-2.112616,-0.000000,-0.000628,-0.001322,-0.008068,-0.000015,-0.003832,0.000200,0.001383,0.000162,0.395698,0.302633,9.693678,0.000000,0.000000,0,0,,38.990287,-76.940898,-9.354000,,,
2026-09-11T19:05:51.490,6.247398,-0.000000,-0.000000,-0.000000,0.000000,6.140671,-2.112616,-0.000000,-0.001078,-0.002270,-0.008128,-0.000016,-0.003861,-0.001282,-0.001041,-0.000786,0.396679,0.298416,9.695443,0.000000,0.000000,0,0,,38.990287,-76.940898,-9.354000,,,
2026-09-11T19:05:51.523,6.280804,-0.000000,-0.000000,-0.000000,0.000000,6.140671,-2.112616,-0.000000,-0.000309,-0.000650,-0.008177,-0.000016,-0.003884,-0.002758,-0.000210,0.000833,0.385597,0.295180,9.694266,0.000000,0.000000,0,0,,38.990287,-76.940898,-9.354000,,,
2026-09-11T19:05:51.558,6.314223,-0.000000,-0.000000,-0.000000,0.000000,6.140671,-2.112616,-0.000000,-0.001275,-0.002684,-0.008233,-0.000016,-0.003910,0.000183,-0.000951,-0.001200,0.396189,0.306850,9.693383,0.000000,0.000000,0,0,,38.990287,-76.940898,-9.354000,,,
2026-09-11T19:05:51.592,6.347637,-0.000000,-0.000000,-0.000000,0.000000,6.140671,-2.112616,-0.000000,-0.000094,-0.000198,-0.008281,-0.000016,-0.003933,-0.002218,-0.000446,0.001285,0.405701,0.301849,9.686813,0.000000,0.000000,0,0,,38.990287,-76.940898,-9.354000,,,
2026-09-11T19:05:51.624,6.381058,-0.000000,-0.000000,-0.000000,0.000000,6.140671,-2.112616,-0.000000,-0.000757,-0.001593,-0.008311,-0.000016,-0.003948,-0.004107,0.000546,-0.000110,0.403936,0.321560,9.690637,0.000000,0.000000,0,0,,38.990287,-76.940898,-9.354000,,,
2026-09-11T19:05:51.657,6.414465,-0.000000,-0.000000,-0.000000,0.000000,6.140671,-2.112616,-0.000000,-0.000998,-0.002101,-0.008372,-0.000017,-0.003977,0.000990,0.000383,-0.000617,0.406682,0.294298,9.696325,0.000000,0.000000,0,0,,38.990287,-76.940898,-9.354000,,,
2026-09-11T19:05:51.692,6.447870,-0.000000,-0.000000,-0.000000,0.000000,6.140671,-2.112616,-0.000000,-0.000416,-0.000877,-0.008422,-0.000017,-0.004000,-0.003900,-0.000689,0.000607,0.376183,0.313028,9.696816,0.000000,0.000000,0,0,,38.990287,-76.940898,-9.354000,,,
2026-09-11T19:05:51.726,6.481290,-0.000000,-0.000000,-0.000000,0.000000,6.140671,-2.112616,-0.000000,-0.001645,-0.003462,-0.008495,-0.000017,-0.004035,-0.000231,0.000834,-0.001979,0.383440,0.301947,9.693972,0.000000,0.000000,0,0,,38.990287,-76.940898,-9.354000,,,
2026-09-11T19:05:51.758,6.514714,-0.000000,-0.000000,-0.000000,0.000000,6.140671,-2.112616,-0.000000,0.000697,0.001468,-0.008528,-0.000017,-0.004051,-0.001068,-0.001716,0.002952,0.393835,0.311557,9.705936,0.000000,0.000000,0,0,,38.990287,-76.940898,-9.354000,,,
2026-09-11T19:05:51.791,6.548125,-0.000000,-0.000000,-0.000000,0.000000,6.140671,-2.112616,-0.000000,-0.001534,-0.003229,-0.008557,-0.000017,-0.004065,0.000423,0.001615,-0.001745,0.395796,0.306556,9.702700,0.000000,0.000000,0,0,,38.990287,-76.940898,-9.354000,,,
2026-09-11T19:05:51.824,6.581529,-0.000000,-0.000000,-0.000000,0.000000,6.140671,-2.112616,-0.000000,-0.000591,-0.001244,-0.008632,-0.000018,-0.004100,0.002528,0.001771,0.000240,0.406878,0.310969,9.703288,0.000000,0.000000,0,0,,38.990287,-76.940898,-9.354000,,,
2026-09-11T19:05:51.859,6.614957,-0.000000,-0.000000,-0.000000,0.000000,6.140671,-2.112616,-0.000000,-0.000093,-0.000195,-0.008656,-0.000018,-0.004112,-0.000834,-0.000249,0.001288,0.385205,0.308419,9.700542,0.000000,0.000000,0,1,6.598202,38.990287,-76.940898,-9.360000,-0.080953,-0.040401,2.824075
2026-09-11T19:05:51.892,6.648416,-0.000000,-0.000000,-0.000000,0.000000,6.140671,-2.112616,-0.000000,-0.000840,-0.001768,-0.008689,-0.000018,-0.004127,-0.000840,0.001170,-0.000284,0.391580,0.307635,9.695443,0.000000,0.000000,0,0,,38.990287,-76.940898,-9.360000,,,
2026-09-11T19:05:51.924,6.681822,-0.000000,-0.000000,-0.000000,0.000000,6.140671,-2.112616,-0.000000,-0.000131,-0.000276,-0.008723,-0.000018,-0.004143,0.002155,0.001518,0.001208,0.392560,0.306164,9.694462,0.000000,0.000000,0,0,,38.990287,-76.940898,-9.360000,,,
2026-09-11T19:05:51.958,6.715231,-0.000000,-0.000000,-0.000000,0.000000,6.140671,-2.112616,-0.000000,-0.000738,-0.001554,-0.008754,-0.000018,-0.004158,0.000860,-0.000548,-0.000070,0.384519,0.307929,9.702209,0.000000,0.000000,0,0,,38.990287,-76.940898,-9.360000,,,
2026-09-11T19:05:51.992,6.748632,-0.000000,-0.000000,-0.000000,0.000000,6.140671,-2.112616,-0.000000,0.000072,0.000152,-0.008777,-0.000018,-0.004169,0.001263,0.001326,0.001635,0.407957,0.304300,9.683577,0.000000,0.000000,0,0,,38.990287,-76.940898,-9.360000,,,
2026-09-11T19:05:52.029,6.782041,-0.000000,-0.000000,-0.000000,0.000000,6.140671,-2.112616,-0.000000,-0.001511,-0.003181,-0.008828,-0.000019,-0.004193,-0.000308,-0.001199,-0.001697,0.389520,0.302143,9.695933,0.000000,0.000000,0,0,,38.990287,-76.940898,-9.360000,,,
2026-09-11T19:05:52.059,6.815449,-0.000000,-0.000000,-0.000000,0.000000,6.140671,-2.112616,-0.000000,0.000014,0.000030,-0.008880,-0.000019,-0.004218,-0.001069,0.001137,0.001513,0.404230,0.298024,9.696129,0.000000,0.000000,0,0,,38.990287,-76.940898,-9.360000,,,
2026-09-11T19:05:52.091,6.848851,-0.000000,-0.000000,-0.000000,0.000000,6.140671,-2.112616,-0.000000,-0.002242,-0.004720,-0.008959,-0.000019,-0.004255,0.002079,0.000676,-0.003236,0.400111,0.306066,9.698385,0.000000,0.000000,0,0,,38.990287,-76.940898,-9.360000,,,
2026-09-11T19:05:52.125,6.882255,-0.000000,-0.000000,-0.000000,0.000000,6.140671,-2.112616,-0.000000,0.000324,0.000682,-0.009026,-0.000019,-0.004287,0.003908,0.000194,0.002166,0.387167,0.307438,9.697502,0.000000,0.000000,0,0,,38.990287,-76.940898,-9.360000,,,
2026-09-11T19:05:52.160,6.915676,-0.000000,-0.000000,-0.000000,0.000000,6.140671,-2.112616,-0.000000,-0.001211,-0.002550,-0.009057,-0.000019,-0.004302,-0.001314,0.000902,-0.001066,0.393541,0.305183,9.693678,0.000000,0.000000,0,0,,38.990287,-76.940898,-9.360000,,,
2026-09-11T19:05:52.192,6.949090,-0.000000,-0.000000,-0.000000,0.000000,6.140671,-2.112616,-0.000000,-0.000615,-0.001295,-0.009122,-0.000020,-0.004333,-0.000378,0.000226,0.000189,0.375595,0.307831,9.691128,0.000000,0.000000,0,0,,38.990287,-76.940898,-9.360000,,,
2026-09-11T19:05:52.225,6.982496,-0.000000,-0.000000,-0.000000,0.000000,6.140671,-2.112616,-0.000000,-0.001209,-0.002546,-0.009186,-0.000020,-0.004363,-0.000177,-0.000206,-0.001062,0.395110,0.303908,9.681910,0.000000,0.000000,0,0,,38.990287,-76.940898,-9.360000,,,
2026-09-11T19:05:52.259,7.015901,-0.000000,-0.000000,-0.000000,0.000000,6.140671,-2.112616,-0.000000,-0.000759,-0.001599,-0.009255,-0.000020,-0.004396,-0.002005,0.001262,-0.000115,0.396581,0.318618,9.698385,0.000000,0.000000,0,0,,38.990287,-76.940898,-9.360000,,,
2026-09-11T19:05:52.293,7.049311,-0.000000,-0.000000,-0.000000,0.000000,6.140671,-2.112616,-0.000000,0.000101,0.000213,-0.009278,-0.000020,-0.004407,0.001452,0.000490,0.001696,0.404230,0.298809,9.689068,0.000000,0.000000,0,0,,38.990287,-76.940898,-9.360000,,,
2026-09-11T19:05:52.325,7.082727,-0.000000,-0.000000,-0.000000,0.000000,6.140671,-2.112616,-0.000000,-0.000456,-0.000959,-0.009291,-0.000020,-0.004413,0.000484,-0.001174,0.000524,0.410997,0.306458,9.697306,0.000000,0.000000,0,0,,38.990287,-76.940898,-9.360000,,,
2026-09-11T19:05:52.359,7.116133,-0.000000,-0.000000,-0.000000,0.000000,6.140671,-2.112616,-0.000000,-0.001513,-0.003186,-0.009360,-0.000021,-0.004446,0.001895,0.000269,-0.001702,0.377556,0.299495,9.698777,0.000000,0.000000,0,0,,38.990287,-76.940898,-9.360000,,,
2026-09-11T19:05:52.392,7.149531,-0.000000,-0.000000,-0.000000,0.000000,6.140671,-2.112616,-0.000000,-0.000177,-0.000373,-0.009419,-0.000021,-0.004474,0.004179,-0.000260,0.001111,0.392756,0.307929,9.685440,0.000000,0.000000,0,0,,38.990287,-76.940898,-9.360000,,,
2026-09-11T19:05:52.426,7.182938,-0.000000,-0.000000,-0.000000,0.000000,6.140671,-2.112616,-0.000000,-0.000545,-0.001147,-0.009445,-0.000021,-0.004486,0.001447,-0.001115,0.000336,0.389324,0.303712,9.692207,0.000000,0.000000,0,0,,38.990287,-76.940898,-9.360000,,,
2026-09-11T19:05:52.460,7.216360,-0.000000,-0.000000,-0.000000,0.000000,6.140671,-2.112616,-0.000000,-0.001141,-0.002402,-0.009504,-0.000021,-0.004514,0.002235,0.000646,-0.000918,0.398444,0.308811,9.696129,0.000000,0.000000,0,0,,38.990287,-76.940898,-9.360000,,,
2026-09-11T19:05:52.492,7.249761,-0.000000,-0.000000,-0.000000,0.000000,6.140671,-2.112616,-0.000000,-0.000816,-0.001718,-0.009573,-0.000022,-0.004547,-0.000119,-0.001622,-0.000234,0.407270,0.309302,9.689068,0.000000,0.000000,0,0,,38.990287,-76.940898,-9.360000,,,
2026-09-11T19:05:52.526,7.283167,-0.000000,-0.000000,-0.000000,0.000000,6.140671,-2.112616,-0.000000,-0.000613,-0.001292,-0.009623,-0.000022,-0.004571,-0.002366,-0.000797,0.000192,0.388932,0.310380,9.702209,0.000000,0.000000,0,0,,38.990287,-76.940898,-9.360000,,,
2026-09-11T19:05:52.560,7.316573,-0.000000,-0.000000,-0.000000,0.000000,6.140671,-2.112616,-0.000000,-0.000100,-0.000212,-0.009648,-0.000022,-0.004583,0.002123,0.000723,0.001272,0.412566,0.320187,9.697992,0.000000,0.000000,0,0,,38.990287,-76.940898,-9.360000,,,
2026-09-11T19:05:52.594,7.349988,-0.000000,-0.000000,-0.000000,0.000000,6.140671,-2.112616,-0.000000,-0.000092,-0.000194,-0.009655,-0.000022,-0.004586,0.003838,-0.000796,0.001289,0.423647,0.327346,9.698679,0.000000,0.000000,0,0,,38.990287,-76.940898,-9.360000,,,
2026-09-11T19:05:52.626,7.383407,-0.000000,-0.000000,-0.000000,0.000000,5.592728,-1.924104,-0.000000,0.002943,0.006195,-0.009555,-0.000022,-0.004538,0.015302,0.000255,0.007679,0.464345,0.441692,9.707113,0.000000,0.000000,0,0,,38.990287,-76.940898,-9.360000,,,
2026-09-11T19:05:52.659,7.416816,-0.000000,-0.000000,-0.000000,0.000000,4.806519,-1.653619,-0.000000,0.002368,0.004985,-0.009368,-0.000021,-0.004450,0.015642,-0.000551,0.006469,0.402759,0.208980,9.675045,0.000000,0.000000,0,0,,38.990287,-76.940898,-9.360000,,,
2026-09-11T19:05:52.693,7.450214,-0.000000,-0.000000,-0.000000,0.000000,4.690475,-1.613696,-0.000000,-0.000949,-0.001999,-0.009318,-0.000021,-0.004426,-0.003420,-0.000412,-0.000515,0.325483,0.268702,9.687303,0.000000,0.000000,0,0,,38.990287,-76.940898,-9.360000,,,
2026-09-11T19:05:52.726,7.483619,-0.000000,-0.000000,-0.000000,0.000000,4.888916,-1.681967,-0.000000,-0.002465,-0.005189,-0.009438,-0.000021,-0.004483,-0.011618,0.000846,-0.003705,0.376183,0.295082,9.680831,0.000000,0.000000,0,0,,38.990287,-76.940898,-9.360000,,,
2026-09-11T19:05:52.762,7.517041,-0.000000,-0.000000,-0.000000,0.000000,4.999466,-1.720000,-0.000000,0.000282,0.000593,-0.009515,-0.000022,-0.004519,-0.010719,-0.001969,0.002076,0.315872,0.370397,9.687107,0.000000,0.000000,0,0,,38.990287,-76.940898,-9.360000,,,
2026-09-11T19:05:52.794,7.550453,-0.000000,-0.000000,-0.000000,0.000000,5.140915,-1.768663,-0.000000,-0.001396,-0.002938,-0.009554,-0.000022,-0.004538,-0.009912,-0.000043,-0.001454,0.296553,0.141510,9.734473,0.000000,0.000000,0,0,,38.990287,-76.940898,-9.360000,,,
2026-09-11T19:05:52.826,7.583856,-0.000000,-0.000000,-0.000000,0.000000,5.372314,-1.848273,-0.000000,-0.002758,-0.005807,-0.009700,-0.000022,-0.004607,-0.011253,0.000589,-0.004324,0.410408,0.429629,9.699365,0.000000,0.000000,0,0,,38.990287,-76.940898,-9.360000,,,
2026-09-11T19:05:52.860,7.617262,-0.000000,-0.000000,-0.000000,0.000000,5.416260,-1.863392,-0.000000,0.000797,0.001677,-0.009769,-0.000023,-0.004640,-0.001903,-0.001509,0.003161,0.477878,0.258013,9.699463,0.000000,0.000000,0,1,7.598032,38.990287,-76.940898,-9.353000,-0.091036,-0.043551,2.824075
2026-09-11T19:05:52.894,7.650661,-0.000000,-0.000000,-0.000000,0.000000,5.416260,-1.863392,-0.000000,-0.001716,-0.003612,-0.009801,-0.000023,-0.004656,-0.002424,-0.001472,-0.002129,0.424824,0.240655,9.718586,0.000000,0.000000,0,0,,38.990287,-76.940898,-9.353000,,,
2026-09-11T19:05:52.928,7.684079,-0.000000,-0.000000,-0.000000,0.000000,5.787048,-1.990957,-0.000000,-0.003064,-0.006451,-0.009970,-0.000024,-0.004735,-0.013900,0.000132,-0.004967,0.452577,0.322933,9.692893,0.000000,0.000000,0,0,,38.990287,-76.940898,-9.353000,,,
2026-09-11T19:05:52.961,7.717500,-0.000000,-0.000000,-0.000000,0.000000,6.119385,-2.105293,-0.000000,-0.001565,-0.003295,-0.010132,-0.000024,-0.004813,-0.008071,-0.001647,-0.001811,0.423647,0.249481,9.675437,0.000000,0.000000,0,0,,38.990287,-76.940898,-9.353000,,,
2026-09-11T19:05:52.993,7.750902,-0.000000,-0.000000,-0.000000,0.000000,6.418762,-2.208290,-0.000000,-0.002938,-0.006185,-0.010291,-0.000025,-0.004888,-0.007749,-0.000327,-0.004702,0.339506,0.273802,9.697110,0.000000,0.000000,0,0,,38.990287,-76.940898,-9.353000,,,
2026-09-11T19:05:53.027,7.784308,-0.000000,-0.000000,-0.000000,0.000000,7.378006,-2.538305,-0.000000,-0.003217,-0.006773,-0.010507,-0.000026,-0.004991,-0.018536,0.004014,-0.005290,0.362062,0.294396,9.704955,0.000000,0.000000,0,0,,38.990287,-76.940898,-9.353000,,,
2026-09-11T19:05:53.062,7.817728,-0.000000,-0.000000,-0.000000,0.000000,8.537064,-2.937063,-0.000000,-0.004618,-0.009722,-0.010783,-0.000028,-0.005122,-0.017945,0.000019,-0.008239,0.353824,0.257130,9.730452,0.000000,0.000000,0,0,,38.990287,-76.940898,-9.353000,,,
2026-09-11T19:05:53.094,7.851138,-0.000000,-0.000000,-0.000000,0.000000,9.205856,-3.167152,-0.000000,-0.003769,-0.007935,-0.011078,-0.000029,-0.005262,-0.006062,0.000897,-0.006451,0.381577,0.283216,9.705249,0.000000,0.000000,0,0,,38.990287,-76.940898,-9.353000,,,
2026-09-11T19:05:53.127,7.884543,-0.000000,-0.000000,-0.000000,0.000000,9.609604,-3.306056,-0.000000,-0.002864,-0.006029,-0.011311,-0.000030,-0.005373,0.009801,0.000556,-0.004546,0.345979,0.292336,9.674358,0.000000,0.000000,0,0,,38.990287,-76.940898,-9.353000,,,
2026-09-11T19:05:53.160,7.917950,-0.000000,-0.000000,-0.000000,0.000000,9.774399,-3.362752,-0.000000,-0.001943,-0.004090,-0.011480,-0.000031,-0.005453,0.018302,-0.000472,-0.002606,0.353334,0.212020,9.699267,0.000000,0.000000,0,0,,38.990287,-76.940898,-9.353000,,,
2026-09-11T19:05:53.196,7.951359,-0.000000,-0.000000,-0.000000,0.000000,10.164413,-3.496931,-0.000000,-0.003340,-0.007032,-0.011666,-0.000032,-0.005541,0.020656,0.000150,-0.005548,0.392364,0.297730,9.680242,0.000000,0.000000,0,0,,38.990287,-76.940898,-9.353000,,,
2026-09-11T19:05:53.228,7.984779,-0.000000,-0.000000,-0.000000,0.000000,10.557861,-3.632292,-0.000000,-0.002158,-0.004542,-0.011859,-0.000033,-0.005633,0.008210,-0.000071,-0.003059,0.435513,0.332740,9.701817,0.000000,0.000000,0,0,,38.990287,-76.940898,-9.353000,,,
2026-09-11T19:05:53.261,8.018184,-0.000000,-0.000000,-0.000000,0.000000,10.601807,-3.647411,-0.000000,-0.001780,-0.003748,-0.011998,-0.000034,-0.005699,0.009305,-0.000168,-0.002264,0.452871,0.318716,9.663179,0.000000,0.000000,0,0,,38.990287,-76.940898,-9.353000,,,
2026-09-11T19:05:53.294,8.051586,-0.000000,-0.000000,-0.000000,0.000000,10.601807,-3.647411,-0.000000,0.000483,0.001017,-0.012043,-0.000034,-0.005720,0.006683,0.000478,0.002501,0.481801,0.440319,9.673966,0.000000,0.000000,0,0,,38.990287,-76.940898,-9.353000,,,
2026-09-11T19:05:53.329,8.084991,-0.000000,-0.000000,-0.000000,0.000000,10.529022,-3.622370,-0.000000,-0.001372,-0.002888,-0.012074,-0.000035,-0.005735,-0.003845,0.000468,-0.001405,0.356570,0.303025,9.670534,0.000000,0.000000,0,0,,38.990287,-76.940898,-9.353000,,,
2026-09-11T19:05:53.363,8.118546,-0.000000,-0.000000,-0.000000,0.000000,10.535202,-3.624496,-0.000000,-0.000700,-0.001474,-0.012148,-0.000035,-0.005770,-0.009690,0.000285,0.000010,0.384028,0.335780,9.667788,0.000000,0.000000,0,0,,38.990287,-76.940898,-9.353000,,,
2026-09-11T19:05:53.396,8.151955,-0.000000,-0.000000,-0.000000,0.000000,10.535202,-3.624496,-0.000000,0.001352,0.002846,-0.012125,-0.000035,-0.005759,-0.010308,0.000168,0.004329,0.432081,0.274880,9.703876,0.000000,0.000000,0,0,,38.990287,-76.940898,-9.353000,,,
2026-09-11T19:05:53.429,8.185359,-0.000000,-0.000000,-0.000000,0.000000,10.535202,-3.624496,-0.000000,-0.001126,-0.002371,-0.012117,-0.000035,-0.005755,-0.012858,0.000550,-0.000888,0.384323,0.303418,9.715743,0.000000,0.000000,0,0,,38.990287,-76.940898,-9.353000,,,
2026-09-11T19:05:53.463,8.218768,-0.000000,-0.000000,-0.000000,0.000000,10.535202,-3.624496,-0.000000,-0.000811,-0.001707,-0.012185,-0.000035,-0.005788,-0.008537,0.000943,-0.000224,0.397365,0.287335,9.701915,0.000000,0.000000,0,0,,38.990287,-76.940898,-9.353000,,,
2026-09-11T19:05:53.495,8.252172,-0.000000,-0.000000,-0.000000,0.000000,10.535202,-3.624496,-0.000000,0.000264,0.000557,-0.012204,-0.000035,-0.005797,-0.001514,-0.000990,0.002040,0.394423,0.317343,9.706132,0.000000,0.000000,0,0,,38.990287,-76.940898,-9.353000,,,
2026-09-11T19:05:53.530,8.285579,-0.000000,-0.000000,-0.000000,0.000000,10.535202,-3.624496,-0.000000,-0.002211,-0.004655,-0.012273,-0.000036,-0.005829,0.000666,0.001162,-0.003172,0.391874,0.248206,9.708878,0.000000,0.000000,0,0,,38.990287,-76.940898,-9.353000,,,
2026-09-11T19:05:53.563,8.318991,-0.000000,-0.000000,-0.000000,0.000000,10.777588,-3.707886,-0.000000,-0.001083,-0.002279,-0.012388,-0.000036,-0.005884,0.002143,0.001141,-0.000796,0.405113,0.313911,9.694168,0.000000,0.000000,0,0,,38.990287,-76.940898,-9.353000,,,
2026-09-11T19:05:53.596,8.352394,-0.000000,-0.000000,-0.000000,0.000000,10.857925,-3.735525,-0.000000,-0.000033,-0.000069,-0.012428,-0.000037,-0.005903,0.007372,-0.001581,0.001414,0.379812,0.304496,9.697306,0.000000,0.000000,0,0,,38.990287,-76.940898,-9.353000,,,
2026-09-11T19:05:53.629,8.385761,-0.000000,-0.000000,-0.000000,0.000000,11.247253,-3.869468,-0.000000,-0.003301,-0.006949,-0.012545,-0.000037,-0.005959,0.005169,0.001637,-0.005465,0.434533,0.242617,9.702013,0.000000,0.000000,0,0,,38.990287,-76.940898,-9.353000,,,
2026-09-11T19:05:53.663,8.419167,-0.000000,-0.000000,-0.000000,0.000000,11.612549,-3.995143,-0.000000,-0.001819,-0.003830,-0.012725,-0.000038,-0.006044,0.005841,0.000376,-0.002347,0.408055,0.350490,9.682792,0.000000,0.000000,0,0,,38.990287,-76.940898,-9.353000,,,
2026-09-11T19:05:53.697,8.452586,-0.000000,-0.000000,-0.000000,0.000000,11.670227,-4.014986,-0.000000,-0.000286,-0.000603,-0.012799,-0.000039,-0.006079,0.007776,-0.002919,0.000881,0.298907,0.300770,9.721725,0.000000,0.000000,0,0,,38.990287,-76.940898,-9.353000,,,
2026-09-11T19:05:53.730,8.486024,-0.000000,-0.000000,-0.000000,0.000000,12.225037,-4.205861,-0.000000,-0.002921,-0.006149,-0.012912,-0.000040,-0.006133,-0.002737,0.002507,-0.004666,0.523871,0.310479,9.660531,0.000000,0.000000,0,0,,38.990287,-76.940898,-9.353000,,,
2026-09-11T19:05:53.763,8.519427,-0.000000,-0.000000,-0.000000,0.000000,12.491455,-4.297519,-0.000000,-0.000861,-0.001813,-0.013045,-0.000040,-0.006196,-0.002600,-0.000533,-0.000330,0.332838,0.405015,9.687794,0.000000,0.000000,0,0,,38.990287,-76.940898,-9.353000,,,
2026-09-11T19:05:53.796,8.552830,-0.000000,-0.000000,-0.000000,0.000000,12.491455,-4.297519,-0.000000,-0.000426,-0.000897,-0.013090,-0.000041,-0.006218,-0.004193,-0.001841,0.000587,0.294494,0.167694,9.738494,0.000000,0.000000,0,0,,38.990287,-76.940898,-9.353000,,,
2026-09-11T19:05:53.830,8.586233,-0.000000,-0.000000,-0.000000,0.000000,12.711182,-4.373113,-0.000000,-0.001666,-0.003507,-0.013164,-0.000041,-0.006253,-0.001873,0.000169,-0.002023,0.530834,0.404819,9.659060,0.000000,0.000000,0,0,,38.990287,-76.940898,-9.353000,,,
2026-09-11T19:05:53.864,8.619644,-0.000000,-0.000000,-0.000000,0.000000,12.902069,-4.438785,-0.000000,-0.001010,-0.002125,-0.013258,-0.000042,-0.006297,-0.002126,-0.000282,-0.000642,0.273802,0.203390,9.718390,0.000000,0.000000,0,1,8.605249,38.990286,-76.940899,-9.354000,-0.099679,-0.050779,2.824075
2026-09-11T19:05:53.897,8.653059,-0.000000,-0.000000,-0.000000,0.000000,13.520050,-4.651393,-0.000000,-0.000860,-0.001811,-0.013323,-0.000042,-0.006328,-0.005975,-0.000739,-0.000328,0.404328,0.313224,9.686323,0.000000,0.000000,0,0,,38.990286,-76.940899,-9.354000,,,
2026-09-11T19:05:53.930,8.686480,-0.000000,-0.000000,-0.000000,0.000000,14.303513,-4.920933,-0.000000,-0.000339,-0.000715,-0.013366,-0.000042,-0.006348,0.001911,-0.000580,0.000769,0.399131,0.246147,9.689068,0.000000,0.000000,0,0,,38.990286,-76.940899,-9.354000,,,
2026-09-11T19:05:53.964,8.719882,-0.000000,-0.000000,-0.000000,0.000000,16.490479,-5.673330,-0.000000,-0.002971,-0.006254,-0.013482,-0.000043,-0.006404,0.000418,-0.000689,-0.004770,0.349901,0.236733,9.718783,0.000000,0.000000,0,0,,38.990286,-76.940899,-9.354000,,,
2026-09-11T19:05:53.997,8.753285,-0.000000,-0.000000,-0.000000,0.000000,18.731689,-6.444389,-0.000000,-0.002929,-0.006167,-0.013689,-0.000045,-0.006502,0.000535,-0.000290,-0.004683,0.467483,0.305673,9.664846,0.000000,0.000000,0,0,,38.990286,-76.940899,-9.354000,,,
2026-09-11T19:05:54.031,8.786705,-0.000000,-0.000000,-0.000000,0.000000,18.855972,-6.487146,-0.000000,-0.002936,-0.006181,-0.013896,-0.000046,-0.006600,0.009283,-0.002033,-0.004697,0.314695,0.278215,9.735356,0.000000,0.000000,0,0,,38.990286,-76.940899,-9.354000,,,
2026-09-11T19:05:54.064,8.820117,-0.000000,-0.000000,-0.000000,0.000000,19.088745,-6.567229,-0.000000,-0.002710,-0.005706,-0.014094,-0.000047,-0.006695,0.003613,-0.000268,-0.004222,0.461991,0.291846,9.710545,0.000000,0.000000,0,0,,38.990286,-76.940899,-9.354000,,,
2026-09-11T19:05:54.097,8.853529,-0.000000,-0.000000,-0.000000,0.000000,19.346924,-6.656052,-0.000000,-0.003786,-0.007971,-0.014323,-0.000049,-0.006803,0.003026,0.000837,-0.006488,0.463756,0.235850,9.709564,0.000000,0.000000,0,0,,38.990286,-76.940899,-9.354000,,,
2026-09-11T19:05:54.131,8.886934,-0.000000,-0.000000,-0.000000,0.000000,19.574890,-6.734481,-0.000000,-0.001065,-0.002243,-0.014493,-0.000050,-0.006884,-0.003222,-0.000739,-0.000759,0.336172,0.413939,9.689265,0.000000,0.000000,0,0,,38.990286,-76.940899,-9.354000,,,
2026-09-11T19:05:54.164,8.920336,-0.000000,-0.000000,-0.000000,0.000000,19.610596,-6.746765,-0.000000,0.000626,0.001319,-0.014509,-0.000050,-0.006891,-0.002839,-0.001146,0.002802,0.405505,0.263309,9.695835,0.000000,0.000000,0,0,,38.990286,-76.940899,-9.354000,,,
2026-09-11T19:05:54.198,8.953778,-0.000000,-0.000000,-0.000000,0.000000,19.610596,-6.746765,-0.000000,-0.001988,-0.004185,-0.014557,-0.000050,-0.006914,-0.008066,0.001579,-0.002702,0.444045,0.275567,9.689951,0.000000,0.000000,0,0,,38.990286,-76.940899,-9.354000,,,
2026-09-11T19:05:54.231,8.987192,-0.000000,-0.000000,-0.000000,0.000000,19.610596,-6.746765,-0.000000,0.001277,0.002688,-0.014582,-0.000050,-0.006926,-0.008576,-0.001195,0.004172,0.353530,0.345390,9.690834,0.000000,0.000000,0,0,,38.990286,-76.940899,-9.354000,,,
2026-09-11T19:05:54.264,9.020598,-0.000000,-0.000000,-0.000000,0.000000,19.610596,-6.746765,-0.000000,0.000836,0.001761,-0.014508,-0.000050,-0.006891,-0.012707,-0.000558,0.003245,0.383832,0.218492,9.707113,0.000000,0.000000,0,0,,38.990286,-76.940899,-9.354000,,,
2026-09-11T19:05:54.297,9.054003,-0.000000,-0.000000,-0.000000,0.000000,19.610596,-6.746765,-0.000000,-0.000511,-0.001076,-0.014496,-0.000050,-0.006885,-0.011432,0.001095,0.000407,0.468464,0.335780,9.673280,0.000000,0.000000,0,0,,38.990286,-76.940899,-9.354000,,,
2026-09-11T19:05:54.331,9.087406,-0.000000,-0.000000,-0.000000,0.000000,19.610596,-6.746765,-0.000000,-0.000033,-0.000069,-0.014515,-0.000050,-0.006894,-0.006944,-0.000585,0.001415,0.309498,0.181129,9.723588,0.000000,0.000000,0,0,,38.990286,-76.940899,-9.354000,,,
2026-09-11T19:05:54.365,9.120812,-0.000000,-0.000000,-0.000000,0.000000,19.610596,-6.746765,-0.000000,-0.001100,-0.002316,-0.014555,-0.000050,-0.006913,-0.004240,-0.000423,-0.000832,0.456794,0.313126,9.678673,0.000000,0.000000,0,0,,38.990286,-76.940899,-9.354000,,,
2026-09-11T19:05:54.398,9.154229,-0.000000,-0.000000,-0.000000,0.000000,19.610596,-6.746765,-0.000000,-0.001068,-0.002249,-0.014631,-0.000051,-0.006950,0.006874,-0.000476,-0.000765,0.352157,0.198781,9.726236,0.000000,0.000000,0,0,,38.990286,-76.940899,-9.354000,,,
2026-09-11T19:05:54.431,9.187630,-0.000000,-0.000000,-0.000000,0.000000,19.610596,-6.746765,-0.000000,-0.001432,-0.003014,-0.014719,-0.000051,-0.006991,0.000390,-0.000505,-0.001530,0.385696,0.303712,9.698483,0.000000,0.000000,0,0,,38.990286,-76.940899,-9.354000,,,
2026-09-11T19:05:54.464,9.221030,-0.000000,-0.000000,-0.000000,0.000000,19.610596,-6.746765,-0.000000,0.000640,0.001348,-0.014747,-0.000052,-0.007005,0.001554,-0.000506,0.002831,0.416783,0.350686,9.669553,0.000000,0.000000,0,0,,38.990286,-76.940899,-9.354000,,,
2026-09-11T19:05:54.498,9.254432,-0.000000,-0.000000,-0.000000,0.000000,19.610596,-6.746765,-0.000000,-0.000518,-0.001090,-0.014743,-0.000052,-0.007003,0.000562,-0.000621,0.000393,0.393345,0.243891,9.709172,0.000000,0.000000,0,0,,38.990286,-76.940899,-9.354000,,,
2026-09-11T19:05:54.532,9.287844,-0.000000,-0.000000,-0.000000,0.000000,19.610596,-6.746765,-0.000000,-0.001256,-0.002645,-0.014805,-0.000052,-0.007032,-0.002412,0.000577,-0.001162,0.435808,0.431983,9.661414,0.000000,0.000000,0,0,,38.990286,-76.940899,-9.354000,,,
2026-09-11T19:05:54.565,9.321255,-0.000000,-0.000000,-0.000000,0.000000,19.610596,-6.746765,-0.000000,0.000604,0.001271,-0.014828,-0.000052,-0.007043,-0.000829,-0.000189,0.002755,0.320187,0.222219,9.734277,0.000000,0.000000,0,0,,38.990286,-76.940899,-9.354000,,,
2026-09-11T19:05:54.598,9.354658,-0.000000,-0.000000,-0.000000,0.000000,19.610596,-6.746765,-0.000000,-0.000119,-0.000250,-0.014811,-0.000052,-0.007035,-0.003334,-0.000970,0.001233,0.488567,0.363925,9.667886,0.000000,0.000000,0,0,,38.990286,-76.940899,-9.354000,,,
2026-09-11T19:05:54.632,9.388056,-0.000000,-0.000000,-0.000000,0.000000,19.610596,-6.746765,-0.000000,-0.000184,-0.000388,-0.014822,-0.000052,-0.007040,-0.002649,0.000254,0.001095,0.352843,0.286256,9.693285,0.000000,0.000000,0,0,,38.990286,-76.940899,-9.354000,,,
2026-09-11T19:05:54.665,9.421465,-0.000000,-0.000000,-0.000000,0.000000,19.610596,-6.746765,-0.000000,-0.001909,-0.004019,-0.014895,-0.000053,-0.007075,-0.004295,0.001216,-0.002535,0.364317,0.172695,9.703092,0.000000,0.000000,0,0,,38.990286,-76.940899,-9.354000,,,
2026-09-11T19:05:54.699,9.454879,-0.000000,-0.000000,-0.000000,0.000000,19.610596,-6.746765,-0.000000,-0.000529,-0.001114,-0.014981,-0.000053,-0.007116,-0.000995,-0.001042,0.000370,0.440613,0.364317,9.661610,0.000000,0.000000,0,0,,38.990286,-76.940899,-9.354000,,,
2026-09-11T19:05:54.732,9.488284,-0.000000,-0.000000,-0.000000,0.000000,19.610596,-6.746765,-0.000000,-0.000517,-0.001088,-0.015018,-0.000054,-0.007133,0.002235,0.000883,0.000395,0.302339,0.170145,9.735846,0.000000,0.000000,0,0,,38.990286,-76.940899,-9.354000,,,
2026-09-11T19:05:54.765,9.521685,-0.000000,-0.000000,-0.000000,0.000000,19.610596,-6.746765,-0.000000,-0.001123,-0.002364,-0.015075,-0.000054,-0.007161,0.004446,0.001540,-0.000881,0.471406,0.365984,9.677300,0.000000,0.000000,0,0,,38.990286,-76.940899,-9.354000,,,
2026-09-11T19:05:54.799,9.555089,-0.000000,-0.000000,-0.000000,0.000000,19.610596,-6.746765,-0.000000,0.001382,0.002909,-0.015066,-0.000054,-0.007156,0.005827,-0.000228,0.004393,0.350097,0.266251,9.714762,0.000000,0.000000,0,0,,38.990286,-76.940899,-9.354000,,,
2026-09-11T19:05:54.832,9.588518,-0.000000,-0.000000,-0.000000,0.000000,19.456100,-6.693613,-0.000000,-0.001567,-0.003299,-0.015073,-0.000054,-0.007159,0.021633,0.001672,-0.001816,0.357354,0.244676,9.722411,0.000000,0.000000,0,0,,38.990286,-76.940899,-9.354000,,,
2026-09-11T19:05:54.866,9.621926,-0.000000,-0.000000,-0.000000,0.000000,19.191055,-6.602427,-0.000000,0.000003,0.000007,-0.015128,-0.000054,-0.007185,0.029352,0.000274,0.001490,0.463658,0.329013,9.699562,0.000000,0.000000,0,1,9.611470,38.990286,-76.940899,-9.352000,-0.112066,-0.060416,2.824075
2026-09-11T19:05:54.899,9.655330,-0.000000,-0.000000,-0.000000,0.000000,18.933563,-6.513841,-0.000000,-0.000400,-0.000843,-0.015142,-0.000054,-0.007192,0.027525,0.000713,0.000641,0.366573,0.195937,9.717606,0.000000,0.000000,0,0,,38.990286,-76.940899,-9.352000,,,
2026-09-11T19:05:54.931,9.688727,-0.000000,-0.000000,-0.000000,0.000000,18.882751,-6.496359,-0.000000,-0.001348,-0.002838,-0.015203,-0.000055,-0.007221,0.028215,0.003733,-0.001354,0.419136,0.336662,9.676222,0.000000,0.000000,0,0,,38.990286,-76.940899,-9.352000,,,
2026-09-11T19:05:54.966,9.722125,-0.000000,-0.000000,-0.000000,0.000000,18.884811,-6.497068,-0.000000,-0.000081,-0.000170,-0.015254,-0.000055,-0.007245,0.015371,0.002203,0.001313,0.395894,0.380988,9.713389,0.000000,0.000000,0,0,,38.990286,-76.940899,-9.352000,,,
2026-09-11T19:05:55.000,9.755543,-0.000000,-0.000000,-0.000000,0.000000,18.840866,-6.481949,-0.000000,-0.002394,-0.005039,-0.015341,-0.000056,-0.007286,-0.008037,0.001451,-0.003556,0.397660,0.278117,9.683871,0.000000,0.000000,0,0,,38.990286,-76.940899,-9.352000,,,
2026-09-11T19:05:55.033,9.788951,-0.000000,-0.000000,-0.000000,0.000000,18.995361,-6.535101,-0.000000,-0.000887,-0.001867,-0.015456,-0.000057,-0.007341,-0.009559,0.001436,-0.000384,0.692055,0.356178,9.630130,0.000000,0.000000,0,0,,38.990286,-76.940899,-9.352000,,,
2026-09-11T19:05:55.066,9.822362,-0.000000,-0.000000,-0.000000,0.000000,19.039307,-6.550220,-0.000000,-0.000535,-0.001127,-0.015506,-0.000057,-0.007365,-0.012713,-0.000226,0.000356,0.534364,0.434925,9.591590,0.000000,0.000000,0,0,,38.990286,-76.940899,-9.352000,,,
2026-09-11T19:05:55.099,9.855764,-0.000000,-0.000000,-0.000000,0.000000,18.820267,-6.474862,-0.000000,0.001649,0.003471,-0.015467,-0.000057,-0.007346,-0.014574,-0.000782,0.004955,0.330778,0.191230,9.600220,0.000000,0.000000,0,0,,38.990286,-76.940899,-9.352000,,,
2026-09-11T19:05:55.133,9.889163,-0.000000,-0.000000,-0.000000,0.000000,18.518143,-6.370921,-0.000000,0.001373,0.002890,-0.015361,-0.000056,-0.007296,-0.015533,-0.002272,0.004374,0.374908,0.318814,9.691814,0.000000,0.000000,0,0,,38.990286,-76.940899,-9.352000,,,
2026-09-11T19:05:55.166,9.922564,-0.000000,-0.000000,-0.000000,0.000000,18.445358,-6.345880,-0.000000,0.000085,0.000179,-0.015309,-0.000056,-0.007272,-0.013811,-0.000138,0.001663,0.313519,0.234281,9.713291,0.000000,0.000000,0,0,,38.990286,-76.940899,-9.352000,,,
2026-09-11T19:05:55.200,9.955980,-0.000000,-0.000000,-0.000000,0.000000,18.445358,-6.345880,-0.000000,-0.001301,-0.002738,-0.015352,-0.000056,-0.007292,-0.001793,0.001888,-0.001255,0.363827,0.302339,9.708682,0.000000,0.000000,0,0,,38.990286,-76.940899,-9.352000,,,
2026-09-11T19:05:55.233,9.989387,-0.000000,-0.000000,-0.000000,0.000000,18.445358,-6.345880,-0.000000,0.000601,0.001266,-0.015377,-0.000056,-0.007304,0.007479,-0.001078,0.002749,0.322835,0.304987,9.693776,0.000000,0.000000,0,0,,38.990286,-76.940899,-9.352000,,,
2026-09-11T19:05:55.266,10.022787,-0.000000,-0.000000,-0.000000,0.000000,18.445358,-6.345880,-0.000000,-0.001788,-0.003763,-0.015418,-0.000056,-0.007323,0.015227,-0.000387,-0.002280,0.367946,0.262328,9.698091,0.000000,0.000000,0,0,,38.990286,-76.940899,-9.352000,,,
2026-09-11T19:05:55.300,10.056190,-0.000000,-0.000000,-0.000000,0.000000,18.445358,-6.345880,-0.000000,-0.001651,-0.003475,-0.015539,-0.000057,-0.007381,0.019987,0.001118,-0.001991,0.403642,0.322835,9.684067,0.000000,0.000000,0,0,,38.990286,-76.940899,-9.352000,,,
2026-09-11T19:05:55.333,10.089590,-0.000000,-0.000000,-0.000000,0.000000,18.445358,-6.345880,-0.000000,-0.000467,-0.000984,-0.015614,-0.000058,-0.007416,0.016603,-0.002100,0.000499,0.423255,0.285668,9.694168,0.000000,0.000000,0,0,,38.990286,-76.940899,-9.352000,,,
2026-09-11T19:05:55.367,10.123005,-0.000000,-0.000000,-0.000000,0.000000,18.445358,-6.345880,-0.000000,-0.000931,-0.001959,-0.015663,-0.000058,-0.007440,0.011263,-0.000808,-0.000476,0.426687,0.369318,9.702896,0.000000,0.000000,0,0,,38.990286,-76.940899,-9.352000,,,
2026-09-11T19:05:55.400,10.156421,-0.000000,-0.000000,-0.000000,0.000000,18.445358,-6.345880,-0.000000,-0.000907,-0.001909,-0.015728,-0.000059,-0.007470,0.010861,-0.000307,-0.000425,0.464639,0.275371,9.682596,0.000000,0.000000,0,0,,38.990286,-76.940899,-9.352000,,,
2026-09-11T19:05:55.433,10.189821,-0.000000,-0.000000,-0.000000,0.000000,18.445358,-6.345880,-0.000000,-0.001775,-0.003737,-0.015822,-0.000059,-0.007515,-0.001367,-0.001764,-0.002253,0.351078,0.336466,9.694266,0.000000,0.000000,0,0,,38.990286,-76.940899,-9.352000,,,
2026-09-11T19:05:55.467,10.223221,-0.000000,-0.000000,-0.000000,0.000000,18.599854,-6.399032,-0.000000,-0.001347,-0.002836,-0.015932,-0.000060,-0.007567,-0.012695,-0.000748,-0.001352,0.317441,0.341664,9.700836,0.000000,0.000000,0,0,,38.990286,-76.940899,-9.352000,,,
2026-09-11T19:05:55.500,10.256624,-0.000000,-0.000000,-0.000000,0.000000,18.643799,-6.414151,-0.000000,0.000442,0.000931,-0.015963,-0.000061,-0.007582,-0.016058,-0.000462,0.002415,0.325287,0.375889,9.680537,0.000000,0.000000,0,0,,38.990286,-76.940899,-9.352000,,,
2026-09-11T19:05:55.534,10.290031,-0.000000,-0.000000,-0.000000,0.000000,18.643799,-6.414151,-0.000000,0.001757,0.003699,-0.015886,-0.000060,-0.007546,-0.020064,-0.001219,0.005182,0.360983,0.318814,9.701719,0.000000,0.000000,0,0,,38.990286,-76.940899,-9.352000,,,
2026-09-11T19:05:55.568,10.323439,-0.000000,-0.000000,-0.000000,0.000000,18.643799,-6.414151,-0.000000,-0.000548,-0.001153,-0.015844,-0.000060,-0.007525,-0.018749,0.000235,0.000330,0.443261,0.241636,9.685244,0.000000,0.000000,0,0,,38.990286,-76.940899,-9.352000,,,
2026-09-11T19:05:55.601,10.356848,-0.000000,-0.000000,-0.000000,0.000000,18.643799,-6.414151,-0.000000,-0.000141,-0.000297,-0.015868,-0.000060,-0.007537,-0.006182,-0.000318,0.001186,0.438750,0.281745,9.703680,0.000000,0.000000,0,0,,38.990286,-76.940899,-9.352000,,,
2026-09-11T19:05:55.634,10.390249,-0.000000,-0.000000,-0.000000,0.000000,18.643799,-6.414151,-0.000000,-0.000064,-0.000136,-0.015875,-0.000060,-0.007540,-0.000392,-0.000308,0.001348,0.462972,0.272429,9.694560,0.000000,0.000000,0,0,,38.990286,-76.940899,-9.352000,,,
2026-09-11T19:05:55.668,10.423648,-0.000000,-0.000000,-0.000000,0.000000,18.643799,-6.414151,-0.000000,-0.000929,-0.001955,-0.015910,-0.000060,-0.007557,0.008009,0.000621,-0.000472,0.464149,0.273606,9.685538,0.000000,0.000000,0,0,,38.990286,-76.940899,-9.352000,,,
2026-09-11T19:05:55.701,10.457065,-0.000000,-0.000000,-0.000000,0.000000,18.643799,-6.414151,-0.000000,-0.000311,-0.000655,-0.015954,-0.000060,-0.007578,0.016783,-0.000355,0.000829,0.375399,0.303025,9.706818,0.000000,0.000000,0,0,,38.990286,-76.940899,-9.352000,,,
2026-09-11T19:05:55.734,10.490473,-0.000000,-0.000000,-0.000000,0.000000,18.643799,-6.414151,-0.000000,-0.001401,-0.002949,-0.016014,-0.000061,-0.007606,0.014991,0.000334,-0.001465,0.394227,0.311165,9.684950,0.000000,0.000000,0,0,,38.990286,-76.940899,-9.352000,,,
2026-09-11T19:05:55.767,10.523873,-0.000000,-0.000000,-0.000000,0.000000,18.643799,-6.414151,-0.000000,-0.001268,-0.002670,-0.016108,-0.000062,-0.007651,0.008948,0.000153,-0.001186,0.363434,0.316853,9.693972,0.000000,0.000000,0,0,,38.990286,-76.940899,-9.352000,,,
2026-09-11T19:05:55.801,10.557277,-0.000000,-0.000000,-0.000000,0.000000,18.643799,-6.414151,-0.000000,-0.000301,-0.000634,-0.016163,-0.000062,-0.007677,0.000789,-0.000509,0.000850,0.366867,0.355785,9.695443,0.000000,0.000000,0,0,,38.990286,-76.940899,-9.352000,,,
2026-09-11T19:05:55.835,10.590674,-0.000000,-0.000000,-0.000000,0.000000,18.643799,-6.414151,-0.000000,0.000251,0.000528,-0.016164,-0.000062,-0.007678,-0.006375,0.000470,0.002011,0.395600,0.327836,9.684950,0.000000,0.000000,0,0,,38.990286,-76.940899,-9.352000,,,
2026-09-11T19:05:55.869,10.624115,-0.000000,-0.000000,-0.000000,0.000000,18.643799,-6.414151,-0.000000,0.000930,0.001957,-0.016123,-0.000062,-0.007658,-0.014273,-0.000770,0.003441,0.382557,0.320187,9.697012,0.000000,0.000000,0,1,10.609544,38.990286,-76.940899,-9.359000,-0.118692,-0.065790,2.824075
2026-09-11T19:05:55.901,10.657524,-0.000000,-0.000000,-0.000000,0.000000,18.643799,-6.414151,-0.000000,0.000312,0.000657,-0.016079,-0.000061,-0.007637,-0.015288,-0.000868,0.002141,0.414037,0.305477,9.686519,0.000000,0.000000,0,0,,38.990286,-76.940899,-9.359000,,,
2026-09-11T19:05:55.934,10.690925,-0.000000,-0.000000,-0.000000,0.000000,18.643799,-6.414151,-0.000000,-0.000040,-0.000084,-0.016070,-0.000061,-0.007633,-0.011970,0.000884,0.001399,0.418450,0.276744,9.694854,0.000000,0.000000,0,0,,38.990286,-76.940899,-9.359000,,,
2026-09-11T19:05:55.968,10.724323,-0.000000,-0.000000,-0.000000,0.000000,18.643799,-6.414151,-0.000000,-0.000873,-0.001838,-0.016102,-0.000062,-0.007648,-0.004108,-0.001328,-0.000354,0.402759,0.285079,9.702111,0.000000,0.000000,0,0,,38.990286,-76.940899,-9.359000,,,
2026-09-11T19:05:56.002,10.757780,-0.000000,-0.000000,-0.000000,0.000000,18.643799,-6.414151,-0.000000,-0.000145,-0.000304,-0.016138,-0.000062,-0.007665,0.002314,-0.000509,0.001179,0.402367,0.278117,9.698875,0.000000,0.000000,0,0,,38.990286,-76.940899,-9.359000,,,
2026-09-11T19:05:56.035,10.791190,-0.000000,-0.000000,-0.000000,0.000000,18.643799,-6.414151,-0.000000,-0.001779,-0.003745,-0.016205,-0.000062,-0.007697,0.009288,0.001090,-0.002261,0.378242,0.289787,9.707505,0.000000,0.000000,0,0,,38.990286,-76.940899,-9.359000,,,
2026-09-11T19:05:56.068,10.824590,-0.000000,-0.000000,-0.000000,0.000000,18.643799,-6.414151,-0.000000,-0.001425,-0.002999,-0.016318,-0.000063,-0.007751,0.012446,0.001333,-0.001516,0.380008,0.301751,9.697306,0.000000,0.000000,0,0,,38.990286,-76.940899,-9.359000,,,
2026-09-11T19:05:56.102,10.858006,-0.000000,-0.000000,-0.000000,0.000000,18.643799,-6.414151,-0.000000,-0.000844,-0.001777,-0.016398,-0.000064,-0.007789,0.009214,-0.000377,-0.000294,0.397267,0.314107,9.693383,0.000000,0.000000,0,0,,38.990286,-76.940899,-9.359000,,,
2026-09-11T19:05:56.135,10.891414,-0.000000,-0.000000,-0.000000,0.000000,18.643799,-6.414151,-0.000000,-0.001399,-0.002945,-0.016477,-0.000064,-0.007826,0.006896,0.001756,-0.001461,0.395894,0.329111,9.700640,0.000000,0.000000,0,0,,38.990286,-76.940899,-9.359000,,,
2026-09-11T19:05:56.168,10.924820,-0.000000,-0.000000,-0.000000,0.000000,18.643799,-6.414151,-0.000000,-0.000891,-0.001875,-0.016557,-0.000065,-0.007864,-0.004594,-0.001225,-0.000391,0.411291,0.329209,9.689068,0.000000,0.000000,0,0,,38.990286,-76.940899,-9.359000,,,
2026-09-11T19:05:56.202,10.958229,-0.000000,-0.000000,-0.000000,0.000000,18.643799,-6.414151,-0.000000,-0.000153,-0.000321,-0.016594,-0.000065,-0.007882,-0.010603,0.001127,0.001162,0.384323,0.320677,9.696718,0.000000,0.000000,0,0,,38.990286,-76.940899,-9.359000,,,
2026-09-11T19:05:56.235,10.991629,-0.000000,-0.000000,-0.000000,0.000000,18.643799,-6.414151,-0.000000,-0.000526,-0.001107,-0.016618,-0.000066,-0.007893,-0.009229,0.000864,0.000377,0.383734,0.313911,9.694756,0.000000,0.000000,0,0,,38.990286,-76.940899,-9.359000,,,
2026-09-11T19:05:56.269,11.025027,-0.000000,-0.000000,-0.000000,0.000000,18.643799,-6.414151,-0.000000,-0.000349,-0.000735,-0.016648,-0.000066,-0.007908,-0.012412,0.000858,0.000748,0.387068,0.292434,9.696521,0.000000,0.000000,0,0,,38.990286,-76.940899,-9.359000,,,
2026-09-11T19:05:56.302,11.058442,-0.000000,-0.000000,-0.000000,0.000000,18.643799,-6.414151,-0.000000,-0.000844,-0.001776,-0.016690,-0.000066,-0.007928,-0.006851,-0.000201,-0.000293,0.389716,0.288708,9.699954,0.000000,0.000000,0,0,,38.990286,-76.940899,-9.359000,,,
2026-09-11T19:05:56.336,11.091849,-0.000000,-0.000000,-0.000000,0.000000,18.643799,-6.414151,-0.000000,-0.000177,-0.000373,-0.016726,-0.000066,-0.007945,0.000927,-0.000552,0.001111,0.402269,0.289590,9.697306,0.000000,0.000000,0,0,,38.990286,-76.940899,-9.359000,,,
2026-09-11T19:05:56.369,11.125249,-0.000000,-0.000000,-0.000000,0.000000,18.643799,-6.414151,-0.000000,-0.000726,-0.001529,-0.016758,-0.000067,-0.007960,0.003914,-0.000193,-0.000046,0.394129,0.287139,9.693874,0.000000,0.000000,0,0,,38.990286,-76.940899,-9.359000,,,
2026-09-11T19:05:56.402,11.158653,-0.000000,-0.000000,-0.000000,0.000000,18.643799,-6.414151,-0.000000,-0.001561,-0.003286,-0.016838,-0.000067,-0.007998,0.009524,0.002172,-0.001803,0.393247,0.302927,9.693481,0.000000,0.000000,0,0,,38.990286,-76.940899,-9.359000,,,
2026-09-11T19:05:56.436,11.192053,-0.000000,-0.000000,-0.000000,0.000000,18.643799,-6.414151,-0.000000,-0.001178,-0.002480,-0.016935,-0.000068,-0.008044,0.011004,-0.000280,-0.000996,0.397365,0.302829,9.693383,0.000000,0.000000,0,0,,38.990286,-76.940899,-9.359000,,,
2026-09-11T19:05:56.469,11.225462,-0.000000,-0.000000,-0.000000,0.000000,18.643799,-6.414151,-0.000000,-0.001546,-0.003255,-0.017031,-0.000069,-0.008089,0.005531,0.001362,-0.001772,0.392462,0.324894,9.694462,0.000000,0.000000,0,0,,38.990286,-76.940899,-9.359000,,,
2026-09-11T19:05:56.502,11.258880,-0.000000,-0.000000,-0.000000,0.000000,18.643799,-6.414151,-0.000000,-0.000829,-0.001745,-0.017114,-0.000070,-0.008129,0.002307,0.001130,-0.000262,0.400013,0.320089,9.691422,0.000000,0.000000,0,0,,38.990286,-76.940899,-9.359000,,,
2026-09-11T19:05:56.536,11.292284,-0.000000,-0.000000,-0.000000,0.000000,18.643799,-6.414151,-0.000000,-0.000076,-0.000161,-0.017146,-0.000070,-0.008144,-0.001859,-0.000860,0.001323,0.394816,0.320874,9.694658,0.000000,0.000000,0,0,,38.990286,-76.940899,-9.359000,,,
2026-09-11T19:05:56.569,11.325682,-0.000000,-0.000000,-0.000000,0.000000,18.643799,-6.414151,-0.000000,-0.001171,-0.002465,-0.017190,-0.000070,-0.008165,-0.005768,0.001739,-0.000982,0.391089,0.313421,9.696718,0.000000,0.000000,0,0,,38.990286,-76.940899,-9.359000,,,
2026-09-11T19:05:56.602,11.359087,-0.000000,-0.000000,-0.000000,0.000000,18.643799,-6.414151,-0.000000,-0.000465,-0.000978,-0.017247,-0.000071,-0.008192,-0.005835,0.000672,0.000505,0.394423,0.301162,9.694168,0.000000,0.000000,0,0,,38.990286,-76.940899,-9.359000,,,
2026-09-11T19:05:56.636,11.392494,-0.000000,-0.000000,-0.000000,0.000000,18.643799,-6.414151,-0.000000,-0.000158,-0.000334,-0.017269,-0.000071,-0.008202,-0.006854,-0.001090,0.001150,0.393541,0.300574,9.705151,0.000000,0.000000,0,0,,38.990286,-76.940899,-9.359000,,,
2026-09-11T19:05:56.670,11.425897,-0.000000,-0.000000,-0.000000,0.000000,18.643799,-6.414151,-0.000000,-0.001098,-0.002311,-0.017313,-0.000071,-0.008223,0.000491,0.001193,-0.000828,0.400798,0.292140,9.694854,0.000000,0.000000,0,0,,38.990286,-76.940899,-9.359000,,,
2026-09-11T19:05:56.703,11.459303,-0.000000,-0.000000,-0.000000,0.000000,18.643799,-6.414151,-0.000000,-0.000264,-0.000557,-0.017361,-0.000072,-0.008246,0.006560,0.000748,0.000927,0.394227,0.295867,9.698385,0.000000,0.000000,0,0,,38.990286,-76.940899,-9.359000,,,
2026-09-11T19:05:56.736,11.492706,-0.000000,-0.000000,-0.000000,0.000000,18.643799,-6.414151,-0.000000,-0.001239,-0.002608,-0.017414,-0.000072,-0.008271,0.004400,-0.000291,-0.001125,0.392462,0.302143,9.696423,0.000000,0.000000,0,0,,38.990286,-76.940899,-9.359000,,,
2026-09-11T19:05:56.770,11.526111,-0.000000,-0.000000,-0.000000,0.000000,18.643799,-6.414151,-0.000000,-0.000820,-0.001726,-0.017487,-0.000073,-0.008306,0.008870,0.000766,-0.000243,0.396777,0.307635,9.702896,0.000000,0.000000,0,0,,38.990286,-76.940899,-9.359000,,,
2026-09-11T19:05:56.803,11.559526,-0.000000,-0.000000,-0.000000,0.000000,18.643799,-6.414151,-0.000000,-0.000102,-0.000215,-0.017519,-0.000073,-0.008321,0.005415,-0.000308,0.001269,0.393737,0.306458,9.680929,0.000000,0.000000,0,0,,38.990286,-76.940899,-9.359000,,,
2026-09-11T19:05:56.837,11.592927,-0.000000,-0.000000,-0.000000,0.000000,18.643799,-6.414151,-0.000000,-0.000816,-0.001718,-0.017551,-0.000073,-0.008336,0.001626,-0.000514,-0.000234,0.397365,0.320874,9.700444,0.000000,0.000000,0,1,11.589882,38.990286,-76.940899,-9.301000,-0.116100,-0.071721,2.553010
2026-09-11T19:05:56.870,11.626326,-0.000000,-0.000000,-0.000000,0.000000,18.643799,-6.414151,-0.000000,0.000088,0.000186,-0.017577,-0.000073,-0.008349,0.000038,-0.000701,0.001670,0.397562,0.316559,9.695443,0.000000,0.000000,0,0,,38.990286,-76.940899,-9.301000,,,
2026-09-11T19:05:56.904,11.659729,-0.000000,-0.000000,-0.000000,0.000000,18.643799,-6.414151,-0.000000,-0.000975,-0.002052,-0.017608,-0.000074,-0.008363,-0.004381,-0.000978,-0.000569,0.388441,0.312930,9.693187,0.000000,0.000000,0,0,,38.990286,-76.940899,-9.301000,,,
2026-09-11T19:05:56.937,11.693137,-0.000000,-0.000000,-0.000000,0.000000,18.643799,-6.414151,-0.000000,0.000171,0.000359,-0.017636,-0.000074,-0.008377,-0.007857,-0.000799,0.001843,0.394522,0.308811,9.702209,0.000000,0.000000,0,0,,38.990286,-76.940899,-9.301000,,,
2026-09-11T19:05:56.971,11.726541,-0.000000,-0.000000,-0.000000,0.000000,18.643799,-6.414151,-0.000000,-0.000614,-0.001293,-0.017652,-0.000074,-0.008384,-0.003027,-0.000730,0.000190,0.392756,0.297534,9.687892,0.000000,0.000000,0,0,,38.990286,-76.940899,-9.301000,,,
2026-09-11T19:05:57.004,11.759946,-0.000000,-0.000000,-0.000000,0.000000,18.643799,-6.414151,-0.000000,-0.001101,-0.002317,-0.017712,-0.000075,-0.008413,-0.000940,-0.000374,-0.000833,0.395404,0.298907,9.699169,0.000000,0.000000,0,0,,38.990286,-76.940899,-9.301000,,,
2026-09-11T19:05:57.037,11.793346,-0.000000,-0.000000,-0.000000,0.000000,18.643799,-6.414151,-0.000000,-0.000639,-0.001346,-0.017773,-0.000075,-0.008442,-0.001413,0.000189,0.000137,0.396189,0.296161,9.699169,0.000000,0.000000,0,0,,38.990286,-76.940899,-9.301000,,,
2026-09-11T19:05:57.071,11.826752,-0.000000,-0.000000,-0.000000,0.000000,18.643799,-6.414151,-0.000000,-0.000216,-0.000455,-0.017803,-0.000075,-0.008456,0.005225,-0.001193,0.001029,0.389128,0.301653,9.700934,0.000000,0.000000,0,0,,38.990286,-76.940899,-9.301000,,,
2026-09-11T19:05:57.104,11.860169,-0.000000,-0.000000,-0.000000,0.000000,18.643799,-6.414151,-0.000000,-0.001626,-0.003423,-0.017868,-0.000076,-0.008487,0.004735,-0.000217,-0.001939,0.398640,0.302829,9.693678,0.000000,0.000000,0,0,,38.990286,-76.940899,-9.301000,,,
2026-09-11T19:05:57.138,11.893574,-0.000000,-0.000000,-0.000000,0.000000,18.643799,-6.414151,-0.000000,-0.000811,-0.001706,-0.017954,-0.000077,-0.008528,0.002722,0.001445,-0.000223,0.390893,0.311655,9.697698,0.000000,0.000000,0,0,,38.990286,-76.940899,-9.301000,,,
2026-09-11T19:05:57.170,11.926974,-0.000000,-0.000000,-0.000000,0.000000,18.643799,-6.414151,-0.000000,0.000018,0.000039,-0.017982,-0.000077,-0.008541,-0.000527,-0.001459,0.001522,0.396679,0.312636,9.689166,0.000000,0.000000,0,0,,38.990286,-76.940899,-9.301000,,,
2026-09-11T19:05:57.204,11.960377,-0.000000,-0.000000,-0.000000,0.000000,18.643799,-6.414151,-0.000000,-0.000845,-0.001779,-0.018011,-0.000077,-0.008555,-0.001773,0.000185,-0.000295,0.396287,0.315578,9.692207,0.000000,0.000000,0,0,,38.990286,-76.940899,-9.301000,,,
2026-09-11T19:05:57.240,11.993758,-0.000000,-0.000000,-0.000000,0.000000,18.643799,-6.414151,-0.000000,-0.000898,-0.001891,-0.018072,-0.000078,-0.008584,-0.003122,0.000474,-0.000408,0.392168,0.316166,9.696423,0.000000,0.000000,0,0,,38.990286,-76.940899,-9.301000,,,
2026-09-11T19:05:57.271,12.027165,-0.000000,-0.000000,-0.000000,0.000000,18.643799,-6.414151,-0.000000,0.000285,0.000600,-0.018094,-0.000078,-0.008594,-0.006250,-0.000555,0.002084,0.397169,0.304595,9.689363,0.000000,0.000000,0,0,,38.990286,-76.940899,-9.301000,,,
2026-09-11T19:05:57.304,12.060579,-0.000000,-0.000000,-0.000000,0.000000,18.643799,-6.414151,-0.000000,-0.000476,-0.001001,-0.018100,-0.000078,-0.008597,-0.004102,0.001052,0.000482,0.393933,0.300672,9.698189,0.000000,0.000000,0,0,,38.990286,-76.940899,-9.301000,,,
2026-09-11T19:05:57.337,12.093977,-0.000000,-0.000000,-0.000000,0.000000,18.643799,-6.414151,-0.000000,-0.001200,-0.002526,-0.018159,-0.000078,-0.008625,-0.001488,0.000822,-0.001042,0.395796,0.301947,9.700248,0.000000,0.000000,0,0,,38.990286,-76.940899,-9.301000,,,
2026-09-11T19:05:57.371,12.127377,-0.000000,-0.000000,-0.000000,0.000000,18.643799,-6.414151,-0.000000,-0.001290,-0.002717,-0.018247,-0.000079,-0.008667,-0.000568,-0.000807,-0.001233,0.396973,0.298809,9.701131,0.000000,0.000000,0,0,,38.990286,-76.940899,-9.301000,,,
2026-09-11T19:05:57.405,12.160792,-0.000000,-0.000000,-0.000000,0.000000,18.643799,-6.414151,-0.000000,-0.000055,-0.000116,-0.018294,-0.000079,-0.008689,0.001490,0.000470,0.001368,0.391678,0.296651,9.688186,0.000000,0.000000,0,0,,38.990286,-76.940899,-9.301000,,,
2026-09-11T19:05:57.438,12.194196,-0.000000,-0.000000,-0.000000,0.000000,18.643799,-6.414151,-0.000000,-0.001507,-0.003172,-0.018349,-0.000080,-0.008715,0.005783,0.000791,-0.001689,0.394423,0.302927,9.693972,0.000000,0.000000,0,0,,38.990286,-76.940899,-9.301000,,,
2026-09-11T19:05:57.471,12.227595,-0.000000,-0.000000,-0.000000,0.000000,18.643799,-6.414151,-0.000000,0.000084,0.000176,-0.018399,-0.000080,-0.008739,0.000904,0.000261,0.001660,0.395012,0.310577,9.697698,0.000000,0.000000,0,0,,38.990286,-76.940899,-9.301000,,,
2026-09-11T19:05:57.505,12.261003,-0.000000,-0.000000,-0.000000,0.000000,18.643799,-6.414151,-0.000000,-0.001381,-0.002908,-0.018445,-0.000081,-0.008761,0.000798,0.000384,-0.001425,0.395502,0.311165,9.693187,0.000000,0.000000,0,0,,38.990286,-76.940899,-9.301000,,,
2026-09-11T19:05:57.541,12.294410,-0.000000,-0.000000,-0.000000,0.000000,18.643799,-6.414151,-0.000000,-0.000231,-0.000486,-0.018501,-0.000081,-0.008788,-0.001941,-0.000198,0.000997,0.395306,0.313911,9.693383,0.000000,0.000000,0,0,,38.990286,-76.940899,-9.301000,,,
2026-09-11T19:05:57.572,12.327814,-0.000000,-0.000000,-0.000000,0.000000,18.643799,-6.414151,-0.000000,-0.001207,-0.002540,-0.018552,-0.000082,-0.008812,-0.001916,0.001511,-0.001057,0.393345,0.310675,9.697208,0.000000,0.000000,0,0,,38.990286,-76.940899,-9.301000,,,
2026-09-11T19:05:57.605,12.361220,-0.000000,-0.000000,-0.000000,0.000000,18.643799,-6.414151,-0.000000,-0.001344,-0.002829,-0.018642,-0.000083,-0.008854,-0.003201,0.001735,-0.001345,0.394031,0.306164,9.695149,0.000000,0.000000,0,0,,38.990286,-76.940899,-9.301000,,,
2026-09-11T19:05:57.638,12.394619,-0.000000,-0.000000,-0.000000,0.000000,18.643799,-6.414151,-0.000000,-0.000017,-0.000037,-0.018689,-0.000083,-0.008877,-0.004478,-0.000658,0.001447,0.393051,0.303614,9.698679,0.000000,0.000000,0,0,,38.990286,-76.940899,-9.301000,,,
2026-09-11T19:05:57.672,12.428016,-0.000000,-0.000000,-0.000000,0.000000,18.643799,-6.414151,-0.000000,-0.001561,-0.003287,-0.018745,-0.000083,-0.008903,-0.000983,0.001362,-0.001803,0.394718,0.302731,9.698777,0.000000,0.000000,0,0,,38.990286,-76.940899,-9.301000,,,
2026-09-11T19:05:57.705,12.461433,-0.000000,-0.000000,-0.000000,0.000000,18.643799,-6.414151,-0.000000,-0.000724,-0.001524,-0.018825,-0.000084,-0.008941,0.002198,0.001414,-0.000041,0.395698,0.298907,9.702700,0.000000,0.000000,0,0,,38.990286,-76.940899,-9.301000,,,
2026-09-11T19:05:57.739,12.494835,-0.000000,-0.000000,-0.000000,0.000000,18.643799,-6.414151,-0.000000,-0.000015,-0.000032,-0.018851,-0.000084,-0.008954,0.001492,-0.001185,0.001452,0.395894,0.303418,9.690441,0.000000,0.000000,0,0,,38.990286,-76.940899,-9.301000,,,
2026-09-11T19:05:57.772,12.528234,-0.000000,-0.000000,-0.000000,0.000000,18.643799,-6.414151,-0.000000,-0.001992,-0.004193,-0.018922,-0.000085,-0.008987,0.002122,0.001557,-0.002710,0.390501,0.304398,9.687205,0.000000,0.000000,0,0,,38.990286,-76.940899,-9.301000,,,
2026-09-11T19:05:57.806,12.561640,-0.000000,-0.000000,-0.000000,0.000000,18.643799,-6.414151,-0.000000,-0.000922,-0.001942,-0.019024,-0.000086,-0.009036,0.005534,0.001422,-0.000458,0.383244,0.312832,9.642585,0.000000,0.000000,0,0,,38.990286,-76.940899,-9.301000,,,
2026-09-11T19:05:57.840,12.595045,-0.000000,-0.000000,-0.000000,0.000000,18.643799,-6.414151,-0.000000,-0.000315,-0.000663,-0.019068,-0.000086,-0.009057,0.001543,0.000606,0.000820,0.384225,0.259680,9.628267,0.000000,0.000000,0,1,12.589327,38.990286,-76.940899,-9.275000,-0.110194,-0.088029,2.712357
2026-09-11T19:05:57.874,12.628461,-0.000000,-0.000000,-0.000000,0.000000,18.643799,-6.414151,-0.000000,-0.001469,-0.003093,-0.019131,-0.000087,-0.009086,0.003209,0.000862,-0.001610,0.399817,0.354805,9.697894,0.000000,0.000000,0,0,,38.990286,-76.940899,-9.275000,,,
2026-09-11T19:05:57.905,12.661861,-0.000000,-0.000000,-0.000000,0.000000,18.643799,-6.414151,-0.000000,-0.000633,-0.001332,-0.019204,-0.000088,-0.009122,0.004096,0.001243,0.000152,0.402857,0.346273,9.692108,0.000000,0.000000,0,0,,38.990286,-76.940899,-9.275000,,,
2026-09-11T19:05:57.939,12.695284,-0.000000,-0.000000,-0.000000,0.000000,18.643799,-6.414151,-0.000000,-0.001214,-0.002556,-0.019269,-0.000088,-0.009152,-0.002562,0.000442,-0.001072,0.390991,0.294396,9.693972,0.000000,0.000000,0,0,,38.990286,-76.940899,-9.275000,,,
2026-09-11T19:05:57.973,12.728692,-0.000000,-0.000000,-0.000000,0.000000,18.643799,-6.414151,-0.000000,-0.001535,-0.003231,-0.019366,-0.000089,-0.009198,0.000336,-0.000085,-0.001748,0.400209,0.304300,9.705642,0.000000,0.000000,0,0,,38.990286,-76.940899,-9.275000,,,
2026-09-11T19:05:58.006,12.762101,-0.000000,-0.000000,-0.000000,0.000000,18.643799,-6.414151,-0.000000,0.000175,0.000367,-0.019414,-0.000090,-0.009221,0.002690,-0.001301,0.001851,0.447576,0.350980,9.787135,0.000000,0.000000,0,0,,38.990286,-76.940899,-9.275000,,,
2026-09-11T19:05:58.040,12.795560,-0.000000,-0.000000,-0.000000,0.000000,18.643799,-6.414151,-0.000000,-0.002005,-0.004221,-0.019478,-0.000090,-0.009252,-0.000775,0.000939,-0.002737,0.391580,0.262230,9.771346,0.000000,0.000000,0,0,,38.990286,-76.940899,-9.275000,,,
2026-09-11T19:05:58.072,12.828959,-0.000000,-0.000000,-0.000000,0.000000,18.643799,-6.414151,-0.000000,-0.000315,-0.000662,-0.019560,-0.000091,-0.009290,0.002778,-0.001207,0.000821,0.321462,0.353432,9.695541,0.000000,0.000000,0,0,,38.990286,-76.940899,-9.275000,,,
2026-09-11T19:05:58.106,12.862379,-0.000000,-0.000000,-0.000000,0.000000,18.643799,-6.414151,-0.000000,-0.000329,-0.000692,-0.019583,-0.000091,-0.009301,0.003454,-0.000755,0.000791,0.380400,0.258111,9.652588,0.000000,0.000000,0,0,,38.990286,-76.940899,-9.275000,,,
2026-09-11T19:05:58.140,12.895786,-0.000000,-0.000000,-0.000000,0.000000,18.643799,-6.414151,-0.000000,0.000140,0.000296,-0.019589,-0.000091,-0.009304,0.003554,0.001382,0.001779,0.405211,0.369220,9.687892,0.000000,0.000000,0,0,,38.990286,-76.940899,-9.275000,,,
2026-09-11T19:05:58.173,12.929193,-0.000000,-0.000000,-0.000000,0.000000,18.643799,-6.414151,-0.000000,-0.002084,-0.004387,-0.019658,-0.000092,-0.009337,0.001555,-0.000746,-0.002904,0.366965,0.176029,9.683086,0.000000,0.000000,0,0,,38.990286,-76.940899,-9.275000,,,
2026-09-11T19:05:58.206,12.962595,-0.000000,-0.000000,-0.000000,0.000000,18.643799,-6.414151,-0.000000,-0.001074,-0.002261,-0.019769,-0.000093,-0.009389,0.009343,-0.000792,-0.000778,0.447968,0.417469,9.659256,0.000000,0.000000,0,0,,38.990286,-76.940899,-9.275000,,,
2026-09-11T19:05:58.240,12.996011,-0.000000,-0.000000,-0.000000,0.000000,18.479691,-6.357692,-0.000000,0.000256,0.000540,-0.019797,-0.000093,-0.009403,0.019376,0.001643,0.002023,0.401877,0.094732,9.723294,0.000000,0.000000,0,0,,38.990286,-76.940899,-9.275000,,,
2026-09-11T19:05:58.274,13.029416,-0.000000,-0.000000,-0.000000,0.000000,18.489304,-6.360999,-0.000000,-0.003204,-0.006745,-0.019901,-0.000094,-0.009452,-0.002157,-0.001366,-0.005262,0.464247,0.250364,9.688088,0.000000,0.000000,0,0,,38.990286,-76.940899,-9.275000,,,
2026-09-11T19:05:58.306,13.062816,-0.000000,-0.000000,-0.000000,0.000000,18.555908,-6.383913,-0.000000,0.001055,0.002220,-0.019977,-0.000095,-0.009488,-0.024170,-0.002400,0.003704,0.283608,0.622624,9.713291,0.000000,0.000000,0,0,,38.990286,-76.940899,-9.275000,,,
2026-09-11T19:05:58.340,13.096224,-0.000000,-0.000000,-0.000000,0.000000,18.489304,-6.360999,-0.000000,0.000870,0.001831,-0.019909,-0.000094,-0.009456,-0.031730,0.002872,0.003314,0.379027,0.176127,9.701229,0.000000,0.000000,0,0,,38.990286,-76.940899,-9.275000,,,
2026-09-11T19:05:58.374,13.129637,-0.000000,-0.000000,-0.000000,0.000000,18.489304,-6.360999,-0.000000,-0.000514,-0.001083,-0.019896,-0.000094,-0.009450,-0.027373,-0.001353,0.000401,0.524165,0.264780,9.665532,0.000000,0.000000,0,0,,38.990286,-76.940899,-9.275000,,,
2026-09-11T19:05:58.407,13.163046,-0.000000,-0.000000,-0.000000,0.000000,18.489304,-6.360999,-0.000000,-0.000258,-0.000543,-0.019924,-0.000094,-0.009463,-0.004289,-0.000741,0.000941,0.411781,0.170538,9.726726,0.000000,0.000000,0,0,,38.990286,-76.940899,-9.275000,,,
2026-09-11T19:05:58.440,13.196452,-0.000000,-0.000000,-0.000000,0.000000,18.193359,-6.259183,-0.000000,-0.000271,-0.000571,-0.019942,-0.000094,-0.009472,0.017112,-0.000152,0.000912,0.379125,0.099145,9.633563,0.000000,0.000000,0,0,,38.990286,-76.940899,-9.275000,,,
2026-09-11T19:05:58.474,13.229854,-0.000000,-0.000000,-0.000000,0.000000,18.137741,-6.240049,-0.000000,-0.000549,-0.001156,-0.019971,-0.000095,-0.009486,0.000419,-0.001550,0.000327,0.364807,0.307046,9.734375,0.000000,0.000000,0,0,,38.990286,-76.940899,-9.275000,,,
2026-09-11T19:05:58.507,13.263257,-0.000000,-0.000000,-0.000000,0.000000,18.248291,-6.278082,-0.000000,-0.001847,-0.003889,-0.020055,-0.000096,-0.009526,-0.009203,-0.000161,-0.002405,0.294690,0.378733,9.743986,0.000000,0.000000,0,0,,38.990286,-76.940899,-9.275000,,,
2026-09-11T19:05:58.541,13.296675,-0.000000,-0.000000,-0.000000,0.000000,18.336182,-6.308319,-0.000000,0.001007,0.002121,-0.020085,-0.000096,-0.009540,-0.014919,-0.000009,0.003604,0.425707,0.332347,9.707701,0.000000,0.000000,0,0,,38.990286,-76.940899,-9.275000,,,
