timestamp,time_s,speed_mps,distance_m,wheel_omega_rad_s,motor_current_A,steer_motor_deg,steer_column_deg,vx_mps,vy_mps,yaw_rate_rad_s,heading_rad,x_m,y_m,gyro_x_rad_s,gyro_y_rad_s,gyro_z_rad_s,accel_x_mps2,accel_y_mps2,accel_z_mps2,grade_deg,bank_deg,moving,gps_new_fix,gps_time_s,gps_latitude_deg,gps_longitude_deg,gps_altitude_m,gps_east_m,gps_north_m,gps_sigma_m
2026-09-11T19:06:07.675,0.000007,0.077671,-0.000004,0.719173,0.000000,-70.135187,24.129078,0.070884,0.004047,0.008519,0.000000,0.000000,0.000000,0.008453,-0.000786,0.010003,0.810716,0.092281,9.618068,4.295073,-0.545446,0,0,,,,,,,
2026-09-11T19:06:07.708,0.033411,0.010318,-0.000045,0.095533,0.000000,-70.068582,24.106164,0.009418,0.000170,0.000357,0.000148,0.001341,0.000070,0.022893,0.000020,0.001841,0.809441,0.206038,9.685538,4.294990,-0.538049,0,0,,,,,,,
2026-09-11T19:06:07.743,0.066817,-0.000000,-0.000051,-0.000000,0.000000,-70.024637,24.091045,-0.000000,0.000113,0.000237,0.000158,0.001499,0.000075,0.033035,-0.001614,0.001721,0.763154,0.171224,9.658472,4.291900,-0.532986,0,0,,,,,,,
2026-09-11T19:06:07.775,0.100219,-0.000000,-0.000051,-0.000000,0.000000,-69.969705,24.072146,-0.000000,-0.002483,-0.005226,0.000075,0.001499,0.000036,0.028989,-0.003196,-0.003743,0.733145,0.197898,9.692403,4.286896,-0.526255,0,0,,,,,,,
2026-09-11T19:06:07.809,0.133620,-0.000000,-0.000051,-0.000000,0.000000,-69.848856,24.030570,-0.000000,-0.005067,-0.010667,-0.000191,0.001499,-0.000090,0.012998,0.001507,-0.009183,0.927415,0.283020,9.652980,4.294569,-0.514093,0,0,,,,,,,
2026-09-11T19:06:07.842,0.167026,-0.000000,-0.000051,-0.000000,0.000000,-69.760965,24.000332,-0.000000,-0.005086,-0.010708,-0.000548,0.001498,-0.000260,0.012759,0.001216,-0.009224,1.069709,0.306752,9.648371,4.311405,-0.500530,0,1,0.165555,38.990289,-76.940907,-9.179000,0.000000,0.000000,3.152731
2026-09-11T19:06:07.876,0.200430,-0.000000,-0.000051,-0.000000,0.000000,-69.717020,23.985213,-0.000000,-0.003230,-0.006801,-0.000840,0.001498,-0.000399,0.009900,-0.001382,-0.005317,1.133158,0.310577,9.615028,4.332174,-0.486870,0,0,,38.990289,-76.940907,-9.179000,,,
2026-09-11T19:06:07.910,0.233851,-0.000000,-0.000051,-0.000000,0.000000,-69.673074,23.970094,-0.000000,-0.003171,-0.006676,-0.001065,0.001498,-0.000506,0.012051,-0.000820,-0.005192,1.102562,0.326169,9.652097,4.350734,-0.472345,0,0,,38.990289,-76.940907,-9.179000,,,
2026-09-11T19:06:07.943,0.267272,-0.000000,-0.000051,-0.000000,0.000000,-69.673074,23.970094,-0.000000,-0.000379,-0.000798,-0.001190,0.001498,-0.000565,0.009652,-0.000418,0.000685,1.093049,0.303025,9.663865,4.364482,-0.459479,0,0,,38.990289,-76.940907,-9.179000,,,
2026-09-11T19:06:07.975,0.300673,-0.000000,-0.000051,-0.000000,0.000000,-69.673074,23.970094,-0.000000,-0.001253,-0.002639,-0.001248,0.001498,-0.000593,0.000279,0.000132,-0.001155,1.102267,0.300770,9.641800,4.374077,-0.446908,0,0,,38.990289,-76.940907,-9.179000,,,
2026-09-11T19:06:08.008,0.334075,-0.000000,-0.000051,-0.000000,0.000000,-69.673074,23.970094,-0.000000,-0.000330,-0.000694,-0.001303,0.001498,-0.000619,0.006143,0.000466,0.000790,1.084027,0.313224,9.634347,4.381770,-0.433672,0,0,,38.990289,-76.940907,-9.179000,,,
2026-09-11T19:06:08.042,0.367484,-0.000000,-0.000051,-0.000000,0.000000,-69.673074,23.970094,-0.000000,0.000025,0.000052,-0.001314,0.001498,-0.000624,0.004991,-0.001066,0.001536,1.023814,0.277626,9.641212,4.385466,-0.422881,0,0,,38.990289,-76.940907,-9.179000,,,
2026-09-11T19:06:08.077,0.400895,-0.000000,-0.000051,-0.000000,0.000000,-69.673074,23.970094,-0.000000,-0.000559,-0.001176,-0.001333,0.001498,-0.000633,-0.002866,-0.001114,0.000308,0.992531,0.285374,9.653470,4.387087,-0.411709,0,0,,38.990289,-76.940907,-9.179000,,,
2026-09-11T19:06:08.110,0.434305,-0.000000,-0.000051,-0.000000,0.000000,-69.629129,23.954976,-0.000000,-0.000357,-0.000751,-0.001365,0.001498,-0.000648,-0.003459,-0.000595,0.000733,1.000376,0.270860,9.626698,4.389201,-0.401599,0,0,,38.990289,-76.940907,-9.179000,,,
2026-09-11T19:06:08.142,0.467711,-0.000000,-0.000051,-0.000000,0.000000,-69.629129,23.954976,-0.000000,-0.000786,-0.001655,-0.001405,0.001498,-0.000667,-0.001566,-0.001909,-0.000171,1.010575,0.288610,9.668573,4.391953,-0.390454,0,0,,38.990289,-76.940907,-9.179000,,,
2026-09-11T19:06:08.175,0.501111,-0.000000,-0.000051,-0.000000,0.000000,-69.629129,23.954976,-0.000000,-0.000899,-0.001892,-0.001464,0.001498,-0.000695,-0.004888,-0.000678,-0.000408,1.049017,0.266349,9.593552,4.397173,-0.380874,0,0,,38.990289,-76.940907,-9.179000,,,
2026-09-11T19:06:08.210,0.534511,-0.000000,-0.000051,-0.000000,0.000000,-69.629129,23.954976,-0.000000,0.000739,0.001556,-0.001470,0.001498,-0.000698,0.006912,-0.001849,0.003040,1.096776,0.325090,9.658962,4.405439,-0.367601,0,0,,38.990289,-76.940907,-9.179000,,,
2026-09-11T19:06:08.244,0.567930,-0.000000,-0.000051,-0.000000,0.000000,-69.629129,23.954976,-0.000000,-0.000580,-0.001221,-0.001464,0.001498,-0.000695,0.016170,-0.002988,0.000263,1.145024,0.212412,9.688382,4.416755,-0.361759,0,0,,38.990289,-76.940907,-9.179000,,,
2026-09-11T19:06:08.277,0.601338,-0.000000,-0.000051,-0.000000,0.000000,-69.629129,23.954976,-0.000000,-0.000590,-0.001242,-0.001505,0.001498,-0.000715,0.021163,-0.001257,0.000242,1.033523,0.348430,9.668376,4.420694,-0.347186,0,0,,38.990289,-76.940907,-9.179000,,,
2026-09-11T19:06:08.309,0.634738,-0.000000,-0.000051,-0.000000,0.000000,-69.629129,23.954976,-0.000000,0.001110,0.002338,-0.001487,0.001498,-0.000706,0.012206,-0.001673,0.003821,0.870438,0.235458,9.664258,4.413427,-0.340083,0,0,,38.990289,-76.940907,-9.179000,,,
2026-09-11T19:06:08.343,0.668142,-0.000000,-0.000051,-0.000000,0.000000,-69.725259,23.988048,-0.000000,-0.001004,-0.002113,-0.001483,0.001498,-0.000705,-0.014231,-0.000002,-0.000629,0.912607,0.394620,9.653274,4.408416,-0.322763,0,0,,38.990289,-76.940907,-9.179000,,,
2026-09-11T19:06:08.377,0.701544,-0.000000,-0.000051,-0.000000,0.000000,-70.093988,24.114904,-0.000000,0.001725,0.003631,-0.001458,0.001498,-0.000692,-0.020952,0.002498,0.005115,1.087263,0.386774,9.648469,4.396016,-0.306144,0,0,,38.990289,-76.940907,-9.179000,,,
2026-09-11T19:06:08.411,0.734954,-0.000000,-0.000051,-0.000000,0.000000,-70.711969,24.327512,-0.000000,0.002482,0.005226,-0.001310,0.001498,-0.000622,-0.013719,0.001199,0.006709,1.262802,0.290081,9.642193,4.384982,-0.295959,0,0,,38.990289,-76.940907,-9.179000,,,
2026-09-11T19:06:08.443,0.768370,-0.000000,-0.000051,-0.000000,0.000000,-71.213907,24.500197,-0.000000,0.003986,0.008391,-0.001083,0.001498,-0.000514,0.000464,0.000727,0.009874,1.265352,0.301653,9.666905,4.383421,-0.285138,0,0,,38.990289,-76.940907,-9.179000,,,
2026-09-11T19:06:08.476,0.801773,-0.000000,-0.000051,-0.000000,0.000000,-72.964166,25.102351,-0.000000,0.005846,0.012308,-0.000737,0.001498,-0.000350,0.028246,0.003778,0.013791,1.339098,0.231829,9.601005,4.382634,-0.278955,0,0,,38.990289,-76.940907,-9.179000,,,
2026-09-11T19:06:08.509,0.835174,-0.000000,-0.000051,-0.000000,0.000000,-73.747629,25.371891,-0.000000,0.010156,0.021380,-0.000174,0.001498,-0.000083,0.000557,0.001245,0.022864,1.517285,0.452577,9.633661,4.385891,-0.258566,0,0,,38.990289,-76.940907,-9.179000,,,
2026-09-11T19:06:08.543,0.868581,-0.000000,-0.000051,-0.000000,0.000000,-73.914484,25.429295,-0.000000,0.009924,0.020893,0.000532,0.001498,0.000253,-0.009037,0.003750,0.022376,1.712731,0.340389,9.678183,4.396556,-0.245655,0,0,,38.990289,-76.940907,-9.179000,,,
2026-09-11T19:06:08.578,0.901994,0.009622,0.000143,0.089091,0.000000,-73.672098,25.345905,0.008696,0.014015,0.029505,0.001374,0.001643,0.000653,-0.012168,0.004460,0.030989,1.794813,0.506710,9.609536,4.405495,-0.222141,0,0,,38.990289,-76.940907,-9.179000,,,
2026-09-11T19:06:08.611,0.935410,0.009622,0.000465,0.089091,0.000000,-73.628152,25.330786,0.008697,0.023798,0.050102,0.002704,0.001932,0.001285,-0.004204,-0.000640,0.051585,2.102055,0.547309,9.648469,4.426210,-0.196270,0,0,,38.990289,-76.940907,-9.179000,,,
2026-09-11T19:06:08.643,0.968814,0.330341,0.008321,3.058712,0.000000,-73.572534,25.311652,0.298627,0.033459,0.070440,0.004717,0.007062,0.002265,-0.006430,-0.001854,0.071924,2.149912,0.735891,9.492249,4.444031,-0.159830,0,0,,38.990289,-76.940907,-9.179000,,,
2026-09-11T19:06:08.678,1.002215,0.183047,0.015517,1.694881,0.000000,-73.276590,25.209836,0.165613,0.041369,0.087093,0.007348,0.014807,0.003559,-0.019035,0.008828,0.088577,1.759803,0.443653,9.660139,4.431101,-0.142268,0,0,,38.990289,-76.940907,-9.179000,,,
2026-09-11T19:06:08.712,1.035622,0.173228,0.021153,1.603958,0.000000,-72.681268,25.005023,0.156991,0.044550,0.093791,0.010369,0.020182,0.005042,-0.022095,0.020118,0.095274,2.044490,0.686760,9.639251,4.430421,-0.109192,0,0,,38.990289,-76.940907,-9.179000,,,
2026-09-11T19:06:08.744,1.069041,0.250375,0.030720,2.318291,0.000000,-71.303171,24.530907,0.227776,0.053067,0.111720,0.013803,0.026591,0.006752,-0.041212,0.022906,0.113203,2.250038,0.673227,9.485090,4.436064,-0.078039,0,0,,38.990289,-76.940907,-9.179000,,,
2026-09-11T19:06:08.777,1.102443,0.299315,0.040506,2.771435,0.000000,-69.889368,24.044507,0.273343,0.054524,0.114787,0.017586,0.034931,0.008682,-0.051984,0.016860,0.116270,2.517269,0.393933,9.596788,4.451856,-0.065695,1,0,,38.990289,-76.940907,-9.179000,,,
2026-09-11T19:06:08.810,1.135842,0.337803,0.051850,3.127801,0.000000,-69.284433,23.836387,0.308989,0.073630,0.155009,0.022092,0.044611,0.011016,-0.044752,-0.000816,0.156493,2.779401,0.334897,9.311709,4.478830,-0.058375,1,0,,38.990289,-76.940907,-9.179000,,,
2026-09-11T19:06:08.844,1.169250,0.415956,0.066134,3.851444,0.000000,-69.233621,23.818906,0.380528,0.085976,0.181001,0.027704,0.056058,0.013971,-0.034449,-0.005970,0.182485,2.646325,0.561529,9.583745,4.490782,-0.037830,1,1,1.164816,38.990289,-76.940908,-9.154000,-0.056321,0.029837,3.067222
2026-09-11T19:06:08.878,1.202650,0.474141,0.082059,4.390196,0.000000,-69.233621,23.818906,0.433757,0.098315,0.206979,0.034184,0.069554,0.017471,-0.041895,-0.008479,0.208462,2.514131,0.473073,9.636113,4.505091,-0.024590,1,0,,38.990289,-76.940908,-9.154000,,,
2026-09-11T19:06:08.912,1.236058,0.512993,0.099525,4.749931,0.000000,-69.233621,23.818906,0.469299,0.108209,0.227808,0.041447,0.084497,0.021490,-0.045146,-0.001668,0.229291,2.607098,0.493569,9.781937,4.527268,-0.011276,1,0,,38.990289,-76.940908,-9.154000,,,
2026-09-11T19:06:08.944,1.269468,0.561612,0.118586,5.200109,0.000000,-69.083932,23.767408,0.513981,0.118372,0.249204,0.049415,0.100732,0.026020,-0.058104,0.003836,0.250688,2.592780,0.553389,9.556875,4.531512,0.004392,1,0,,38.990289,-76.940908,-9.154000,,,
2026-09-11T19:06:08.977,1.302868,0.620197,0.139540,5.742564,0.000000,-68.674692,23.626614,0.568210,0.123811,0.260656,0.057930,0.118561,0.031032,-0.060450,0.021990,0.262139,2.184824,0.208882,9.419287,4.506242,-0.003695,1,0,,38.990289,-76.940908,-9.154000,,,
2026-09-11T19:06:09.011,1.336269,0.678816,0.162309,6.285332,0.000000,-68.302530,23.498577,0.622522,0.130750,0.275263,0.066880,0.138142,0.036519,-0.048965,0.012368,0.276746,2.475689,0.350195,9.712899,4.501493,-0.004056,1,0,,38.990289,-76.940908,-9.154000,,,
2026-09-11T19:06:09.045,1.369688,0.737114,0.187009,6.825133,0.000000,-67.067941,23.073833,0.678146,0.137494,0.289461,0.076316,0.159498,0.042549,-0.028746,-0.005031,0.290944,2.588269,-0.145040,9.499310,4.504146,-0.038075,1,0,,38.990289,-76.940908,-9.154000,,,
2026-09-11T19:06:09.079,1.403096,0.776393,0.212832,7.188822,0.000000,-64.480661,22.183714,0.718923,0.143518,0.302144,0.086198,0.182376,0.049125,0.037369,-0.023582,0.303627,2.554044,0.093850,9.513137,4.508584,-0.057605,1,0,,38.990289,-76.940908,-9.154000,,,
2026-09-11T19:06:09.111,1.436632,0.834954,0.240974,7.731057,0.000000,-60.442499,20.794438,0.780565,0.145300,0.305894,0.096394,0.206972,0.056245,0.049625,-0.002889,0.307377,2.881292,-0.611445,9.224037,4.542197,-0.124191,1,0,,38.990289,-76.940908,-9.154000,,,
2026-09-11T19:06:09.144,1.470040,0.883605,0.270654,8.181527,0.000000,-53.776544,18.501105,0.837938,0.133356,0.280749,0.106193,0.233398,0.063615,0.025495,-0.032970,0.282233,2.768025,-0.015789,9.045850,4.574590,-0.151026,1,0,,38.990289,-76.940908,-9.154000,,,
2026-09-11T19:06:09.178,1.503438,0.942491,0.302336,8.726767,0.000000,-45.694727,15.720663,0.907236,0.116947,0.246204,0.114993,0.261902,0.070991,0.029319,-0.043387,0.247688,2.698006,-0.259680,10.009452,4.611607,-0.192560,1,0,,38.990289,-76.940908,-9.154000,,,
2026-09-11T19:06:09.212,1.536848,0.981364,0.335407,9.086701,0.000000,-39.124902,13.460402,0.954407,0.105910,0.222968,0.122830,0.292340,0.078379,0.007103,-0.038481,0.224451,3.012211,-0.530638,9.496760,4.683900,-0.250492,1,0,,38.990289,-76.940908,-9.154000,,,
2026-09-11T19:06:09.246,1.570270,1.030430,0.370145,9.541018,0.000000,-29.142450,10.026072,1.014694,0.089044,0.187462,0.129689,0.324574,0.085758,0.017174,-0.033121,0.188946,2.382330,-0.491411,9.839012,4.729813,-0.303803,1,0,,38.990289,-76.940908,-9.154000,,,
2026-09-11T19:06:09.279,1.603678,1.059766,0.405872,9.812650,0.000000,-21.934732,7.546353,1.050588,0.055873,0.117628,0.134785,0.358452,0.092708,0.013561,-0.027907,0.119111,2.415378,1.055392,8.838440,4.792261,-0.252134,1,0,,38.990289,-76.940908,-9.154000,,,
2026-09-11T19:06:09.312,1.637086,1.099274,0.443112,10.178463,0.000000,-13.605722,4.680868,1.095608,0.046912,0.098762,0.138400,0.393735,0.099292,0.026210,-0.018431,0.100246,1.353024,-1.262018,10.186854,4.797844,-0.349946,1,0,,38.990289,-76.940908,-9.154000,,,
2026-09-11T19:06:09.345,1.670490,1.099541,0.479826,10.180933,0.000000,-9.280542,3.192847,1.097834,0.030664,0.064555,0.141127,0.429832,0.105679,0.022209,-0.043412,0.066039,0.751189,0.383832,9.362115,4.774131,-0.337799,1,0,,38.990289,-76.940908,-9.154000,,,
2026-09-11T19:06:09.378,1.703890,1.100350,0.516833,10.188425,0.000000,-3.966592,1.364653,1.100038,0.013559,0.028546,0.142682,0.466063,0.111601,-0.006032,-0.073232,0.030030,-0.440122,-1.431084,9.111947,4.686200,-0.440602,1,0,,38.990289,-76.940908,-9.154000,,,
2026-09-11T19:06:09.413,1.737300,1.081524,0.552824,10.014109,0.000000,-3.996117,1.374811,1.081212,0.015816,0.033297,0.143715,0.502058,0.117287,-0.010720,-0.061539,0.034780,0.631254,0.761879,9.764187,4.681482,-0.400738,1,0,,38.990289,-76.940908,-9.154000,,,
2026-09-11T19:06:09.445,1.770707,1.033577,0.586859,9.570155,0.000000,-4.690316,1.613641,1.033167,0.025785,0.054285,0.145178,0.536908,0.123058,0.087462,-0.038893,0.055768,-0.339898,0.504846,9.659158,4.622173,-0.379243,1,0,,38.990289,-76.940908,-9.154000,,,
2026-09-11T19:06:09.478,1.804107,0.946721,0.618207,8.765940,0.000000,-8.099511,2.786529,0.945602,0.040262,0.084762,0.147500,0.569440,0.128966,0.049562,0.001403,0.086246,-1.494533,-1.224066,10.913331,4.494933,-0.471355,1,0,,38.990289,-76.940908,-9.154000,,,
2026-09-11T19:06:09.513,1.837507,0.908320,0.648316,8.410369,0.000000,-14.231256,4.896074,0.905006,0.050194,0.105671,0.150680,0.599777,0.135049,-0.034477,-0.010133,0.107154,-0.346665,-0.099636,9.817928,4.447479,-0.490731,1,0,,38.990289,-76.940908,-9.154000,,,
2026-09-11T19:06:09.547,1.870926,0.831011,0.676470,7.694545,0.000000,-19.024728,6.545205,0.825595,0.061252,0.128953,0.154601,0.628075,0.141284,-0.061039,-0.018449,0.130436,0.177500,-0.223494,9.990427,4.433697,-0.518618,1,0,,38.990289,-76.940908,-9.154000,,,
2026-09-11T19:06:09.580,1.904337,0.811481,0.703069,7.513711,0.000000,-25.067895,8.624276,0.802305,0.076539,0.161135,0.159447,0.654575,0.147809,-0.047750,0.061564,0.162619,0.078845,1.216613,7.980064,4.409963,-0.454506,1,0,,38.990289,-76.940908,-9.154000,,,
2026-09-11T19:06:09.612,1.937739,0.792144,0.728939,7.334668,0.000000,-34.370569,11.824737,0.775334,0.087683,0.184596,0.165221,0.680133,0.154773,-0.089425,-0.032251,0.186080,-1.432850,-0.527598,12.772672,4.282387,-0.504818,1,0,,38.990289,-76.940908,-9.154000,,,
2026-09-11T19:06:09.645,1.971146,0.743624,0.753236,6.885410,0.000000,-40.871042,14.061138,0.721343,0.095892,0.201878,0.171676,0.704265,0.161984,-0.041739,-0.007826,0.203362,0.665872,0.170538,9.280425,4.284061,-0.509587,1,0,,38.990289,-76.940908,-9.154000,,,
2026-09-11T19:06:09.680,2.004544,0.733886,0.777269,6.795238,0.000000,-44.269937,15.230483,0.708109,0.105957,0.223068,0.178773,0.727182,0.169463,0.004127,0.010442,0.224551,0.716376,-0.277724,8.189337,4.277679,-0.544084,1,0,,38.990289,-76.940908,-9.154000,,,
2026-09-11T19:06:09.714,2.037949,0.733983,0.802129,6.796135,0.000000,-45.485986,15.648848,0.706776,0.108119,0.227619,0.186300,0.749772,0.177269,-0.038619,0.013195,0.229102,1.668994,-0.570159,9.991604,4.317967,-0.597310,1,0,,38.990289,-76.940908,-9.154000,,,
2026-09-11T19:06:09.747,2.071373,0.743883,0.826960,6.887808,0.000000,-45.504526,15.655227,0.716287,0.100614,0.211820,0.193644,0.772468,0.185186,0.021249,0.007848,0.213303,1.827371,0.670873,9.618264,4.354481,-0.569072,1,0,,38.990289,-76.940908,-9.154000,,,
2026-09-11T19:06:09.779,2.104774,0.773210,0.852764,7.159347,0.000000,-45.207895,15.553175,0.744896,0.103522,0.217942,0.200821,0.795729,0.193313,0.034555,-0.012798,0.219425,2.032526,1.100895,10.280017,4.392014,-0.514044,1,0,,38.990289,-76.940908,-9.154000,,,
2026-09-11T19:06:09.814,2.138182,0.841628,0.881328,7.792852,0.000000,-44.953836,15.465769,0.811153,0.116494,0.245250,0.208558,0.820429,0.202198,0.077102,0.010744,0.246734,2.691827,0.490333,9.227567,4.461068,-0.501473,1,0,,38.990289,-76.940908,-9.154000,,,
2026-09-11T19:06:09.848,2.171610,0.880709,0.910960,8.154710,0.000000,-44.641412,15.358284,0.849257,0.118177,0.248793,0.216816,0.846727,0.211893,0.118034,0.025096,0.250277,2.621906,0.455519,9.197755,4.519107,-0.492087,1,1,2.170280,38.990291,-76.940916,-9.059000,-0.775390,0.293369,3.153714
2026-09-11T19:06:09.881,2.205026,0.939082,0.941988,8.695208,0.000000,-44.079050,15.164811,0.906381,0.123183,0.259332,0.225306,0.874461,0.222263,0.093584,-0.003081,0.260815,2.870505,-0.688623,9.404872,4.584724,-0.558370,1,0,,38.990291,-76.940916,-9.059000,,,
2026-09-11T19:06:09.914,2.238427,0.997697,0.975110,9.237936,0.000000,-43.215936,14.867868,0.964294,0.118016,0.248454,0.233786,0.903965,0.233298,0.052856,-0.007380,0.249937,3.017506,-0.369613,8.726840,4.648156,-0.603551,1,0,,38.990291,-76.940916,-9.059000,,,
2026-09-11T19:06:09.947,2.271837,1.046421,1.010254,9.689086,0.000000,-41.472543,14.268077,1.014143,0.112106,0.236012,0.241879,0.935178,0.244823,0.043439,-0.021216,0.237496,2.200906,1.961428,10.264523,4.651105,-0.497444,1,0,,38.990291,-76.940916,-9.059000,,,
2026-09-11T19:06:09.981,2.305235,1.095290,1.046914,10.141573,0.000000,-39.438699,13.568360,1.064721,0.116901,0.246107,0.249930,0.967917,0.256987,0.085442,0.003893,0.247590,2.040175,-1.842670,10.495469,4.641253,-0.640004,1,0,,38.990291,-76.940916,-9.059000,,,
2026-09-11T19:06:10.014,2.338644,1.124719,1.084687,10.414062,0.000000,-37.522958,12.909275,1.096292,0.120668,0.254037,0.258285,1.001857,0.269904,0.069790,-0.021315,0.255521,2.608079,-1.190331,8.349676,4.667746,-0.739894,1,0,,38.990291,-76.940916,-9.059000,,,
2026-09-11T19:06:10.048,2.372063,1.154401,1.123452,10.688899,0.000000,-35.677255,12.274285,1.128013,0.113594,0.239145,0.266525,1.036737,0.283328,0.077293,-0.039365,0.240628,1.211514,0.679601,9.274737,4.607518,-0.717154,1,0,,38.990291,-76.940916,-9.059000,,,
2026-09-11T19:06:10.081,2.405463,1.184024,1.162788,10.963186,0.000000,-31.915811,10.980210,1.162348,0.105036,0.221128,0.274212,1.072621,0.297065,0.066972,-0.045754,0.222612,1.687332,0.519851,9.357506,4.584533,-0.704185,1,0,,38.990291,-76.940916,-9.059000,,,
2026-09-11T19:06:10.114,2.438862,1.184240,1.202379,10.965184,0.000000,-28.884958,9.937485,1.166472,0.096304,0.202745,0.281291,1.109098,0.310962,0.014380,-0.042807,0.204229,2.000459,0.536326,8.210716,4.587102,-0.688968,1,0,,38.990291,-76.940916,-9.059000,,,
2026-09-11T19:06:10.148,2.472282,1.214043,1.244087,11.241138,0.000000,-22.195657,7.636121,1.203277,0.075837,0.159657,0.287346,1.146300,0.324832,-0.004090,-0.024782,0.161140,1.760392,0.496609,8.035373,4.581469,-0.673608,1,0,,38.990291,-76.940916,-9.059000,,,
2026-09-11T19:06:10.182,2.505691,1.272741,1.286535,11.784637,0.000000,-13.322137,4.583304,1.268671,0.048189,0.101450,0.291708,1.185283,0.338609,-0.044226,0.032306,0.102934,1.853457,-0.449635,9.913052,4.586975,-0.715528,1,0,,38.990291,-76.940916,-9.059000,,,
2026-09-11T19:06:10.214,2.539093,1.292718,1.328961,11.969616,0.000000,-6.077341,2.090828,1.291858,0.023264,0.048976,0.294220,1.225880,0.352102,-0.044041,-0.024067,0.050460,2.442640,-0.826995,9.998664,4.636520,-0.777145,1,0,,38.990291,-76.940916,-9.059000,,,
2026-09-11T19:06:10.248,2.572498,1.312601,1.372725,12.153714,0.000000,0.644232,-0.221640,1.312591,-0.006396,-0.013466,0.294813,1.267426,0.364999,-0.036666,-0.007243,-0.011982,1.995751,-0.960758,11.740227,4.664169,-0.841502,1,0,,38.990291,-76.940916,-9.059000,,,
2026-09-11T19:06:10.282,2.605901,1.341765,1.417487,12.423753,0.000000,5.664298,-1.948726,1.340989,-0.019743,-0.041565,0.293894,1.309965,0.377439,0.000765,0.018470,-0.040081,1.470115,-0.247422,8.957885,4.666313,-0.856549,1,0,,38.990291,-76.940916,-9.059000,,,
2026-09-11T19:06:10.315,2.639301,1.341583,1.462208,12.422069,0.000000,9.467627,-3.257211,1.339416,-0.035898,-0.075575,0.291938,1.353089,0.389474,-0.081151,-0.048991,-0.074091,-1.877385,-1.695570,8.735274,4.461355,-0.962130,1,0,,38.990291,-76.940916,-9.059000,,,
2026-09-11T19:06:10.349,2.672723,1.360946,1.508022,12.601350,0.000000,9.867941,-3.394934,1.358557,-0.047669,-0.100356,0.288998,1.396686,0.401048,0.083093,-0.000397,-0.098872,1.074515,1.322035,8.711836,4.457454,-0.869079,1,0,,38.990291,-76.940916,-9.059000,,,
2026-09-11T19:06:10.382,2.706131,1.361106,1.553338,12.602833,0.000000,9.977118,-3.432495,1.358664,-0.044344,-0.093355,0.285762,1.440650,0.412439,0.031852,-0.011751,-0.091871,1.776377,-2.475689,8.250237,4.506346,-1.023351,1,0,,38.990291,-76.940916,-9.059000,,,
2026-09-11T19:06:10.415,2.739531,1.361468,1.599052,12.606184,0.000000,9.701086,-3.337530,1.359159,-0.044179,-0.093008,0.282650,1.484630,0.423747,0.029570,0.023764,-0.091524,1.472665,-0.695978,9.916485,4.544404,-1.060818,1,0,,38.990291,-76.940916,-9.059000,,,
2026-09-11T19:06:10.448,2.772936,1.390818,1.646226,12.877944,0.000000,9.096152,-3.129410,1.388744,-0.034003,-0.071586,0.279901,1.529087,0.435232,-0.030650,0.036331,-0.070103,-0.448066,-1.164049,11.825741,4.464374,-1.129895,1,0,,38.990291,-76.940916,-9.059000,,,
2026-09-11T19:06:10.482,2.806346,1.371733,1.692494,12.701228,0.000000,7.985846,-2.747424,1.370156,-0.019507,-0.041068,0.278019,1.573639,0.447063,-0.032991,-0.037080,-0.039585,0.938594,-1.068336,10.654729,4.483177,-1.194816,1,0,,38.990291,-76.940916,-9.059000,,,
2026-09-11T19:06:10.515,2.839753,1.352679,1.737616,12.524805,0.000000,4.387137,-1.509336,1.352210,0.002866,0.006033,0.277434,1.617446,0.459263,0.002732,-0.054365,0.007516,-0.771587,0.011474,10.489683,4.397581,-1.193340,1,0,,38.990291,-76.940916,-9.059000,,,
2026-09-11T19:06:10.549,2.873173,1.295061,1.781291,11.991305,0.000000,-0.679620,0.233814,1.295050,0.018879,0.039746,0.278199,1.659886,0.471744,-0.031143,-0.031048,0.041230,-0.006669,0.893974,9.197559,4.365655,-1.137582,1,0,,38.990291,-76.940916,-9.059000,,,
2026-09-11T19:06:10.582,2.906663,1.256865,1.823071,11.637635,0.000000,-5.447687,1.874204,1.256192,0.029269,0.061619,0.279896,1.700731,0.484286,-0.011488,-0.045344,0.063102,0.160339,2.851087,10.774567,4.347365,-0.957116,1,0,,38.990291,-76.940916,-9.059000,,,
2026-09-11T19:06:10.616,2.940065,1.228219,1.863596,11.372397,0.000000,-7.376474,2.537778,1.227014,0.048165,0.101400,0.282619,1.740215,0.497038,-0.052230,-0.001998,0.102883,0.834448,-0.187993,8.715660,4.374417,-0.978690,1,0,,38.990291,-76.940916,-9.059000,,,
2026-09-11T19:06:10.649,2.973482,1.189807,1.903437,11.016731,0.000000,-10.823434,3.723659,1.187295,0.052148,0.109786,0.286147,1.778464,0.509964,-0.005329,0.033410,0.111269,0.034421,0.145335,10.882636,4.347884,-0.978853,1,0,,38.990291,-76.940916,-9.059000,,,
2026-09-11T19:06:10.682,3.006891,1.190372,1.943175,11.021966,0.000000,-18.068918,6.216371,1.183373,0.059810,0.125917,0.290084,1.815900,0.523009,-0.024714,0.001644,0.127400,0.099537,1.544253,8.660743,4.325195,-0.889738,1,0,,38.990291,-76.940916,-9.059000,,,
2026-09-11T19:06:10.716,3.040300,1.171669,1.981787,10.848784,0.000000,-17.655557,6.074160,1.165091,0.072695,0.153042,0.294744,1.852826,0.536436,-0.022071,0.022509,0.154526,0.537404,1.508165,9.903442,4.327397,-0.805837,1,0,,38.990291,-76.940916,-9.059000,,,
2026-09-11T19:06:10.749,3.073708,1.113760,2.018756,10.312594,0.000000,-18.423227,6.338266,1.106952,0.072124,0.151840,0.299837,1.888406,0.549864,-0.051699,0.018402,0.153324,0.360394,1.746074,8.490205,4.311124,-0.706816,1,0,,38.990291,-76.940916,-9.059000,,,
2026-09-11T19:06:10.783,3.107108,1.114213,2.056219,10.316788,0.000000,-19.510187,6.712220,1.106576,0.079967,0.168351,0.305184,1.922936,0.563301,-0.052726,0.026116,0.169834,0.903585,0.717455,10.249126,4.320740,-0.676611,1,0,,38.990291,-76.940916,-9.059000,,,
2026-09-11T19:06:10.816,3.140518,1.094869,2.092728,10.137675,0.000000,-20.318368,6.990264,1.086731,0.083901,0.176634,0.310947,1.957021,0.577019,-0.054880,0.006374,0.178117,0.876420,-0.006178,10.513219,4.315012,-0.693904,1,0,,38.990291,-76.940916,-9.059000,,,
2026-09-11T19:06:10.850,3.173940,1.094798,2.129257,10.137016,0.000000,-20.652765,7.105309,1.086390,0.077643,0.163459,0.316631,1.990729,0.590795,-0.064704,0.026187,0.164942,1.192489,-0.555154,8.508936,4.320264,-0.745605,1,1,3.166454,38.990294,-76.940928,-8.943000,-1.867822,0.643819,3.153714
2026-09-11T19:06:10.882,3.207348,1.094790,2.165370,10.136946,0.000000,-20.318368,6.990264,1.086652,0.074808,0.157492,0.321992,2.024394,0.604608,-0.023982,0.002842,0.158975,1.509243,0.417665,10.719257,4.337113,-0.733373,1,0,,38.990294,-76.940928,-8.943000,,,
2026-09-11T19:06:10.915,3.240750,1.114490,2.202189,10.319356,0.000000,-19.627603,6.752616,1.106759,0.071159,0.149809,0.327124,2.058336,0.618601,-0.041753,0.012228,0.151293,1.933381,-0.608503,9.449394,4.374769,-0.787294,1,0,,38.990294,-76.940928,-8.943000,,,
2026-09-11T19:06:10.949,3.274160,1.134355,2.239919,10.503287,0.000000,-18.382715,6.324328,1.127452,0.067454,0.142008,0.331999,2.092901,0.632871,-0.005439,0.045604,0.143492,1.989965,-1.623687,6.055116,4.411764,-0.905928,1,0,,38.990294,-76.940928,-8.943000,,,
2026-09-11T19:06:10.982,3.307560,1.183186,2.279198,10.955424,0.000000,-17.554620,6.039434,1.176619,0.060906,0.128224,0.336512,2.128545,0.647521,0.064336,-0.112851,0.129707,1.688117,-1.922005,9.689853,4.420553,-1.041905,1,0,,38.990294,-76.940928,-8.943000,,,
2026-09-11T19:06:11.017,3.340965,1.202851,2.319465,11.137506,0.000000,-14.805292,5.093564,1.198101,0.039588,0.083343,0.340045,2.165404,0.662268,0.074166,-0.034763,0.084827,3.589038,1.987023,12.442089,4.545817,-0.920286,1,0,,38.990294,-76.940928,-8.943000,,,
2026-09-11T19:06:11.050,3.374387,1.251543,2.361652,11.588362,0.000000,-9.686349,3.332460,1.249427,0.021898,0.046102,0.342208,2.203604,0.676921,0.032897,0.024070,0.047585,3.325337,0.754720,9.412031,4.648721,-0.876956,1,0,,38.990294,-76.940928,-8.943000,,,
2026-09-11T19:06:11.082,3.407788,1.310055,2.405103,12.130141,0.000000,-2.793801,0.961170,1.309871,0.006066,0.012771,0.343192,2.243704,0.691724,0.004297,0.016390,0.014254,2.352812,-0.892601,10.681894,4.684550,-0.938018,1,0,,38.990294,-76.940928,-8.943000,,,
2026-09-11T19:06:11.115,3.441189,1.329912,2.450052,12.314002,0.000000,-1.936181,0.666117,1.329822,0.000277,0.000584,0.343415,2.285180,0.706662,0.026124,0.003808,0.002067,1.773533,-0.304595,10.455458,4.679732,-0.959347,1,0,,38.990294,-76.940928,-8.943000,,,
2026-09-11T19:06:11.149,3.474595,1.378702,2.495934,12.765755,0.000000,1.705788,-0.586854,1.378629,-0.014391,-0.030298,0.342918,2.327861,0.721662,0.010405,-0.004317,-0.028814,1.407647,-1.907786,8.929347,4.648683,-1.081380,1,0,,38.990294,-76.940928,-8.943000,,,
2026-09-11T19:06:11.184,3.508002,1.388759,2.542562,12.858878,0.000000,7.241524,-2.491350,1.387446,-0.016426,-0.034581,0.341835,2.371555,0.736689,0.050172,0.006852,-0.033098,1.479333,-0.865339,8.016838,4.624011,-1.134239,1,0,,38.990294,-76.940928,-8.943000,,,
2026-09-11T19:06:11.216,3.541409,1.418388,2.589876,13.133218,0.000000,7.261436,-2.498201,1.417039,-0.024280,-0.051117,0.340403,2.415928,0.751719,0.022877,-0.045040,-0.049633,2.173448,-1.977903,9.624737,4.649885,-1.256889,1,0,,38.990294,-76.940928,-8.943000,,,
2026-09-11T19:06:11.250,3.574831,1.438474,2.637987,13.319200,0.000000,7.520988,-2.587496,1.437007,-0.023050,-0.048526,0.338738,2.461161,0.766859,0.063170,-0.014274,-0.047043,1.716752,-1.567691,7.680274,4.655387,-1.351867,1,0,,38.990294,-76.940928,-8.943000,,,
2026-09-11T19:06:11.282,3.608230,1.468101,2.686347,13.593524,0.000000,7.547081,-2.596473,1.466593,-0.026197,-0.055151,0.337007,2.507182,0.782156,0.042839,0.039159,-0.053667,2.343103,1.212690,12.012852,4.715061,-1.265219,1,0,,38.990294,-76.940928,-8.943000,,,
2026-09-11T19:06:11.316,3.641629,1.478360,2.735386,13.688514,0.000000,7.367180,-2.534580,1.476913,-0.023445,-0.049357,0.335262,2.553860,0.797586,0.028701,0.048255,-0.047874,1.818839,-1.347434,10.124582,4.752838,-1.345594,1,0,,38.990294,-76.940928,-8.943000,,,
2026-09-11T19:06:11.351,3.675038,1.488336,2.785239,13.780885,0.000000,6.740959,-2.319137,1.487117,-0.015015,-0.031610,0.333909,2.600837,0.813238,-0.003562,-0.042038,-0.030126,2.170114,-0.463168,10.261973,4.822578,-1.369580,1,0,,38.990294,-76.940928,-8.943000,,,
2026-09-11T19:06:11.384,3.708448,1.517585,2.836669,14.051711,0.000000,5.419853,-1.864628,1.516781,-0.013428,-0.028269,0.332909,2.648409,0.829211,-0.009601,0.023982,-0.026785,2.315252,-0.223101,11.931653,4.909831,-1.378040,1,0,,38.990294,-76.940928,-8.943000,,,
2026-09-11T19:06:11.416,3.741848,1.546735,2.888047,14.321622,0.000000,5.274971,-1.814784,1.545959,-0.006990,-0.014716,0.332191,2.696867,0.845586,-0.008047,0.041524,-0.013233,2.460390,-0.530148,7.817273,5.011197,-1.407562,1,0,,38.990294,-76.940928,-8.943000,,,
2026-09-11T19:06:11.450,3.775255,1.537371,2.940016,14.234912,0.000000,5.693138,-1.958648,1.536472,-0.001998,-0.004207,0.331875,2.745590,0.862227,0.037090,0.044743,-0.002723,1.279572,0.231045,8.249550,5.037754,-1.388583,1,0,,38.990294,-76.940928,-8.943000,,,
2026-09-11T19:06:11.483,3.808654,1.537721,2.991055,14.238158,0.000000,5.950630,-2.047235,1.536740,-0.011659,-0.024545,0.331395,2.794190,0.878721,-0.056082,0.030754,-0.023061,-1.139925,-2.976220,9.987877,4.913585,-1.575193,1,0,,38.990294,-76.940928,-8.943000,,,
2026-09-11T19:06:11.518,3.842062,1.460155,3.040288,13.519956,0.000000,6.516426,-2.241890,1.459038,0.007944,0.016725,0.331264,2.841530,0.894941,-0.047305,-0.040615,0.018208,1.760882,-1.478254,11.303635,4.985187,-1.666915,1,0,,38.990294,-76.940928,-8.943000,,,
2026-09-11T19:06:11.551,3.875485,1.402011,3.087474,12.981582,0.000000,6.350258,-2.184722,1.400992,-0.012992,-0.027351,0.331086,2.886756,0.910402,-0.054325,-0.001227,-0.025867,-0.473563,0.326071,9.997488,4.909946,-1.636842,1,0,,38.990294,-76.940928,-8.943000,,,
2026-09-11T19:06:11.583,3.908893,1.373298,3.132721,12.715720,0.000000,4.351433,-1.497053,1.372829,0.001012,0.002130,0.330665,2.930642,0.925266,-0.022901,0.025403,0.003614,0.306948,-0.462776,9.556483,4.883227,-1.660808,1,0,,38.990294,-76.940928,-8.943000,,,
2026-09-11T19:06:11.617,3.942299,1.334787,3.177495,12.359137,0.000000,-0.214073,0.073649,1.334786,0.007666,0.016139,0.330970,2.973368,0.940093,0.056823,0.064505,0.017622,-1.593286,-0.759721,13.458745,4.732650,-1.704918,1,0,,38.990294,-76.940928,-8.943000,,,
2026-09-11T19:06:11.650,3.975704,1.306341,3.220997,12.095746,0.000000,-5.738823,1.974366,1.305565,0.027963,0.058869,0.332223,3.014871,0.955012,0.079408,0.037894,0.060352,1.033229,2.239741,9.591198,4.755243,-1.558121,1,0,,38.990294,-76.940928,-8.943000,,,
2026-09-11T19:06:11.685,4.009103,1.306782,3.264325,12.099830,0.000000,-7.640831,2.628726,1.305407,0.044557,0.093803,0.334773,3.055674,0.970429,0.089088,-0.016862,0.095287,0.559666,-1.363321,8.926699,4.744234,-1.648915,1,0,,38.990294,-76.940928,-8.943000,,,
2026-09-11T19:06:11.718,4.042510,1.297781,3.307383,12.016491,0.000000,-8.812248,3.031737,1.295965,0.047342,0.099668,0.338004,3.096183,0.986221,0.011730,-0.025098,0.101151,0.861514,0.451106,10.423587,4.745959,-1.621802,1,0,,38.990294,-76.940928,-8.943000,,,
2026-09-11T19:06:11.751,4.075932,1.249569,3.348958,11.570086,0.000000,-9.183037,3.159302,1.247670,0.035354,0.074429,0.340914,3.135805,1.001676,0.011010,0.030303,0.075912,1.314876,-0.193779,9.941786,4.765735,-1.634358,1,0,,38.990294,-76.940928,-8.943000,,,
2026-09-11T19:06:11.784,4.109338,1.259650,3.391887,11.663429,0.000000,-9.018242,3.102606,1.257804,0.039609,0.083387,0.343550,3.174807,1.016900,-0.016507,-0.030133,0.084871,1.523169,-1.866598,9.521963,4.784918,-1.755744,1,0,,38.990294,-76.940928,-8.943000,,,
2026-09-11T19:06:11.817,4.142738,1.299158,3.435493,12.029242,0.000000,-8.718865,2.999609,1.297378,0.035816,0.075403,0.346201,3.214539,1.032513,0.007897,-0.025646,0.076887,1.561905,0.396875,10.059760,4.794457,-1.728933,1,0,,38.990294,-76.940928,-8.943000,,,
2026-09-11T19:06:11.850,4.176143,1.328508,3.479734,12.301002,0.000000,-8.821175,3.034808,1.326645,0.036450,0.076738,0.348743,3.255338,1.048573,-0.003762,-0.028786,0.078221,1.265058,1.427162,10.185677,4.777702,-1.636034,1,1,4.168191,38.990298,-76.940943,-8.838000,-3.149960,1.012430,3.204915
2026-09-11T19:06:11.885,4.209543,1.347873,3.524240,12.480303,0.000000,-8.869927,3.051580,1.345961,0.035252,0.074216,0.351263,3.296853,1.065002,-0.022779,-0.039986,0.075699,2.343495,-0.105618,9.374569,4.828727,-1.643177,1,0,,38.990298,-76.940943,-8.838000,,,
2026-09-11T19:06:11.919,4.242953,1.377037,3.570312,12.750342,0.000000,-8.668739,2.982364,1.375172,0.036648,0.077153,0.353792,3.339098,1.081825,-0.013579,-0.071461,0.078637,2.525997,0.632039,8.666529,4.889103,-1.602929,1,0,,38.990298,-76.940943,-8.838000,,,
2026-09-11T19:06:11.952,4.276378,1.406460,3.617874,13.022778,0.000000,-7.437584,2.558802,1.405058,0.025438,0.053554,0.355977,3.382307,1.098944,-0.061069,-0.028979,0.055037,2.904926,-0.734126,10.037205,4.971533,-1.649524,1,0,,38.990298,-76.940943,-8.838000,,,
2026-09-11T19:06:11.984,4.309782,1.474697,3.666724,13.654598,0.000000,-5.118096,1.760813,1.474000,0.018335,0.038601,0.357516,3.427110,1.116423,-0.062576,-0.051181,0.040084,2.763220,1.127863,9.205503,5.039458,-1.573964,1,0,,38.990298,-76.940943,-8.838000,,,
2026-09-11T19:06:12.018,4.343182,1.504047,3.717053,13.926357,0.000000,-3.826515,1.316462,1.503650,0.014598,0.030733,0.358674,3.473489,1.134367,-0.080020,0.017816,0.032217,2.319273,-1.893860,9.004858,5.076574,-1.693964,1,0,,38.990298,-76.940943,-8.838000,,,
2026-09-11T19:06:12.052,4.376591,1.552739,3.769201,14.377216,0.000000,-1.972572,0.678637,1.552630,0.000115,0.000243,0.359191,3.521204,1.152532,-0.083439,0.036080,0.001727,1.943776,-0.029420,6.717457,5.092009,-1.689101,1,0,,38.990298,-76.940943,-8.838000,,,
2026-09-11T19:06:12.086,4.409994,1.601661,3.823135,14.830197,0.000000,-1.667015,0.573514,1.601581,0.002793,0.005881,0.359293,3.570503,1.171097,0.028465,-0.317298,0.007364,-0.034814,-2.134712,10.362589,4.982348,-1.821034,1,0,,38.990298,-76.940943,-8.838000,,,
2026-09-11T19:06:12.119,4.443400,1.592520,3.875934,14.745555,0.000000,-1.343605,0.462249,1.592468,0.008299,0.017472,0.359683,3.620379,1.190039,0.075388,-0.075063,0.018956,1.745191,-1.622608,15.957185,4.994103,-1.919593,1,0,,38.990298,-76.940943,-8.838000,,,
2026-09-11T19:06:12.151,4.476807,1.573498,3.928409,14.569429,0.000000,-1.308586,0.450202,1.573450,-0.013915,-0.029294,0.359486,3.669911,1.208560,-0.021073,0.049709,-0.027811,1.534937,0.835036,7.711459,4.998937,-1.853311,1,0,,38.990298,-76.940943,-8.838000,,,
2026-09-11T19:06:12.184,4.510207,1.593783,3.981143,14.757248,0.000000,-0.398781,0.137195,1.593778,-0.008135,-0.017127,0.358711,3.719560,1.226803,-0.024573,0.072830,-0.015644,1.529935,2.034095,11.839667,5.013483,-1.711449,1,0,,38.990298,-76.940943,-8.838000,,,
2026-09-11T19:06:12.219,4.543606,1.594426,4.034756,14.763204,0.000000,2.398613,-0.825211,1.594261,-0.012818,-0.026985,0.357974,3.769540,1.245147,-0.065625,0.036424,-0.025502,1.096285,-0.243793,11.237146,5.010469,-1.717451,1,0,,38.990298,-76.940943,-8.838000,,,
2026-09-11T19:06:12.253,4.577025,1.604430,4.088418,14.855831,0.000000,8.080604,-2.780024,1.602542,-0.017698,-0.037258,0.356901,3.819759,1.263359,-0.050427,-0.024473,-0.035775,1.382640,-1.235834,6.232911,5.038852,-1.786500,1,0,,38.990298,-76.940943,-8.838000,,,
2026-09-11T19:06:12.285,4.610432,1.575794,4.141052,14.590687,0.000000,7.494209,-2.578283,1.574199,-0.027866,-0.058665,0.355298,3.869757,1.281144,-0.009913,-0.032903,-0.057181,1.839433,-0.833467,10.596772,5.111210,-1.826623,1,0,,38.990298,-76.940943,-8.838000,,,
2026-09-11T19:06:12.318,4.643831,1.605386,4.194849,14.864684,0.000000,7.648018,-2.631199,1.603693,-0.032145,-0.067674,0.353189,3.919878,1.298612,0.085202,-0.077523,-0.066190,1.850907,-0.900447,10.684247,5.196752,-1.869578,1,0,,38.990298,-76.940943,-8.838000,,,
2026-09-11T19:06:12.352,4.677241,1.585861,4.247933,14.683901,0.000000,7.420738,-2.553006,1.584287,-0.024448,-0.051469,0.351198,3.970191,1.316096,0.142961,0.019805,-0.049986,1.541998,2.771163,8.004678,5.266240,-1.676305,1,0,,38.990298,-76.940943,-8.838000,,,
2026-09-11T19:06:12.386,4.710642,1.586194,4.301221,14.686980,0.000000,7.234657,-2.488988,1.584697,-0.030227,-0.063637,0.349276,4.020216,1.333398,0.119815,0.026481,-0.062153,0.392070,0.654202,8.335358,5.256840,-1.620884,1,0,,38.990298,-76.940943,-8.838000,,,
2026-09-11T19:06:12.420,4.744052,1.528212,4.351846,14.150108,0.000000,7.457130,-2.565526,1.526680,-0.029539,-0.062186,0.347174,4.069412,1.350196,0.121251,0.090195,-0.060703,0.129938,-1.066081,8.548751,5.230400,-1.677723,1,0,,38.990298,-76.940943,-8.838000,,,
2026-09-11T19:06:12.452,4.777462,1.490162,4.401224,13.797792,0.000000,8.277672,-2.847823,1.488321,-0.042701,-0.089896,0.344633,4.117203,1.366138,0.076093,0.056674,-0.088413,-1.172091,-1.448540,9.282191,5.121974,-1.756160,1,0,,38.990298,-76.940943,-8.838000,,,
2026-09-11T19:06:12.485,4.810861,1.461518,4.449939,13.532570,0.000000,9.940727,-3.419975,1.458915,-0.047302,-0.099583,0.341469,4.164058,1.381278,0.108310,-0.010655,-0.098100,0.391580,1.922790,11.012770,5.115711,-1.614950,1,0,,38.990298,-76.940943,-8.838000,,,
2026-09-11T19:06:12.519,4.844260,1.394106,4.496081,12.908386,0.000000,11.022195,-3.792040,1.391053,-0.068984,-0.145229,0.337381,4.209580,1.395294,0.047201,0.034012,-0.143746,-1.297812,3.678573,11.630197,4.996929,-1.358105,1,0,,38.990298,-76.940943,-8.838000,,,
2026-09-11T19:06:12.553,4.877665,1.316785,4.540084,12.192454,0.000000,12.249231,-4.214185,1.313225,-0.043621,-0.091835,0.333421,4.252850,1.408388,-0.020832,0.025578,-0.090351,0.470425,1.546313,9.633367,4.993271,-1.247230,1,0,,38.990298,-76.940943,-8.838000,,,
2026-09-11T19:06:12.587,4.911082,1.288234,4.583176,11.928093,0.000000,11.940927,-4.108117,1.284924,-0.057196,-0.120412,0.329875,4.294444,1.420931,-0.001055,0.037455,-0.118928,0.982234,-1.653107,9.404087,5.024242,-1.342331,1,0,,38.990298,-76.940943,-8.838000,,,
2026-09-11T19:06:12.619,4.944484,1.279028,4.625515,11.842848,0.000000,10.100717,-3.475017,1.276676,-0.044302,-0.093268,0.326306,4.335490,1.433112,0.045785,-0.015248,-0.091784,1.554354,-0.793554,10.182343,5.092727,-1.383054,1,0,,38.990298,-76.940943,-8.838000,,,
2026-09-11T19:06:12.652,4.977893,1.308811,4.669322,12.118619,0.000000,8.881234,-3.055471,1.306950,-0.028836,-0.060708,0.323734,4.376779,1.445735,0.028876,-0.024318,-0.059225,2.212871,-2.660838,9.064189,5.200828,-1.546685,1,0,,38.990298,-76.940943,-8.838000,,,
2026-09-11T19:06:12.687,5.011302,1.280430,4.712461,11.855838,0.000000,7.684411,-2.643719,1.279068,-0.018594,-0.039146,0.322066,4.417995,1.458692,0.049428,0.198309,-0.037662,1.003711,-1.273394,11.800342,5.222093,-1.620655,1,0,,38.990298,-76.940943,-8.838000,,,
2026-09-11T19:06:12.720,5.044710,1.290701,4.754770,11.950935,0.000000,6.324853,-2.175982,1.289770,-0.009998,-0.021048,0.321061,4.458857,1.471801,0.009121,-0.016249,-0.019564,1.985356,1.251230,12.589189,5.302583,-1.531988,1,0,,38.990298,-76.940943,-8.838000,,,
2026-09-11T19:06:12.752,5.078120,1.300897,4.797615,12.045338,0.000000,2.999429,-1.031914,1.300686,0.001569,0.003304,0.320764,4.499966,1.485317,0.103612,0.030932,0.004788,2.678490,0.352745,9.081056,5.423509,-1.504452,1,0,,38.990298,-76.940943,-8.838000,,,
2026-09-11T19:06:12.786,5.111520,1.310971,4.842279,12.138624,0.000000,-1.178809,0.405554,1.310939,0.000961,0.002024,0.320853,4.541342,1.499110,0.046345,-0.023135,0.003507,0.540739,-0.147590,7.775987,5.396926,-1.509478,1,0,,38.990298,-76.940943,-8.838000,,,
2026-09-11T19:06:12.820,5.144920,1.321040,4.886557,12.231854,0.000000,-4.202796,1.445916,1.320620,0.009091,0.019140,0.321207,4.582990,1.513136,0.015330,-0.046916,0.020623,0.516222,1.748035,9.721921,5.361491,-1.393330,1,0,,38.990298,-76.940943,-8.838000,,,
2026-09-11T19:06:12.854,5.178338,1.301680,4.930863,12.052594,0.000000,-3.601981,1.239214,1.301376,0.015336,0.032286,0.322066,4.624425,1.527373,-0.044847,0.006303,0.033770,1.145417,1.918867,10.987469,5.359950,-1.268439,1,1,5.175410,38.990301,-76.940959,-8.725000,-4.485106,1.404392,2.825509
2026-09-11T19:06:12.887,5.211745,1.292037,4.974081,11.963302,0.000000,-3.214026,1.105743,1.291796,0.004118,0.008669,0.322750,4.665405,1.541406,-0.073812,-0.036590,0.010152,0.826308,3.602865,7.847281,5.333978,-1.034063,1,0,,38.990301,-76.940959,-8.725000,,,
2026-09-11T19:06:12.920,5.245144,1.282656,5.017041,11.876444,0.000000,-3.183814,1.095349,1.282422,0.007575,0.015947,0.323161,4.706109,1.555234,-0.079777,0.002999,0.017431,1.146103,-1.796284,10.192052,5.325545,-1.152055,1,0,,38.990301,-76.940959,-8.725000,,,
2026-09-11T19:06:12.953,5.278549,1.302483,5.060720,12.060025,0.000000,-3.139868,1.080230,1.302251,0.005377,0.011319,0.323617,4.746974,1.569158,-0.091518,-0.067146,0.012803,0.254777,0.521125,9.215799,5.254967,-1.118517,1,0,,38.990301,-76.940959,-8.725000,,,
2026-09-11T19:06:12.987,5.311948,1.283401,5.103102,11.883346,0.000000,-3.208533,1.103853,1.283163,0.010153,0.021374,0.324163,4.787821,1.583145,-0.038424,-0.020463,0.022857,0.508475,0.237909,11.437594,5.201972,-1.104490,1,0,,38.990301,-76.940959,-8.725000,,,
2026-09-11T19:06:13.021,5.345358,1.264198,5.145607,11.705533,0.000000,-3.273764,1.126295,1.263953,0.003962,0.008341,0.324659,4.828076,1.596930,-0.009695,-0.015956,0.009824,0.624095,0.379027,12.714910,5.157462,-1.080394,1,0,,38.990301,-76.940959,-8.725000,,,
2026-09-11T19:06:13.054,5.378776,1.244934,5.187630,11.527169,0.000000,-3.294364,1.133382,1.244691,0.013486,0.028392,0.325273,4.867706,1.610590,0.050118,0.019476,0.029875,0.843470,-1.380580,8.798330,5.126760,-1.172008,1,0,,38.990301,-76.940959,-8.725000,,,
2026-09-11T19:06:13.086,5.412176,1.274296,5.229967,11.799039,0.000000,-3.139868,1.080230,1.274070,0.005926,0.012476,0.325955,4.907456,1.624353,0.055741,-0.018635,0.013959,2.329864,0.088946,8.802449,5.190810,-1.166276,1,0,,38.990301,-76.940959,-8.725000,,,
2026-09-11T19:06:13.120,5.445577,1.323084,5.274299,12.250776,0.000000,-2.508155,0.862897,1.322934,-0.003690,-0.007768,0.326034,4.948530,1.638278,0.025875,-0.050347,-0.006284,2.106959,0.841803,10.889500,5.236591,-1.110230,1,0,,38.990301,-76.940959,-8.725000,,,
2026-09-11T19:06:13.155,5.478997,1.352612,5.319659,12.524183,0.000000,0.521325,-0.179355,1.352605,-0.012656,-0.026645,0.325459,4.990975,1.652326,-0.012329,-0.048702,-0.025162,1.832471,0.108069,10.675814,5.262852,-1.100581,1,0,,38.990301,-76.940959,-8.725000,,,
2026-09-11T19:06:13.188,5.512404,1.382167,5.365827,12.797843,0.000000,8.590097,-2.955309,1.380329,-0.027989,-0.058924,0.324030,5.034455,1.666248,-0.116225,-0.179121,-0.057440,0.657340,-0.848373,10.229317,5.213651,-1.149973,1,0,,38.990301,-76.940959,-8.725000,,,
2026-09-11T19:06:13.221,5.545815,1.402356,5.411788,12.984776,0.000000,9.216317,-3.170751,1.400209,-0.054401,-0.114529,0.321132,5.078946,1.679667,-0.105758,0.006251,-0.113045,2.273868,0.241440,14.269559,5.270312,-1.123217,1,0,,38.990301,-76.940959,-8.725000,,,
2026-09-11T19:06:13.254,5.579240,1.402977,5.458586,12.990527,0.000000,14.256295,-4.904689,1.397840,-0.065321,-0.137518,0.316920,5.123976,1.692434,-0.093349,0.041141,-0.136034,1.503458,0.919373,9.324065,5.273715,-1.050814,1,0,,38.990301,-76.940959,-8.725000,,,
2026-09-11T19:06:13.287,5.612642,1.422960,5.505329,13.175559,0.000000,17.024850,-5.857173,1.415532,-0.077971,-0.164149,0.311882,5.169398,1.704688,-0.094579,0.004517,-0.162665,2.075087,-0.930259,6.649693,5.311840,-1.096278,1,0,,38.990301,-76.940959,-8.725000,,,
2026-09-11T19:06:13.321,5.646043,1.442940,5.553624,13.360554,0.000000,20.024804,-6.889268,1.432522,-0.081670,-0.171936,0.306269,5.215519,1.716615,-0.041408,0.018398,-0.170453,1.778338,0.799536,8.255532,5.332797,-1.028479,1,0,,38.990301,-76.940959,-8.725000,,,
2026-09-11T19:06:13.355,5.679449,1.452902,5.601787,13.452797,0.000000,20.611200,-7.091009,1.441789,-0.089514,-0.188451,0.300249,5.262191,1.728223,-0.013990,-0.006956,-0.186967,2.446857,-1.325565,7.886802,5.408267,-1.097219,1,0,,38.990301,-76.940959,-8.725000,,,
2026-09-11T19:06:13.388,5.712857,1.462544,5.650677,13.542072,0.000000,21.030053,-7.235110,1.450899,-0.089428,-0.188270,0.293956,5.309269,1.739510,0.005135,0.015621,-0.186787,1.443833,-3.373193,8.800586,5.429961,-1.297549,1,0,,38.990301,-76.940959,-8.725000,,,
2026-09-11T19:06:13.421,5.746266,1.453088,5.699367,13.454517,0.000000,21.652841,-7.449372,1.440824,-0.105196,-0.221466,0.287112,5.356479,1.750232,-0.027318,0.067883,-0.219982,1.653892,-2.602489,11.429553,5.476464,-1.442843,1,0,,38.990301,-76.940959,-8.725000,,,
2026-09-11T19:06:13.454,5.779670,1.453602,5.747676,13.459278,0.000000,22.195291,-7.635995,1.440712,-0.097840,-0.205979,0.279973,5.403634,1.760441,0.056093,0.074265,-0.204495,1.954367,0.272625,9.846955,5.553797,-1.402011,1,0,,38.990301,-76.940959,-8.725000,,,
2026-09-11T19:06:13.488,5.813072,1.454045,5.796570,13.463379,0.000000,22.785806,-7.839153,1.440457,-0.094350,-0.198631,0.273216,5.450799,1.770493,0.012765,0.009227,-0.197147,0.865437,-2.629163,10.509395,5.567584,-1.549976,1,0,,38.990301,-76.940959,-8.725000,,,
2026-09-11T19:06:13.522,5.846597,1.454407,5.845894,13.466730,0.000000,23.095483,-7.945694,1.440444,-0.111923,-0.235628,0.265936,5.498266,1.780021,0.009932,0.022796,-0.234145,0.189072,0.181717,9.267775,5.541090,-1.510939,1,0,,38.990301,-76.940959,-8.725000,,,
2026-09-11T19:06:13.555,5.880020,1.454783,5.894374,13.470211,0.000000,24.122018,-8.298859,1.439549,-0.109917,-0.231403,0.258131,5.545712,1.788908,0.003635,0.018654,-0.229920,1.018617,-1.060295,7.159933,5.573116,-1.553231,1,0,,38.990301,-76.940959,-8.725000,,,
2026-09-11T19:06:13.588,5.913423,1.425994,5.941473,13.203653,0.000000,24.171457,-8.315868,1.411001,-0.108962,-0.229394,0.250435,5.592709,1.797348,-0.023126,0.040441,-0.227911,0.013631,-0.510730,9.154018,5.545422,-1.560098,1,0,,38.990301,-76.940959,-8.725000,,,
2026-09-11T19:06:13.621,5.946823,1.358387,5.986988,12.577654,0.000000,23.125695,-7.956088,1.345311,-0.095074,-0.200155,0.243262,5.638176,1.805295,-0.007942,0.013621,-0.198672,0.141804,-0.487391,7.825216,5.530776,-1.568897,1,0,,38.990301,-76.940959,-8.725000,,,
2026-09-11T19:06:13.655,5.980229,1.310578,6.031237,12.134983,0.000000,21.974191,-7.559928,1.299186,-0.070716,-0.148877,0.237432,5.681737,1.813123,0.033800,-0.017869,-0.147393,-0.916726,0.865633,11.079651,5.446856,-1.494996,1,0,,38.990301,-76.940959,-8.725000,,,
2026-09-11T19:06:13.690,6.013641,1.233882,6.073842,11.424836,0.000000,16.533899,-5.688268,1.227807,-0.056653,-0.119270,0.232952,5.723287,1.820894,-0.025234,-0.049841,-0.117787,-0.861220,5.702763,8.595921,5.363906,-1.112039,1,0,,38.990301,-76.940959,-8.725000,,,
2026-09-11T19:06:13.723,6.047050,1.166797,6.113183,10.803674,0.000000,7.420739,-2.553007,1.165639,-0.025663,-0.054026,0.230057,5.762517,1.828730,-0.064492,0.033260,-0.052543,1.533564,1.386170,9.842935,5.434131,-1.017961,1,0,,38.990301,-76.940959,-8.725000,,,
2026-09-11T19:06:13.756,6.080458,1.118639,6.149868,10.357766,0.000000,7.284784,-2.506233,1.117569,-0.007643,-0.016091,0.228886,5.799783,1.836864,-0.089404,0.004769,-0.014607,-0.611150,-5.517123,9.394967,5.361372,-1.374341,1,0,,38.990301,-76.940959,-8.725000,,,
2026-09-11T19:06:13.790,6.113860,1.119186,6.187426,10.362838,0.000000,2.710351,-0.932460,1.119038,0.005571,0.011727,0.228813,5.836170,1.845304,0.004392,0.025642,0.013211,1.014400,0.947126,10.488801,5.392652,-1.310692,1,0,,38.990301,-76.940959,-8.725000,,,
2026-09-11T19:06:13.822,6.147262,1.090657,6.223271,10.098680,0.000000,-3.311530,1.139288,1.090442,0.018686,0.039338,0.229666,5.872013,1.854084,-0.014823,-0.015020,0.040822,0.101205,-1.108053,6.799637,5.357158,-1.382578,1,0,,38.990301,-76.940959,-8.725000,,,
2026-09-11T19:06:13.857,6.180669,1.052204,6.258211,9.742630,0.000000,-6.194754,2.131223,1.051476,0.035351,0.074422,0.231566,5.906637,1.863140,0.002410,0.096067,0.075906,-1.470213,-0.716768,12.074438,5.206686,-1.430659,1,1,6.167615,38.990305,-76.940973,-8.618000,-5.718557,1.862330,2.825509
2026-09-11T19:06:13.890,6.214078,1.042776,6.291788,9.655334,0.000000,-9.076606,3.122685,1.041228,0.033471,0.070466,0.233987,5.940387,1.872322,0.046374,0.009802,0.071950,1.818447,-1.203864,10.590496,5.256492,-1.509401,1,0,,38.990305,-76.940973,-8.618000,,,
2026-09-11T19:06:13.922,6.247479,1.062142,6.327448,9.834651,0.000000,-14.741434,5.071594,1.057984,0.038634,0.081334,0.236522,5.974198,1.881665,0.070501,-0.004510,0.082818,1.555531,0.671461,9.460672,5.272683,-1.466799,1,0,,38.990305,-76.940973,-8.618000,,,
2026-09-11T19:06:13.955,6.280888,1.091303,6.363860,10.104653,0.000000,-16.438821,5.655558,1.085990,0.048853,0.102849,0.239599,6.008657,1.891532,0.053268,-0.012081,0.104333,2.215224,0.346665,9.790763,5.315135,-1.447327,1,0,,38.990305,-76.940973,-8.618000,,,
2026-09-11T19:06:13.989,6.314288,1.120550,6.400870,10.375459,0.000000,-16.979898,5.841708,1.114730,0.052041,0.109560,0.243146,6.043940,1.901953,0.030066,-0.010641,0.111043,1.658599,2.200122,9.132443,5.307694,-1.308899,1,0,,38.990305,-76.940973,-8.618000,,,
2026-09-11T19:06:14.023,6.347697,1.130675,6.438737,10.469218,0.000000,-16.914667,5.819266,1.124849,0.051715,0.108873,0.246795,6.079813,1.912708,-0.049564,-0.010883,0.110357,2.121473,-0.052171,9.461162,5.322800,-1.317670,1,0,,38.990305,-76.940973,-8.618000,,,
2026-09-11T19:06:14.057,6.381118,1.160118,6.477379,10.741837,0.000000,-16.894754,5.812415,1.154154,0.048786,0.102707,0.250330,6.116313,1.923706,-0.074154,-0.001144,0.104191,2.413220,0.054525,9.962282,5.351071,-1.319189,1,0,,38.990305,-76.940973,-8.618000,,,
2026-09-11T19:06:14.089,6.414520,1.208908,6.517933,11.193590,0.000000,-16.885828,5.809344,1.202699,0.055251,0.116317,0.253988,6.153997,1.935211,-0.087228,0.005760,0.117800,3.056635,-1.737150,8.970829,5.415788,-1.437938,1,0,,38.990305,-76.940973,-8.618000,,,
2026-09-11T19:06:14.122,6.447922,1.267420,6.560242,11.735369,0.000000,-16.762231,5.766823,1.261006,0.057389,0.120818,0.257949,6.193325,1.947450,-0.038662,0.005428,0.122302,2.744783,1.947699,9.285427,5.456883,-1.317882,1,0,,38.990305,-76.940973,-8.618000,,,
2026-09-11T19:06:14.157,6.481339,1.335656,6.605511,12.367190,0.000000,-16.218408,5.579728,1.329328,0.054086,0.113866,0.261870,6.234672,1.960375,-0.037042,0.008991,0.115350,2.571009,-0.021771,9.484992,5.486620,-1.326459,1,0,,38.990305,-76.940973,-8.618000,,,
2026-09-11T19:06:14.189,6.514747,1.394165,6.652214,12.908931,0.000000,-14.321893,4.927257,1.389012,0.047859,0.100757,0.265455,6.278067,1.973855,0.011657,0.002790,0.102240,2.317802,-0.278607,10.306005,5.501163,-1.350812,1,0,,38.990305,-76.940973,-8.618000,,,
2026-09-11T19:06:14.223,6.548148,1.452779,6.700684,13.451660,0.000000,-10.445093,3.593495,1.449923,0.033648,0.070837,0.268321,6.323441,1.987673,0.018159,-0.027899,0.072321,2.578561,-0.073550,10.710235,5.533044,-1.359222,1,0,,38.990305,-76.940973,-8.618000,,,
2026-09-11T19:06:14.256,6.581556,1.482402,6.750613,13.725947,0.000000,-4.943002,1.700574,1.481749,0.023466,0.049402,0.270329,6.370392,2.001623,0.009580,0.026726,0.050886,2.276418,-2.783912,7.565831,5.544217,-1.540939,1,0,,38.990305,-76.940973,-8.618000,,,
2026-09-11T19:06:14.290,6.614956,1.521732,6.801550,14.090115,0.000000,-1.997292,0.687142,1.521623,-0.000353,-0.000744,0.271142,6.418619,2.015409,0.028173,-0.020816,0.000740,0.537601,2.319371,11.466818,5.442655,-1.385789,1,0,,38.990305,-76.940973,-8.618000,,,
2026-09-11T19:06:14.324,6.648365,1.541898,6.853458,14.276835,0.000000,-0.266945,0.091839,1.541896,-0.011612,-0.024446,0.270721,6.467980,2.028912,0.036848,-0.068093,-0.022963,1.482864,0.268408,9.392123,5.406293,-1.362613,1,0,,38.990305,-76.940973,-8.618000,,,
2026-09-11T19:06:14.356,6.681773,1.532619,6.904260,14.190916,0.000000,0.250099,-0.086043,1.532617,-0.012822,-0.026993,0.269862,6.517580,2.042232,0.015245,0.140749,-0.025510,0.780904,-0.049033,2.508737,5.331037,-1.359989,1,0,,38.990305,-76.940973,-8.618000,,,
2026-09-11T19:06:14.389,6.715172,1.533033,6.955285,14.194750,0.000000,1.248482,-0.429523,1.532990,-0.017540,-0.036927,0.268794,6.567065,2.055365,0.008306,0.138414,-0.035444,1.789321,0.941536,3.465768,5.333687,-1.292355,1,0,,38.990305,-76.940973,-8.618000,,,
2026-09-11T19:06:14.426,6.748573,1.533132,7.006935,14.195668,0.000000,0.901726,-0.310227,1.533110,-0.012537,-0.026394,0.267737,6.616572,2.068453,0.000441,0.080012,-0.024911,2.096858,0.704706,11.164381,5.370205,-1.241826,1,0,,38.990305,-76.940973,-8.618000,,,
2026-09-11T19:06:14.459,6.781994,1.552407,7.059174,14.374143,0.000000,0.465706,-0.160220,1.552401,-0.012367,-0.026036,0.266861,6.666410,2.081670,0.018584,0.045794,-0.024552,1.575144,1.371264,9.580411,5.387628,-1.148703,1,0,,38.990305,-76.940973,-8.618000,,,
2026-09-11T19:06:14.492,6.815401,1.581831,7.111577,14.646582,0.000000,0.124443,-0.042813,1.581830,-0.000680,-0.001432,0.266402,6.716971,2.095254,0.044909,0.010291,0.000052,1.784222,-0.905546,9.970715,5.433154,-1.206375,1,0,,38.990305,-76.940973,-8.618000,,,
2026-09-11T19:06:14.525,6.848802,1.601733,7.165088,14.830864,0.000000,0.045479,-0.015646,1.601733,-0.004617,-0.009720,0.266215,6.768287,2.109161,0.019937,-0.002563,-0.008236,2.223070,-1.757058,8.813433,5.522003,-1.317602,1,0,,38.990305,-76.940973,-8.618000,,,
2026-09-11T19:06:14.558,6.882210,1.611737,7.218900,14.923492,0.000000,0.729378,-0.250933,1.611722,-0.015966,-0.033613,0.265492,6.820168,2.122932,-0.003428,0.025941,-0.032129,2.041941,-0.298318,11.544977,5.609463,-1.330772,1,0,,38.990305,-76.940973,-8.618000,,,
2026-09-11T19:06:14.592,6.915617,1.641147,7.274006,15.195804,0.000000,3.489006,-1.200346,1.640787,-0.022911,-0.048234,0.264125,6.872773,2.136524,-0.029118,0.076813,-0.046751,1.510126,-0.021182,10.862434,5.665704,-1.324256,1,0,,38.990305,-76.940973,-8.618000,,,
2026-09-11T19:06:14.625,6.949027,1.622184,7.328244,15.020223,0.000000,8.859947,-3.048147,1.619889,-0.035823,-0.075417,0.262059,6.925624,2.149742,0.001412,0.025799,-0.073933,-0.290669,1.387151,9.758009,5.608456,-1.223931,1,0,,38.990305,-76.940973,-8.618000,,,
2026-09-11T19:06:14.658,6.982449,1.593574,7.381724,14.755315,0.000000,7.978981,-2.745062,1.591745,-0.023722,-0.049942,0.259964,6.977733,2.162631,-0.027714,-0.007589,-0.048458,0.257032,-2.465098,8.121083,5.592663,-1.376711,1,0,,38.990305,-76.940973,-8.618000,,,
2026-09-11T19:06:14.692,7.015849,1.536022,7.432973,14.222423,0.000000,7.691963,-2.646318,1.534384,-0.018767,-0.039508,0.258470,7.028376,2.175328,-0.015492,-0.035255,-0.038025,-1.207199,-0.772078,11.908804,5.482980,-1.419442,1,0,,38.990305,-76.940973,-8.618000,,,
2026-09-11T19:06:14.725,7.049249,1.478590,7.482121,13.690647,0.000000,6.456001,-2.221101,1.477479,-0.016190,-0.034084,0.257241,7.077161,2.187590,-0.012627,0.033395,-0.032600,-0.409428,0.079728,11.047780,5.427712,-1.407282,1,0,,38.990305,-76.940973,-8.618000,,,
2026-09-11T19:06:14.759,7.082672,1.401813,7.528042,12.979751,0.000000,5.496757,-1.891086,1.401050,-0.005206,-0.010959,0.256489,7.123777,2.199466,-0.015302,0.001300,-0.009476,-1.443539,-0.152199,8.807647,5.304398,-1.412521,1,0,,38.990305,-76.940973,-8.618000,,,
2026-09-11T19:06:14.792,7.116090,1.314916,7.572568,12.175152,0.000000,4.635704,-1.594852,1.314407,0.002376,0.005001,0.256389,7.167678,2.210928,-0.069854,0.003561,0.006485,-0.818365,-1.126490,8.046455,5.218187,-1.482156,1,0,,38.990305,-76.940973,-8.618000,,,
2026-09-11T19:06:14.825,7.149488,1.286561,7.615209,11.912604,0.000000,2.636192,-0.906947,1.286400,-0.016021,-0.033729,0.255909,7.209750,2.221712,0.060867,-0.069366,-0.032245,4.085352,6.064629,9.103415,5.449009,-1.082759,1,0,,38.990305,-76.940973,-8.618000,,,
2026-09-11T19:06:14.859,7.182896,1.257908,7.657600,11.647292,0.000000,-0.608208,0.209246,1.257899,0.005118,0.010775,0.255526,7.250914,2.232285,0.034779,-0.011199,0.012259,-1.384307,0.657438,8.594352,5.316637,-1.041093,1,1,7.168715,38.990310,-76.940988,-8.513000,-7.037714,2.353997,3.153714
2026-09-11T19:06:14.892,7.216297,1.209035,7.697555,11.194772,0.000000,-3.953545,1.360164,1.208695,0.014558,0.030649,0.256218,7.290683,2.243029,0.009384,0.006172,0.032132,0.395012,5.241458,9.337794,5.293334,-0.704977,1,0,,38.990310,-76.940988,-8.513000,,,
2026-09-11T19:06:14.926,7.249705,1.179791,7.737180,10.923987,0.000000,-3.873894,1.332762,1.179471,0.008416,0.017717,0.257026,7.329171,2.253525,0.107790,0.032378,0.019201,1.054901,1.751762,10.802319,5.301963,-0.597188,1,0,,38.990310,-76.940988,-8.513000,,,
2026-09-11T19:06:14.959,7.283129,1.208962,7.777078,11.194096,0.000000,-3.832695,1.318588,1.208642,0.007322,0.015415,0.257579,7.367700,2.263935,0.058803,-0.084077,0.016898,3.238450,-0.065508,6.946737,5.439616,-0.607992,1,0,,38.990310,-76.940988,-8.513000,,,
2026-09-11T19:06:14.992,7.316660,1.209123,7.818216,11.195580,0.000000,-3.446114,1.185590,1.208864,0.017359,0.036546,0.258450,7.406784,2.274677,0.012440,0.061538,0.038029,3.078307,-0.770214,7.844536,5.550614,-0.666119,1,0,,38.990310,-76.940988,-8.513000,,,
2026-09-11T19:06:15.026,7.350061,1.277535,7.860775,11.829031,0.000000,-3.491432,1.201181,1.277255,0.007509,0.015809,0.259325,7.446813,2.285708,0.017076,-0.006336,0.017293,2.664369,1.250446,12.467685,5.616010,-0.591154,1,0,,38.990310,-76.940988,-8.513000,,,
2026-09-11T19:06:15.060,7.383470,1.316604,7.904893,12.190779,0.000000,-3.777764,1.299689,1.316265,0.001997,0.004204,0.259659,7.488645,2.296978,-0.023670,-0.018444,0.005687,1.768825,0.131115,10.750246,5.608517,-0.588455,1,0,,38.990310,-76.940988,-8.513000,,,
2026-09-11T19:06:15.093,7.416879,1.365397,7.950704,12.642569,0.000000,-3.744118,1.288114,1.365052,0.008285,0.017442,0.260021,7.531888,2.308652,-0.037350,-0.103118,0.018925,1.623197,0.318030,7.242603,5.584196,-0.574877,1,0,,38.990310,-76.940988,-8.513000,,,
2026-09-11T19:06:15.126,7.450287,1.394765,7.997106,12.914492,0.000000,-3.733818,1.284570,1.394415,0.008182,0.017226,0.260600,7.576358,2.320782,-0.073391,-0.034215,0.018709,2.202476,-0.691173,10.026025,5.591012,-0.626741,1,0,,38.990310,-76.940988,-8.513000,,,
2026-09-11T19:06:15.160,7.483692,1.443655,8.045314,13.367179,0.000000,-3.610222,1.242049,1.443316,0.006283,0.013228,0.261108,7.622090,2.333240,-0.054181,-0.031094,0.014711,2.751746,0.177697,9.034082,5.629717,-0.621512,1,0,,38.990310,-76.940988,-8.513000,,,
2026-09-11T19:06:15.193,7.517091,1.482896,8.094586,13.730521,0.000000,-3.404915,1.171416,1.482586,0.004098,0.008627,0.261473,7.669248,2.346029,-0.039602,-0.042626,0.010111,2.815489,-1.136198,9.696816,5.673413,-0.700896,1,0,,38.990310,-76.940988,-8.513000,,,
2026-09-11T19:06:15.227,7.550505,1.531791,8.145818,14.183247,0.000000,-2.955849,1.016920,1.531549,0.004018,0.008458,0.261759,7.717856,2.359185,-0.058224,-0.014947,0.009942,3.169804,0.769626,8.655742,5.740357,-0.656155,1,0,,38.990310,-76.940988,-8.513000,,,
2026-09-11T19:06:15.260,7.583926,1.580937,8.199173,14.638301,0.000000,-2.164833,0.744782,1.580803,0.000925,0.001947,0.261933,7.768071,2.372728,-0.059651,0.017400,0.003431,2.019680,-2.280144,9.800570,5.737875,-0.808600,1,0,,38.990310,-76.940988,-8.513000,,,
2026-09-11T19:06:15.293,7.617327,1.630171,8.253872,15.094180,0.000000,-0.901405,0.310117,1.630148,-0.008710,-0.018336,0.261659,7.819901,2.386481,-0.041232,-0.016593,-0.016853,1.575242,-1.252800,6.499554,5.714630,-0.890695,1,0,,38.990310,-76.940988,-8.513000,,,
2026-09-11T19:06:15.326,7.650730,1.679118,8.309689,15.547387,0.000000,0.941551,-0.323928,1.679091,-0.016776,-0.035317,0.260763,7.873405,2.400343,-0.073024,-0.018578,-0.033834,1.883171,-0.003236,7.579462,5.717314,-0.889175,1,0,,38.990310,-76.940988,-8.513000,,,
2026-09-11T19:06:15.360,7.684138,1.689126,8.366179,15.640052,0.000000,6.528099,-2.245906,1.687828,-0.025099,-0.052839,0.259290,7.927937,2.414127,-0.027696,-0.011416,-0.051356,1.659874,-1.018224,9.263754,5.710987,-0.951390,1,0,,38.990310,-76.940988,-8.513000,,,
2026-09-11T19:06:15.394,7.717538,1.708587,8.422928,15.820250,0.000000,7.070549,-2.432528,1.707047,-0.033758,-0.071070,0.257221,7.983001,2.427655,-0.004007,0.048626,-0.069587,1.396271,0.554664,9.017803,5.693779,-0.909112,1,0,,38.990310,-76.940988,-8.513000,,,
2026-09-11T19:06:15.427,7.750944,1.669841,8.478974,15.461490,0.000000,7.802513,-2.684351,1.668009,-0.034191,-0.071980,0.254832,8.037824,2.440834,-0.017971,0.087015,-0.070497,-1.390387,-0.392854,1.470998,5.504669,-0.928658,1,0,,38.990310,-76.940988,-8.513000,,,
2026-09-11T19:06:15.461,7.784365,1.689461,8.535554,15.643153,0.000000,7.941902,-2.732306,1.687540,-0.048243,-0.101565,0.251932,8.092452,2.453556,-0.007486,0.146996,-0.100082,1.021461,0.231731,17.025816,5.485457,-0.904260,1,0,,38.990310,-76.940988,-8.513000,,,
2026-09-11T19:06:15.494,7.817773,1.690096,8.591651,15.649034,0.000000,7.802513,-2.684351,1.688241,-0.044910,-0.094546,0.248656,8.147469,2.466016,0.006693,0.162870,-0.093063,0.992433,1.994280,7.905239,5.476533,-0.766902,1,0,,38.990310,-76.940988,-8.513000,,,
2026-09-11T19:06:15.527,7.851178,1.661302,8.646854,15.382421,0.000000,7.672050,-2.639467,1.659539,-0.047289,-0.099555,0.245414,8.202064,2.478196,0.006042,0.056714,-0.098072,1.447658,1.541409,11.601757,5.510647,-0.660002,1,0,,38.990310,-76.940988,-8.513000,,,
2026-09-11T19:06:15.560,7.884585,1.671396,8.703221,15.475893,0.000000,7.289589,-2.507886,1.669796,-0.031843,-0.067038,0.242631,8.256347,2.490350,0.046333,0.075643,-0.065555,2.095877,0.584869,12.980867,5.600564,-0.619595,1,0,,38.990310,-76.940988,-8.513000,,,
2026-09-11T19:06:15.594,7.917983,1.662131,8.758400,15.390101,0.000000,5.781715,-1.989122,1.661129,-0.025235,-0.053125,0.240624,8.310584,2.502734,-0.019272,0.156074,-0.051642,-0.734812,-0.993610,6.347354,5.515824,-0.683245,1,0,,38.990310,-76.940988,-8.513000,,,
2026-09-11T19:06:15.628,7.951398,1.662810,8.813808,15.396387,0.000000,4.218910,-1.451460,1.662276,-0.007250,-0.015262,0.239482,8.364646,2.515408,-0.066755,0.092474,-0.013779,-0.323423,0.355883,8.576406,5.463804,-0.662985,1,0,,38.990310,-76.940988,-8.513000,,,
2026-09-11T19:06:15.661,7.984818,1.643907,8.868660,15.221357,0.000000,2.726143,-0.937893,1.643686,0.005831,0.012277,0.239432,8.418318,2.528488,-0.036723,0.107948,0.013760,0.327052,-0.900152,10.419272,5.454708,-0.727164,1,0,,38.990310,-76.940988,-8.513000,,,
2026-09-11T19:06:15.694,8.018224,1.605467,8.922359,14.865437,0.000000,2.353294,-0.809620,1.605307,-0.002088,-0.004396,0.239564,8.471023,2.541422,-0.022611,-0.057583,-0.002913,-0.820032,0.728144,16.900291,5.370998,-0.683530,1,0,,38.990310,-76.940988,-8.513000,,,
2026-09-11T19:06:15.727,8.051627,1.567473,8.973821,14.513640,0.000000,0.651100,-0.224002,1.567461,0.007771,0.016361,0.239763,8.522475,2.554092,-0.017505,0.124397,0.017844,1.766178,0.679012,12.615373,5.457919,-0.645676,1,0,,38.990310,-76.940988,-8.513000,,,
2026-09-11T19:06:15.761,8.085036,1.519497,9.024620,14.069416,0.000000,0.440986,-0.151716,1.519492,-0.008267,-0.017404,0.239746,8.572569,2.566329,0.015427,0.060538,-0.015920,-0.508965,2.160601,8.512172,5.389443,-0.509029,1,0,,38.990310,-76.940988,-8.513000,,,
2026-09-11T19:06:15.795,8.118444,1.461503,9.073195,13.532439,0.000000,0.202034,-0.069507,1.461502,0.007645,0.016096,0.239724,8.620942,2.578143,-0.021835,0.084963,0.017579,-0.329994,2.281027,10.777410,5.323300,-0.369338,1,0,,38.990310,-76.940988,-8.513000,,,
2026-09-11T19:06:15.828,8.151861,1.403251,9.119755,12.993061,0.000000,-0.392601,0.135069,1.403247,0.011025,0.023210,0.240381,8.667360,2.589826,-0.002859,0.099365,0.024694,-1.089029,-0.626547,10.115265,5.202174,-0.419866,1,0,,38.990310,-76.940988,-8.513000,,,
2026-09-11T19:06:15.862,8.185272,1.354374,9.165559,12.540504,0.000000,-1.319573,0.453981,1.354332,0.023406,0.049275,0.241592,8.711958,2.601378,0.014108,0.099420,0.050759,3.918149,-7.041665,8.062243,5.405350,-0.887007,1,1,8.164691,38.990315,-76.941005,-8.408000,-8.473259,2.888474,2.825509
2026-09-11T19:06:15.894,8.218673,1.354194,9.210191,12.538837,0.000000,-3.256600,1.120390,1.353935,0.002749,0.005787,0.242511,8.755765,2.612643,0.006078,0.130625,0.007271,-1.764118,2.483534,2.939445,5.232587,-0.729058,1,0,,38.990315,-76.941005,-8.408000,,,
2026-09-11T19:06:15.928,8.252076,1.335293,9.254386,12.363820,0.000000,-3.500359,1.204252,1.334998,0.027158,0.057174,0.243563,8.799234,2.623935,0.286115,0.146337,0.058658,0.375301,-4.689442,5.938907,5.194718,-1.041156,1,0,,38.990315,-76.941005,-8.408000,,,
2026-09-11T19:06:15.962,8.285483,1.335538,9.299314,12.366091,0.000000,-4.971840,1.710495,1.334943,0.025910,0.054547,0.245429,8.842290,2.635591,0.240836,0.050397,0.056030,0.996650,0.280274,9.977678,5.188919,-1.028179,1,0,,38.990315,-76.941005,-8.408000,,,
2026-09-11T19:06:15.995,8.318892,1.336001,9.344627,12.370376,0.000000,-5.800621,1.995627,1.335190,0.036544,0.076935,0.247625,8.885290,2.647488,0.057417,0.014399,0.078419,1.073240,-2.588563,11.661676,5.176871,-1.202839,1,0,,38.990315,-76.941005,-8.408000,,,
2026-09-11T19:06:16.028,8.352297,1.404231,9.391801,13.002143,0.000000,-5.198433,1.788452,1.403547,0.020500,0.043157,0.249631,8.929393,2.659669,0.210312,-0.005825,0.044641,2.387135,-3.971497,11.461424,5.241678,-1.462260,1,0,,38.990315,-76.941005,-8.408000,,,
2026-09-11T19:06:16.062,8.385705,1.472602,9.440733,13.635207,0.000000,-4.598305,1.581986,1.472041,0.015097,0.031784,0.250883,8.975783,2.672141,0.079279,-0.051056,0.033268,1.460504,-2.052630,7.770495,5.237908,-1.593829,1,0,,38.990315,-76.941005,-8.408000,,,
2026-09-11T19:06:16.095,8.419104,1.502045,9.491009,13.907827,0.000000,-3.027947,1.041725,1.501797,0.013183,0.027753,0.251877,9.023767,2.684952,-0.014275,-0.092750,0.029236,0.791299,2.185510,9.952377,5.182414,-1.449518,1,0,,38.990315,-76.941005,-8.408000,,,
2026-09-11T19:06:16.129,8.452510,1.512205,9.541375,14.001902,0.000000,-1.676628,0.576822,1.512129,0.009463,0.019922,0.252674,9.072420,2.697884,-0.131217,-0.167377,0.021406,1.510224,-1.420689,10.153021,5.168584,-1.539270,1,0,,38.990315,-76.941005,-8.408000,,,
2026-09-11T19:06:16.162,8.485932,1.542011,9.592649,14.277877,0.000000,-1.542046,0.530520,1.541945,0.001180,0.002485,0.253048,9.121790,2.710824,-0.137176,0.004053,0.003968,2.318586,-5.376496,14.828342,5.204368,-1.882358,1,0,,38.990315,-76.941005,-8.408000,,,
2026-09-11T19:06:16.195,8.519341,1.552098,9.644428,14.371275,0.000000,-1.575691,0.542096,1.552028,-0.013979,-0.029430,0.252598,9.171883,2.723545,-0.251198,0.042166,-0.027947,0.872596,-3.967182,8.756358,5.141171,-2.127160,1,0,,38.990315,-76.941005,-8.408000,,,
2026-09-11T19:06:16.229,8.552744,1.601131,9.697663,14.825287,0.000000,-1.409523,0.484928,1.601074,-0.016229,-0.034167,0.251536,9.223007,2.736190,-0.136840,-0.051989,-0.032683,1.986141,-1.291830,6.402272,5.144856,-2.195594,1,0,,38.990315,-76.941005,-8.408000,,,
2026-09-11T19:06:16.262,8.586152,1.640194,9.752684,15.186982,0.000000,-1.204903,0.414531,1.640151,-0.009805,-0.020643,0.250620,9.275558,2.749220,-0.064271,-0.029510,-0.019159,1.909649,1.060001,9.864607,5.143721,-2.112486,1,0,,38.990315,-76.941005,-8.408000,,,
2026-09-11T19:06:16.295,8.619561,1.630661,9.807542,15.098716,0.000000,-1.023628,0.352166,1.630631,-0.003171,-0.006676,0.250164,9.328546,2.762548,-0.085273,0.012227,-0.005193,-0.545838,2.202966,9.540400,4.986865,-1.957843,1,0,,38.990315,-76.941005,-8.408000,,,
2026-09-11T19:06:16.329,8.652976,1.640043,9.862444,15.185588,0.000000,-0.772316,0.265705,1.640026,-0.020409,-0.042966,0.249334,9.381591,2.775672,-0.051254,0.085966,-0.041483,-1.215240,-0.841509,5.155748,4.788401,-1.998015,1,0,,38.990315,-76.941005,-8.408000,,,
2026-09-11T19:06:16.362,8.686384,1.649982,9.917959,15.277613,0.000000,-0.825874,0.284131,1.649962,-0.000919,-0.001935,0.248584,9.434941,2.788868,0.057547,-0.053092,-0.000452,-1.323015,1.877581,9.561778,4.584596,-1.866196,1,0,,38.990315,-76.941005,-8.408000,,,
2026-09-11T19:06:16.395,8.719783,1.679255,9.973469,15.548658,0.000000,-0.624687,0.214915,1.679243,-0.013223,-0.027838,0.248087,9.488889,2.802304,0.131535,-0.015227,-0.026354,2.941407,-2.982693,8.542965,4.662774,-2.047367,1,0,,38.990315,-76.941005,-8.408000,,,
2026-09-11T19:06:16.429,8.753187,1.679717,10.030353,15.552934,0.000000,-2.686684,0.924318,1.679498,-0.043647,-0.091887,0.246088,9.543515,2.815103,0.020495,-0.022367,-0.090404,3.054085,4.303256,-2.990734,4.751196,-1.748354,1,0,,38.990315,-76.941005,-8.408000,,,
2026-09-11T19:06:16.462,8.786626,1.728510,10.088547,16.004726,0.000000,-0.218880,0.075303,1.728509,0.010542,0.022194,0.244922,9.598922,2.828415,0.105229,-0.123357,0.023677,0.150924,-0.900054,5.344428,4.657322,-1.801713,1,0,,38.990315,-76.941005,-8.408000,,,
2026-09-11T19:06:16.496,8.820035,1.777575,10.148686,16.459031,0.000000,5.248878,-1.805807,1.776693,-0.035434,-0.074598,0.244047,9.655834,2.842184,-0.048311,-0.166858,-0.073114,-0.345292,-2.505011,13.660075,4.543617,-1.947200,1,0,,38.990315,-76.941005,-8.408000,,,
2026-09-11T19:06:16.530,8.853453,1.797357,10.209313,16.642199,0.000000,9.998405,-3.439818,1.794119,-0.058052,-0.122215,0.240758,9.714129,2.854988,-0.123453,-0.099577,-0.120732,1.566907,-0.589870,8.984559,4.561097,-1.961583,1,0,,38.990315,-76.941005,-8.408000,,,
2026-09-11T19:06:16.562,8.886858,1.856276,10.271119,17.187738,0.000000,12.644738,-4.350254,1.850928,-0.085142,-0.179246,0.235723,9.773854,2.867029,-0.118501,-0.178831,-0.177762,2.982202,4.953731,8.402142,4.675937,-1.609972,1,0,,38.990315,-76.941005,-8.408000,,,
2026-09-11T19:06:16.596,8.920259,1.895825,10.334711,17.553939,0.000000,13.515405,-4.649795,1.889586,-0.080073,-0.168575,0.229914,9.835273,2.878755,0.010786,-0.088936,-0.167091,1.655363,-0.449831,8.726742,4.711343,-1.612604,1,0,,38.990315,-76.941005,-8.408000,,,
2026-09-11T19:06:16.629,8.953665,1.905988,10.397884,17.648033,0.000000,12.449731,-4.283164,1.900664,-0.079163,-0.166658,0.224315,9.897556,2.890419,0.096474,-0.093826,-0.165174,0.895053,-0.483272,6.956347,4.705697,-1.617486,1,0,,38.990315,-76.941005,-8.408000,,,
2026-09-11T19:06:16.663,8.987086,1.896441,10.462086,17.559642,0.000000,11.160211,-3.839522,1.892185,-0.069615,-0.146558,0.219081,9.959931,2.901930,0.101150,-0.163433,-0.145075,0.173872,1.088244,9.627973,4.668865,-1.523181,1,0,,38.990315,-76.941005,-8.408000,,,
2026-09-11T19:06:16.696,9.020496,1.886459,10.524845,17.467217,0.000000,10.049218,-3.457300,1.883026,-0.059736,-0.125761,0.214532,10.021985,2.913386,0.120300,-0.151130,-0.124277,0.462285,0.513868,6.247032,4.669364,-1.469724,1,0,,38.990315,-76.941005,-8.408000,,,
2026-09-11T19:06:16.729,9.053900,1.837844,10.585747,17.017076,0.000000,9.456643,-3.253432,1.834882,-0.053087,-0.111762,0.210565,10.083081,2.924645,0.112198,-0.093705,-0.110278,0.120033,1.813250,8.773225,4.660047,-1.334889,1,0,,38.990315,-76.941005,-8.408000,,,
2026-09-11T19:06:16.763,9.087309,1.799234,10.645603,16.659575,0.000000,8.750772,-3.010587,1.796751,-0.036492,-0.076826,0.207415,10.142736,2.935769,0.098353,-0.077262,-0.075343,0.269879,0.771587,10.783589,4.666660,-1.273240,1,0,,38.990315,-76.941005,-8.408000,,,
2026-09-11T19:06:16.796,9.120711,1.780250,10.704823,16.483795,0.000000,7.718057,-2.655295,1.778338,-0.025914,-0.054556,0.205220,10.201391,2.946980,0.115090,-0.097982,-0.053072,-0.920452,-1.019695,9.190400,4.604431,-1.330779,1,0,,38.990315,-76.941005,-8.408000,,,
2026-09-11T19:06:16.830,9.154126,1.712991,10.762145,15.861024,0.000000,7.669992,-2.638759,1.711174,-0.021777,-0.045846,0.203543,10.258641,2.958034,-0.058914,-0.083176,-0.044362,1.334979,0.487489,9.273659,4.702802,-1.291398,1,0,,38.990315,-76.941005,-8.408000,,,
2026-09-11T19:06:16.863,9.187544,1.674484,10.818472,15.504477,0.000000,7.591714,-2.611828,1.672744,-0.016091,-0.033875,0.202211,10.314150,2.968807,-0.196104,-0.042902,-0.032392,-0.444535,2.203456,10.239222,4.692218,-1.142840,1,1,9.180816,38.990320,-76.941021,-8.328000,-9.901169,3.515242,3.154297
2026-09-11T19:06:16.896,9.220950,1.616808,10.872997,14.970445,0.000000,7.626733,-2.623876,1.615113,-0.010273,-0.021628,0.201284,10.368042,2.979381,-0.157148,-0.101054,-0.020144,0.022359,1.609271,9.042614,4.711178,-1.035813,1,0,,38.990320,-76.941021,-8.328000,,,
2026-09-11T19:06:16.930,9.254355,1.462118,10.920470,13.538130,0.000000,6.857003,-2.359061,1.460879,-0.012805,-0.026959,0.200472,10.418462,2.989255,-0.111569,-0.019926,-0.025475,-2.236210,-1.013910,6.275177,4.579963,-1.099338,1,0,,38.990320,-76.941021,-8.328000,,,
2026-09-11T19:06:16.963,9.287763,1.385064,10.966569,12.824670,0.000000,3.979959,-1.369252,1.384669,-0.002607,-0.005487,0.199930,10.465096,2.998456,-0.169456,0.010440,-0.004004,-0.761388,2.249057,12.553787,4.540277,-0.953173,1,0,,38.990320,-76.941021,-8.328000,,,
2026-09-11T19:06:16.997,9.321165,1.366335,11.012825,12.651251,0.000000,-1.757651,0.604696,1.366259,0.009361,0.019707,0.200168,10.510101,3.007696,-0.055334,0.013427,0.021190,0.433258,3.276304,7.197101,4.569622,-0.744455,1,0,,38.990320,-76.941021,-8.328000,,,
2026-09-11T19:06:17.031,9.354579,1.357232,11.057564,12.566961,0.000000,-5.234137,1.800735,1.356561,0.026097,0.054941,0.201415,10.554559,3.017349,0.038098,-0.005769,0.056425,1.360084,0.645180,9.924428,4.651861,-0.711265,1,0,,38.990320,-76.941021,-8.328000,,,
2026-09-11T19:06:17.064,9.388005,1.309240,11.100778,12.122589,0.000000,-8.691397,2.990160,1.307457,0.039280,0.082695,0.203715,10.597952,3.027376,0.054574,0.008483,0.084179,-0.406486,2.650934,11.445145,4.607000,-0.550800,1,0,,38.990320,-76.941021,-8.328000,,,
2026-09-11T19:06:17.097,9.421405,1.251305,11.142309,11.586159,0.000000,-12.541421,4.314709,1.247759,0.039999,0.084209,0.206503,10.639460,3.037362,0.037829,-0.015124,0.085693,0.460716,1.091872,8.581505,4.605272,-0.492856,1,0,,38.990320,-76.941021,-8.328000,,,
2026-09-11T19:06:17.130,9.454809,1.241867,11.184070,11.498772,0.000000,-16.278833,5.600516,1.235939,0.046227,0.097321,0.209534,10.679751,3.047338,0.026556,0.026709,0.098804,1.611625,-0.123760,9.981405,4.664056,-0.515151,1,0,,38.990320,-76.941021,-8.328000,,,
2026-09-11T19:06:17.164,9.488216,1.271037,11.226529,11.768865,0.000000,-16.139444,5.552561,1.265073,0.040930,0.086169,0.212599,10.720294,3.057514,-0.041962,0.013848,0.087653,1.569554,0.498668,10.917547,4.698836,-0.496213,1,0,,38.990320,-76.941021,-8.328000,,,
2026-09-11T19:06:17.197,9.521623,1.271010,11.269291,11.768611,0.000000,-14.503168,4.989622,1.266193,0.044896,0.094518,0.215618,10.761306,3.067899,-0.095816,-0.018517,0.096002,1.685077,-0.286648,8.238567,4.721966,-0.528970,1,0,,38.990320,-76.941021,-8.328000,,,
2026-09-11T19:06:17.231,9.555040,1.300257,11.312661,12.039417,0.000000,-10.816568,3.721296,1.297515,0.025255,0.053168,0.218085,10.802885,3.078260,-0.131173,-0.011788,0.054651,0.992727,-0.539464,7.375385,4.687950,-0.574450,1,0,,38.990320,-76.941021,-8.328000,,,
2026-09-11T19:06:17.264,9.588447,1.320319,11.356528,12.225178,0.000000,-4.973901,1.711204,1.319730,0.015592,0.032826,0.219522,10.845413,3.088416,-0.120072,0.024416,0.034310,1.983787,0.288512,9.489993,4.711253,-0.564199,1,0,,38.990320,-76.941021,-8.328000,,,
2026-09-11T19:06:17.297,9.621848,1.349665,11.400838,12.496901,0.000000,-1.563332,0.537844,1.349606,0.000652,0.001372,0.220093,10.888860,3.098401,-0.050917,0.003753,0.002856,2.536686,-0.690192,7.627024,4.762720,-0.614673,1,0,,38.990320,-76.941021,-8.328000,,,
2026-09-11T19:06:17.332,9.655251,1.408177,11.448067,13.038680,0.000000,0.581062,-0.199907,1.408169,-0.011937,-0.025130,0.219696,10.933851,3.108264,0.031595,-0.063006,-0.023647,3.056831,-1.952896,8.196594,4.836788,-0.743844,1,0,,38.990320,-76.941021,-8.328000,,,
2026-09-11T19:06:17.365,9.688662,1.456977,11.497269,13.490523,0.000000,3.459480,-1.190188,1.456662,-0.026421,-0.055623,0.218347,10.980705,3.118036,0.035597,-0.029027,-0.054139,3.134500,-0.346763,7.240740,4.908092,-0.764766,1,0,,38.990320,-76.941021,-8.328000,,,
2026-09-11T19:06:17.398,9.722073,1.535049,11.548809,14.213415,0.000000,8.507011,-2.926724,1.533047,-0.027730,-0.058379,0.216442,11.029669,3.127924,0.064945,-0.014911,-0.056895,3.875490,0.229770,15.417427,5.026028,-0.747615,1,0,,38.990320,-76.941021,-8.328000,,,
2026-09-11T19:06:17.431,9.755474,1.564474,11.600613,14.485874,0.000000,8.043526,-2.767268,1.562650,-0.034931,-0.073538,0.214239,11.080399,3.137948,0.082810,0.021572,-0.072055,4.023374,1.382051,10.599322,5.152087,-0.654499,1,0,,38.990320,-76.941021,-8.328000,,,
2026-09-11T19:06:17.464,9.788880,1.594022,11.654205,14.759467,0.000000,8.171928,-2.811443,1.592104,-0.041983,-0.088385,0.211535,11.132175,3.147825,0.029160,0.044261,-0.086901,2.788325,-0.803459,8.167567,5.199516,-0.702085,1,0,,38.990320,-76.941021,-8.328000,,,
2026-09-11T19:06:17.498,9.822280,1.652784,11.709467,15.303557,0.000000,8.329857,-2.865776,1.650717,-0.046446,-0.097780,0.208426,11.185448,3.157667,0.006711,0.010220,-0.096297,2.496969,0.535247,8.936996,5.232631,-0.661230,1,0,,38.990320,-76.941021,-8.328000,,,
2026-09-11T19:06:17.532,9.855682,1.682311,11.765550,15.576949,0.000000,9.230736,-3.175712,1.679727,-0.061285,-0.129022,0.204638,11.240256,3.167311,-0.070009,0.048850,-0.127538,2.030075,2.306426,9.046439,5.241966,-0.502703,1,0,,38.990320,-76.941021,-8.328000,,,
2026-09-11T19:06:17.565,9.889105,1.712136,11.822754,15.853109,0.000000,11.775445,-4.051185,1.707858,-0.071897,-0.151361,0.199952,11.296161,3.176504,-0.049941,0.005579,-0.149878,2.055082,0.637334,11.188701,5.264758,-0.451137,1,0,,38.990320,-76.941021,-8.328000,,,
2026-09-11T19:06:17.598,9.922511,1.741389,11.880685,16.123972,0.000000,13.768777,-4.736965,1.735441,-0.076905,-0.161905,0.194720,11.353046,3.185342,-0.043674,0.027898,-0.160421,1.659383,-1.630061,10.217843,5.273483,-0.545369,1,0,,38.990320,-76.941021,-8.328000,,,
2026-09-11T19:06:17.631,9.955910,1.751015,11.939302,16.213100,0.000000,14.219903,-4.892169,1.744636,-0.087920,-0.185095,0.188925,11.410619,3.193719,0.008566,0.028370,-0.183611,1.961526,0.261053,8.492657,5.316245,-0.513536,1,0,,38.990320,-76.941021,-8.328000,,,
2026-09-11T19:06:17.665,9.989319,1.770441,11.998484,16.392968,0.000000,13.001794,-4.473094,1.765048,-0.081344,-0.171251,0.182973,11.468758,3.201778,-0.030231,-0.030514,-0.169768,1.188958,2.101467,11.209295,5.323113,-0.364334,1,0,,38.990320,-76.941021,-8.328000,,,
2026-09-11T19:06:17.699,10.022729,1.780694,12.057935,16.487904,0.000000,9.644098,-3.317923,1.777709,-0.061003,-0.128428,0.177966,11.527406,3.210061,-0.019241,-0.051465,-0.126944,2.026054,1.897881,9.505292,5.394299,-0.234729,1,0,,38.990320,-76.941021,-8.328000,,,
2026-09-11T19:06:17.732,10.056134,1.751971,12.117005,16.221953,0.000000,8.776178,-3.019327,1.749539,-0.032427,-0.068267,0.174681,11.585682,3.218860,0.025306,0.000730,-0.066783,0.486900,0.214471,6.895938,5.374111,-0.222502,1,0,,38.990320,-76.941021,-8.328000,,,
2026-09-11T19:06:17.765,10.089540,1.752397,12.175256,16.225894,0.000000,5.448694,-1.874551,1.751459,-0.014552,-0.030636,0.173029,11.643413,3.228202,-0.049298,0.050568,-0.029153,0.129154,-2.306916,10.988744,5.340465,-0.377750,1,0,,38.990320,-76.941021,-8.328000,,,
2026-09-11T19:06:17.798,10.122940,1.694727,12.231695,15.691916,0.000000,2.701425,-0.929389,1.694504,0.017237,0.036288,0.173124,11.700093,3.238157,-0.040043,-0.015941,0.037772,0.357354,2.658191,7.480807,5.330102,-0.217606,1,0,,38.990320,-76.941021,-8.328000,,,
2026-09-11T19:06:17.833,10.156339,1.656557,12.286938,15.338488,0.000000,-1.329184,0.457288,1.656504,0.013146,0.027676,0.174192,11.755123,3.248326,-0.111514,0.034896,0.029159,-0.526813,4.565486,6.857398,5.270168,0.065129,1,1,10.165919,38.990325,-76.941037,-8.214000,-11.273767,4.090120,3.154297
2026-09-11T19:06:17.866,10.189758,1.617910,12.341306,14.980644,0.000000,-4.663535,1.604427,1.617275,0.034027,0.071636,0.175851,11.808855,3.258627,-0.117839,0.030769,0.073119,0.516810,-5.593223,9.863529,5.284213,-0.317010,1,0,,38.990325,-76.941037,-8.214000,,,
2026-09-11T19:06:17.899,10.223180,1.560476,12.393121,14.448850,0.000000,-8.252631,2.839208,1.558560,0.059882,0.126068,0.179155,11.860814,3.269541,-0.066354,0.047609,0.127551,-0.760800,1.860125,8.011935,5.218579,-0.217815,1,0,,38.990325,-76.941037,-8.214000,,,
2026-09-11T19:06:17.933,10.256612,1.502575,12.444226,13.912736,0.000000,-17.297128,5.950847,1.494478,0.075296,0.158518,0.183912,11.910602,3.280974,0.005044,0.023381,0.160001,-1.730187,2.604156,12.178094,5.092586,-0.074138,1,0,,38.990325,-76.941037,-8.214000,,,
2026-09-11T19:06:17.966,10.290033,1.474128,12.493588,13.649333,0.000000,-17.993387,6.190385,1.465532,0.093108,0.196017,0.189836,11.958680,3.292927,0.080588,0.007325,0.197500,-0.626253,1.688803,8.533943,5.037619,0.005408,1,0,,38.990325,-76.941037,-8.214000,,,
2026-09-11T19:06:18.000,10.323456,1.445322,12.542222,13.382612,0.000000,-20.696710,7.120428,1.434175,0.107691,0.226718,0.196901,12.005590,3.305530,0.087063,-0.015263,0.228202,0.159848,-1.365870,10.720336,5.029546,-0.116070,1,0,,38.990325,-76.941037,-8.214000,,,
2026-09-11T19:06:18.033,10.356874,1.416399,12.590097,13.114810,0.000000,-20.887598,7.186100,1.405274,0.110992,0.233667,0.204594,12.051353,3.318570,0.083744,-0.000735,0.235150,-0.409722,-1.206316,9.877454,4.976461,-0.226065,1,0,,38.990325,-76.941037,-8.214000,,,
2026-09-11T19:06:18.066,10.390305,1.377335,12.636203,12.753103,0.000000,-19.918054,6.852542,1.367496,0.093369,0.196565,0.211785,12.095995,3.331489,0.062118,-0.028331,0.198049,0.491607,1.541703,10.053287,4.973190,-0.153143,1,0,,38.990325,-76.941037,-8.214000,,,
2026-09-11T19:06:18.100,10.423720,1.348072,12.681219,12.482150,0.000000,-18.599008,6.398741,1.339674,0.078768,0.165828,0.217840,12.139574,3.343939,0.034416,0.016335,0.167311,0.270075,-1.803051,8.301820,4.945856,-0.294452,1,0,,38.990325,-76.941037,-8.214000,,,
2026-09-11T19:06:18.133,10.457139,1.329064,12.725867,12.306147,0.000000,-18.122476,6.234797,1.321203,0.076428,0.160900,0.223299,12.182391,3.356197,-0.000215,-0.011885,0.162384,0.626743,-2.123532,11.212139,4.930276,-0.454324,1,0,,38.990325,-76.941037,-8.214000,,,
2026-09-11T19:06:18.166,10.490569,1.319798,12.770298,12.220353,0.000000,-17.632211,6.066128,1.312408,0.067519,0.142145,0.228365,12.224756,3.368398,-0.009151,0.003420,0.143628,1.142181,-0.021869,9.613851,4.933813,-0.474757,1,0,,38.990325,-76.941037,-8.214000,,,
2026-09-11T19:06:18.200,10.523993,1.329804,12.814677,12.312995,0.000000,-17.437891,5.999274,1.322520,0.058294,0.122724,0.232791,12.267144,3.380509,0.026236,0.031647,0.124208,1.343119,0.714709,8.098528,4.937912,-0.445725,1,0,,38.990325,-76.941037,-8.214000,,,
2026-09-11T19:06:18.233,10.557408,1.339712,12.859280,12.404742,0.000000,-17.290262,5.948485,1.332498,0.060502,0.127372,0.236970,12.309824,3.392763,-0.042163,-0.018035,0.128855,1.263783,-2.098525,8.307998,4.929863,-0.599510,1,0,,38.990325,-76.941037,-8.214000,,,
2026-09-11T19:06:18.267,10.590824,1.378980,12.905225,12.768337,0.000000,-17.202371,5.918247,1.371630,0.054276,0.114264,0.241007,12.353265,3.405323,-0.011162,0.012493,0.115748,1.713516,0.071687,10.615601,4.944204,-0.610345,1,0,,38.990325,-76.941037,-8.214000,,,
2026-09-11T19:06:18.301,10.624243,1.408241,12.952159,13.039273,0.000000,-16.778024,5.772256,1.401101,0.058853,0.123902,0.244987,12.397780,3.418306,0.016788,-0.020802,0.125386,2.158836,0.187993,8.749787,4.979235,-0.614626,1,0,,38.990325,-76.941037,-8.214000,,,
2026-09-11T19:06:18.334,10.657661,1.428120,12.999874,13.223334,0.000000,-15.323022,5.271682,1.422079,0.051773,0.108995,0.248878,12.443070,3.431630,0.020042,-0.011375,0.110478,2.323588,0.571924,10.284038,5.017198,-0.592816,1,0,,38.990325,-76.941037,-8.214000,,,
2026-09-11T19:06:18.367,10.691077,1.477016,13.049577,13.676075,0.000000,-12.001031,4.128795,1.473183,0.039926,0.084054,0.252104,12.489555,3.445107,0.027745,-0.029422,0.085538,2.801858,-2.621318,7.417652,5.080432,-0.775825,1,0,,38.990325,-76.941037,-8.214000,,,
2026-09-11T19:06:18.401,10.724497,1.506685,13.100576,13.950788,0.000000,-7.226785,2.486279,1.505267,0.025308,0.053279,0.254398,12.537463,3.458632,-0.017458,-0.032554,0.054763,-0.794731,-2.337513,2.404394,4.906736,-0.935636,1,0,,38.990325,-76.941037,-8.214000,,,
2026-09-11T19:06:18.434,10.757915,1.575363,13.153468,14.586698,0.000000,-1.534493,0.527922,1.575297,0.004723,0.009943,0.255455,12.587146,3.472099,-0.000001,-0.054876,0.011426,2.148833,-1.943776,8.625635,4.926599,-1.064019,1,0,,38.990325,-76.941037,-8.214000,,,
2026-09-11T19:06:18.468,10.791332,1.604809,13.206792,14.859340,0.000000,3.502052,-1.204834,1.604454,-0.027224,-0.057313,0.254663,12.638652,3.485140,-0.026699,0.011502,-0.055830,2.555907,-0.379713,12.426791,4.975720,-1.082823,1,0,,38.990325,-76.941037,-8.214000,,,
2026-09-11T19:06:18.501,10.824755,1.624622,13.261190,15.042798,0.000000,9.723060,-3.345090,1.621854,-0.041963,-0.088343,0.252229,12.691135,3.497539,-0.023705,-0.008002,-0.086859,1.643104,0.327738,10.715825,4.971214,-1.052324,1,0,,38.990325,-76.941037,-8.214000,,,
2026-09-11T19:06:18.534,10.858174,1.653881,13.316382,15.313717,0.000000,8.857200,-3.047202,1.651543,-0.050511,-0.106338,0.248976,12.744507,3.509605,0.031414,-0.006295,-0.104854,1.991240,1.956525,12.837199,4.996224,-0.914687,1,0,,38.990325,-76.941037,-8.214000,,,
2026-09-11T19:06:18.567,10.891605,1.683069,13.372613,15.583973,0.000000,9.164818,-3.153034,1.680521,-0.051752,-0.108951,0.245377,12.798930,3.521574,0.042731,0.000707,-0.107467,1.719988,-1.371362,9.922369,5.013067,-0.993438,1,0,,38.990325,-76.941037,-8.214000,,,
2026-09-11T19:06:18.602,10.925021,1.702952,13.430091,15.768072,0.000000,9.856270,-3.390918,1.699970,-0.060295,-0.126937,0.241436,12.854197,3.533369,0.054285,-0.036423,-0.125454,1.826194,0.601344,9.701425,5.048073,-0.941542,1,0,,38.990325,-76.941037,-8.214000,,,
2026-09-11T19:06:18.634,10.958439,1.722831,13.487104,15.952136,0.000000,12.384500,-4.260722,1.718069,-0.068608,-0.144439,0.236902,12.910192,3.544805,0.026131,0.044149,-0.142955,1.160813,-1.239659,9.722411,5.050495,-1.007234,1,0,,38.990325,-76.941037,-8.214000,,,
2026-09-11T19:06:18.668,10.991857,1.713393,13.544270,15.864750,0.000000,16.066293,-5.527394,1.705426,-0.089952,-0.189373,0.231324,12.966449,3.555498,-0.031301,0.004173,-0.187889,0.653417,0.078747,8.874234,5.033816,-0.982060,1,0,,38.990325,-76.941037,-8.214000,,,
2026-09-11T19:06:18.702,11.025276,1.733036,13.602518,16.046633,0.000000,21.395349,-7.360785,1.718755,-0.105331,-0.221750,0.224455,13.022921,3.565245,-0.056635,-0.110844,-0.220266,0.467777,-0.729419,8.040178,5.020977,-1.005689,1,0,,38.990325,-76.941037,-8.214000,,,
2026-09-11T19:06:18.735,11.058700,1.694680,13.658655,15.691481,0.000000,22.237863,-7.650641,1.679594,-0.109872,-0.231308,0.216883,13.079124,3.574169,-0.054160,0.042385,-0.229825,0.841705,-0.120818,11.269704,5.043274,-0.989200,1,0,,38.990325,-76.941037,-8.214000,,,
2026-09-11T19:06:18.768,11.092130,1.685559,13.715014,15.607027,0.000000,22.304467,-7.673555,1.670465,-0.113215,-0.238348,0.209033,13.134642,3.582360,-0.100376,-0.034815,-0.236865,1.221026,0.564177,11.305302,5.095796,-0.927933,1,0,,38.990325,-76.941037,-8.214000,,,
2026-09-11T19:06:18.802,11.125552,1.657010,13.770392,15.342689,0.000000,21.359643,-7.348501,1.643401,-0.082914,-0.174556,0.202133,13.189525,3.590458,-0.026930,-0.040116,-0.173072,0.760113,1.990456,9.348582,5.125069,-0.782268,1,0,,38.990325,-76.941037,-8.214000,,,
2026-09-11T19:06:18.836,11.158978,1.580182,13.823137,14.631318,0.000000,18.349389,-6.312863,1.570601,-0.075722,-0.159414,0.196551,13.242700,3.598500,0.011179,0.058994,-0.157931,3.604630,0.870438,8.333691,5.345848,-0.713044,1,1,11.167484,38.990330,-76.941054,-8.097000,-12.675029,4.610698,3.154297
2026-09-11T19:06:18.869,11.192397,1.542390,13.873940,14.281389,0.000000,10.840234,-3.729438,1.539124,-0.036264,-0.076345,0.192612,13.294046,3.606712,-0.055353,-0.024223,-0.074862,0.032068,-2.521094,7.931913,5.333909,-0.872638,1,0,,38.990330,-76.941054,-8.097000,,,
2026-09-11T19:06:18.902,11.225815,1.484614,13.923687,13.746424,0.000000,8.641595,-2.973026,1.482616,-0.023219,-0.048882,0.190519,13.343801,3.615350,-0.041193,0.002949,-0.047399,-0.756093,-0.365298,11.364437,5.271225,-0.893890,1,0,,38.990330,-76.941054,-8.097000,,,
2026-09-11T19:06:18.935,11.259230,1.426877,13.970669,13.211827,0.000000,4.627466,-1.592018,1.426326,0.000591,0.001243,0.189723,13.391599,3.624164,-0.040838,-0.007801,0.002727,-1.350376,-1.135022,10.293845,5.169501,-0.969506,1,0,,38.990330,-76.941054,-8.097000,,,
2026-09-11T19:06:18.969,11.292651,1.339435,14.014968,12.402176,0.000000,-1.991111,0.685015,1.339339,0.015369,0.032357,0.190285,13.436932,3.633154,-0.061308,0.016216,0.033840,-0.487979,-0.070706,6.085026,5.119730,-0.978119,1,0,,38.990330,-76.941054,-8.097000,,,
2026-09-11T19:06:19.002,11.326077,1.309925,14.059173,12.128937,0.000000,-6.986457,2.403597,1.308773,0.041037,0.086394,0.192269,13.480202,3.642493,-0.013524,-0.038090,0.087877,0.010395,-0.659693,8.589056,5.094740,-1.029266,1,0,,38.990330,-76.941054,-8.097000,,,
2026-09-11T19:06:19.036,11.359502,1.300299,14.102294,12.039808,0.000000,-10.600272,3.646883,1.297666,0.047776,0.100581,0.195394,13.522662,3.652340,-0.078149,-0.059719,0.102064,0.892307,-1.601230,10.164789,5.119830,-1.141906,1,0,,38.990330,-76.941054,-8.097000,,,
2026-09-11T19:06:19.069,11.392919,1.261652,14.143808,11.681960,0.000000,-18.025659,6.201488,1.254269,0.061604,0.129693,0.199242,13.564115,3.662489,-0.060846,0.011982,0.131176,-0.499551,0.250560,9.501859,5.043530,-1.135544,1,0,,38.990330,-76.941054,-8.097000,,,
2026-09-11T19:06:19.103,11.426344,1.252289,14.186005,11.595269,0.000000,-17.532648,6.031874,1.245356,0.065911,0.138761,0.203728,13.604618,3.672937,-0.032270,0.023829,0.140244,0.986157,-0.403544,9.001524,5.053411,-1.172236,1,0,,38.990330,-76.941054,-8.097000,,,
2026-09-11T19:06:19.136,11.459778,1.262299,14.227876,11.687949,0.000000,-18.372415,6.320785,1.254625,0.078722,0.165731,0.208818,13.645028,3.683864,-0.038485,0.027700,0.167214,1.196411,-0.827387,11.320503,5.064484,-1.238239,1,0,,38.990330,-76.941054,-8.097000,,,
2026-09-11T19:06:19.170,11.493200,1.252777,14.269159,11.599791,0.000000,-19.805444,6.813800,1.243929,0.086573,0.182259,0.214634,13.685268,3.695338,0.043277,-0.001588,0.183742,0.727261,-0.574179,10.407406,5.029576,-1.288319,1,0,,38.990330,-76.941054,-8.097000,,,
2026-09-11T19:06:19.203,11.526749,1.282139,14.312497,11.871661,0.000000,-21.498025,7.396110,1.271472,0.090338,0.190186,0.220881,13.725824,3.707353,0.057447,0.019446,0.191670,1.736169,-0.516712,9.728687,5.046175,-1.335280,1,0,,38.990330,-76.941054,-8.097000,,,
2026-09-11T19:06:19.236,11.560173,1.311400,14.356504,12.142597,0.000000,-21.971124,7.558873,1.300005,0.088775,0.186894,0.227183,13.767059,3.719820,0.067018,0.035759,0.188378,2.076754,0.798850,10.404464,5.075115,-1.296490,1,0,,38.990330,-76.941054,-8.097000,,,
2026-09-11T19:06:19.270,11.593597,1.360291,14.401979,12.595284,0.000000,-20.817560,7.162005,1.349677,0.085791,0.180613,0.233325,13.809506,3.732769,0.015603,-0.027024,0.182096,2.497852,1.856889,10.503020,5.127160,-1.189716,1,0,,38.990330,-76.941054,-8.097000,,,
2026-09-11T19:06:19.304,11.627019,1.389898,14.448650,12.869424,0.000000,-18.544763,6.380079,1.381290,0.086603,0.182321,0.239390,13.853199,3.746257,-0.019964,0.013167,0.183805,2.615336,-1.314778,8.455196,5.180820,-1.289881,1,0,,38.990330,-76.941054,-8.097000,,,
2026-09-11T19:06:19.336,11.660438,1.419525,14.496851,13.143748,0.000000,-17.652124,6.072978,1.411558,0.070020,0.147410,0.244899,13.897877,3.759990,-0.017382,0.007819,0.148893,2.057337,0.689408,10.266680,5.192326,-1.256423,1,0,,38.990330,-76.941054,-8.097000,,,
2026-09-11T19:06:19.371,11.693860,1.458871,14.545671,13.508060,0.000000,-15.895685,5.468699,1.452230,0.058698,0.123575,0.249428,13.943753,3.773785,0.000529,0.030151,0.125059,2.413417,1.417747,8.143933,5.225084,-1.174353,1,0,,38.990330,-76.941054,-8.097000,,,
2026-09-11T19:06:19.403,11.727281,1.517723,14.596826,14.052992,0.000000,-11.059640,3.804922,1.514378,0.043497,0.091573,0.253023,13.991346,3.787765,-0.012486,0.006105,0.093056,1.903569,-1.480216,8.092350,5.222879,-1.278069,1,0,,38.990330,-76.941054,-8.097000,,,
2026-09-11T19:06:19.437,11.760702,1.576613,14.649739,14.598273,0.000000,-4.304421,1.480879,1.576087,0.023370,0.049200,0.255375,14.041049,3.801834,0.013832,-0.268982,0.050684,3.586782,1.449129,19.520039,5.332634,-1.187138,1,0,,38.990330,-76.941054,-8.097000,,,
2026-09-11T19:06:19.471,11.794121,1.596225,14.702592,14.779863,0.000000,-3.166650,1.089444,1.595937,0.004637,0.009762,0.256361,14.092207,3.815701,0.054848,-0.117556,0.011246,2.609550,0.058055,16.187347,5.380476,-1.183213,1,0,,38.990330,-76.941054,-8.097000,,,
2026-09-11T19:06:19.504,11.827536,1.605964,14.756272,14.870034,0.000000,-2.088616,0.718561,1.605837,-0.011856,-0.024960,0.256107,14.143985,3.829142,0.046688,0.042154,-0.023477,0.764134,1.067650,8.197869,5.313225,-1.110416,1,0,,38.990330,-76.941054,-8.097000,,,
2026-09-11T19:06:19.537,11.860953,1.615785,14.810219,14.960974,0.000000,-0.137169,0.047191,1.615785,-0.010824,-0.022787,0.255309,14.196160,3.842391,-0.004145,0.027847,-0.021303,1.245935,1.354200,8.692713,5.288986,-1.020093,1,0,,38.990330,-76.941054,-8.097000,,,
2026-09-11T19:06:19.570,11.894369,1.635511,14.864608,15.143624,0.000000,2.244804,-0.772295,1.635363,-0.021490,-0.045242,0.254172,14.248863,3.855556,-0.010944,0.035985,-0.043758,0.578494,-0.230849,10.935690,5.229888,-1.030915,1,0,,38.990330,-76.941054,-8.097000,,,
2026-09-11T19:06:19.604,11.927791,1.645517,14.919271,15.236269,0.000000,7.299888,-2.511430,1.643937,-0.021380,-0.045010,0.252664,14.302093,3.868602,0.001374,-0.043980,-0.043526,1.905138,0.944086,9.086744,5.269900,-0.965592,1,0,,38.990330,-76.941054,-8.097000,,,
2026-09-11T19:06:19.637,11.961212,1.665226,14.974849,15.418756,0.000000,7.313621,-2.516154,1.663620,-0.038244,-0.080513,0.250567,14.355870,3.881397,0.037930,0.086862,-0.079030,1.200236,0.128565,10.563920,5.280881,-0.949884,1,0,,38.990330,-76.941054,-8.097000,,,
2026-09-11T19:06:19.671,11.994633,1.665706,15.030560,15.423207,0.000000,7.540214,-2.594110,1.663999,-0.039290,-0.082716,0.247839,14.410078,3.893856,0.036435,0.122267,-0.081233,-0.191818,-1.684292,12.482395,5.217898,-1.051410,1,0,,38.990330,-76.941054,-8.097000,,,
2026-09-11T19:06:19.704,12.028057,1.646621,15.085607,15.246492,0.000000,7.643898,-2.629781,1.644887,-0.029883,-0.062911,0.245405,14.463986,3.906235,0.040345,0.022163,-0.061428,1.439322,-1.842375,5.299612,5.274045,-1.164263,1,0,,38.990330,-76.941054,-8.097000,,,
2026-09-11T19:06:19.738,12.061475,1.676502,15.141605,15.523166,0.000000,7.758568,-2.669232,1.674683,-0.045278,-0.095322,0.242761,14.518111,3.918420,-0.002482,-0.055912,-0.093838,0.665185,0.105618,10.509885,5.287317,-1.146178,1,0,,38.990330,-76.941054,-8.097000,,,
2026-09-11T19:06:19.771,12.094889,1.638330,15.196435,15.169720,0.000000,8.070991,-2.776717,1.636406,-0.041856,-0.088118,0.239697,14.572176,3.930223,-0.052359,-0.004067,-0.086635,-0.981548,-1.551510,5.253913,5.200745,-1.236498,1,0,,38.990330,-76.941054,-8.097000,,,
2026-09-11T19:06:19.804,12.128304,1.590235,15.249338,14.724398,0.000000,8.013313,-2.756874,1.588394,-0.037375,-0.078683,0.236910,14.624844,3.941656,0.023056,-0.023467,-0.077200,0.155435,-1.139925,8.516095,5.195457,-1.300434,1,0,,38.990330,-76.941054,-8.097000,,,
2026-09-11T19:06:19.838,12.161728,1.571767,15.302316,14.553401,0.000000,7.814873,-2.688603,1.570037,-0.031277,-0.065847,0.234494,14.676436,3.952867,0.038724,0.020585,-0.064364,-0.169949,-1.896802,11.844668,5.173346,-1.414055,1,1,12.164022,38.990335,-76.941070,-8.025000,-14.057854,5.154070,3.154297
2026-09-11T19:06:19.872,12.195156,1.475425,15.352282,13.661344,0.000000,8.159569,-2.807191,1.473655,-0.032213,-0.067817,0.232260,14.726175,3.963601,0.070674,0.040320,-0.066334,0.233300,1.694883,7.968394,5.179557,-1.294202,1,0,,38.990335,-76.941070,-8.025000,,,
2026-09-11T19:06:19.904,12.228576,1.407693,15.398217,13.034195,0.000000,7.670677,-2.638994,1.406200,-0.032649,-0.068735,0.229978,14.773265,3.973571,-0.080416,-0.013249,-0.067252,0.617034,-0.702352,10.726122,5.210072,-1.331029,1,0,,38.990335,-76.941070,-8.025000,,,
2026-09-11T19:06:19.938,12.261991,1.339565,15.442597,12.403382,0.000000,6.379097,-2.194643,1.338583,-0.004159,-0.008757,0.228684,14.818062,3.983397,0.041320,-0.061330,-0.007273,1.019009,0.197604,10.621877,5.263256,-1.314716,1,0,,38.990335,-76.941070,-8.025000,,,
2026-09-11T19:06:19.972,12.295419,1.300562,15.485968,12.042241,0.000000,4.786079,-1.646587,1.300025,0.001411,0.002970,0.228587,14.861027,3.993348,0.133595,0.045533,0.004453,-0.101499,1.808640,9.455278,5.241643,-1.195323,1,0,,38.990335,-76.941070,-8.025000,,,
2026-09-11T19:06:20.005,12.328836,1.242738,15.527664,11.506836,0.000000,2.034004,-0.699772,1.242646,0.002286,0.004812,0.228717,14.902392,4.003038,0.028236,0.092104,0.006296,-2.440581,1.312620,12.810329,5.063617,-1.109518,1,0,,38.990335,-76.941070,-8.025000,,,
2026-09-11T19:06:20.039,12.362260,1.204148,15.567681,11.149519,0.000000,-2.883064,0.991880,1.203968,0.004899,0.010313,0.228970,14.942186,4.012430,0.016214,-0.002596,0.011797,0.860239,-0.063547,11.269508,5.089868,-1.114117,1,0,,38.990335,-76.941070,-8.025000,,,
2026-09-11T19:06:20.072,12.395683,1.175461,15.606474,10.883895,0.000000,-3.528511,1.213937,1.175197,0.016336,0.034392,0.229717,14.980824,4.021815,0.034131,0.000726,0.035875,1.462760,0.749816,9.249927,5.143137,-1.067844,1,0,,38.990335,-76.941070,-8.025000,,,
2026-09-11T19:06:20.105,12.429104,1.166003,15.645478,10.796324,0.000000,-4.456169,1.533086,1.165586,0.025040,0.052716,0.231173,15.018747,4.031422,-0.012391,-0.017712,0.054200,0.876126,0.887208,9.151566,5.143173,-1.014558,1,0,,38.990335,-76.941070,-8.025000,,,
2026-09-11T19:06:20.139,12.462532,1.176084,15.685043,10.889663,0.000000,-5.008232,1.723016,1.175552,0.020763,0.043712,0.232784,15.056653,4.041163,-0.027985,-0.029472,0.045195,1.408627,1.726559,9.086352,5.160250,-0.906879,1,0,,38.990335,-76.941070,-8.025000,,,
2026-09-11T19:06:20.172,12.495957,1.195806,15.724914,11.072278,0.000000,-4.905235,1.687581,1.195287,0.020290,0.042716,0.234229,15.095042,4.050999,-0.012455,-0.027335,0.044200,1.459131,0.635079,10.188423,5.165922,-0.871013,1,0,,38.990335,-76.941070,-8.025000,,,
2026-09-11T19:06:20.205,12.529378,1.205984,15.764775,11.166514,0.000000,-4.897682,1.684982,1.205462,0.016144,0.033987,0.235510,15.133916,4.060927,-0.018319,-0.032594,0.035470,2.148833,-0.544269,8.817748,5.203843,-0.911206,1,0,,38.990335,-76.941070,-8.025000,,,
2026-09-11T19:06:20.239,12.562797,1.225506,15.805945,11.347278,0.000000,-4.809792,1.654745,1.224995,0.020356,0.042855,0.236794,15.173258,4.071022,-0.046073,-0.033847,0.044339,2.824217,0.180344,8.933270,5.275296,-0.904814,1,0,,38.990335,-76.941070,-8.025000,,,
2026-09-11T19:06:20.272,12.596208,1.264929,15.848784,11.712303,0.000000,-4.901116,1.686164,1.264381,0.016109,0.033914,0.238077,15.213534,4.081396,-0.074253,-0.024569,0.035397,2.304563,0.036971,10.476052,5.305213,-0.907146,1,0,,38.990335,-76.941070,-8.025000,,,
2026-09-11T19:06:20.306,12.629625,1.333367,15.893298,12.345991,0.000000,-5.140068,1.768372,1.332732,0.019625,0.041316,0.239334,15.255556,4.092237,-0.074776,-0.046589,0.042799,3.123810,2.345947,8.134616,5.383102,-0.760857,1,0,,38.990335,-76.941070,-8.025000,,,
2026-09-11T19:06:20.340,12.663049,1.382340,15.939391,12.799448,0.000000,-5.227959,1.798610,1.381659,0.022421,0.047201,0.240813,15.299451,4.103707,-0.089558,-0.049773,0.048685,2.654856,0.438063,7.560437,5.425773,-0.740275,1,0,,38.990335,-76.941070,-8.025000,,,
2026-09-11T19:06:20.373,12.696471,1.441135,15.987758,13.343845,0.000000,-5.117409,1.760576,1.440455,0.025185,0.053020,0.242488,15.345050,4.115765,-0.077868,-0.027377,0.054504,2.911496,-0.996846,10.446926,5.484041,-0.813493,1,0,,38.990335,-76.941070,-8.025000,,,
2026-09-11T19:06:20.406,12.729906,1.490002,16.037571,13.796315,0.000000,-4.926521,1.694904,1.489350,0.022673,0.047732,0.244172,15.392394,4.128344,-0.046364,-0.027285,0.049215,2.576599,2.457547,9.715448,5.521109,-0.661972,1,0,,38.990335,-76.941070,-8.025000,,,
2026-09-11T19:06:20.440,12.763328,1.529231,16.089395,14.159549,0.000000,-4.495308,1.546551,1.528674,0.018039,0.037976,0.245605,15.441158,4.141232,-0.061454,-0.018214,0.039460,2.641813,1.246818,8.617300,5.562656,-0.589691,1,0,,38.990335,-76.941070,-8.025000,,,
2026-09-11T19:06:20.473,12.796811,1.577742,16.142717,14.608723,0.000000,-4.512474,1.552457,1.577163,0.019256,0.040539,0.246919,15.491433,4.154513,-0.035193,-0.044375,0.042023,1.337823,1.421180,4.888811,5.520550,-0.507158,1,0,,38.990335,-76.941070,-8.025000,,,
2026-09-11T19:06:20.506,12.830231,1.587589,16.195976,14.699900,0.000000,-4.307854,1.482060,1.587058,0.023962,0.050446,0.248439,15.542516,4.168176,0.023141,-0.178656,0.051930,2.593074,-0.060899,13.590448,5.565761,-0.522635,1,0,,38.990335,-76.941070,-8.025000,,,
2026-09-11T19:06:20.540,12.863655,1.587831,16.248918,14.702136,0.000000,-4.114220,1.415443,1.587346,0.015662,0.032973,0.249833,15.593767,4.181898,0.037650,-0.057606,0.034457,1.715379,-0.924179,12.439343,5.558315,-0.592015,1,0,,38.990335,-76.941070,-8.025000,,,
2026-09-11T19:06:20.573,12.897073,1.598129,16.302659,14.797493,0.000000,-3.865654,1.329927,1.597699,0.007595,0.015989,0.250652,15.645231,4.195454,-0.020955,0.030006,0.017473,0.858278,2.835593,8.450979,5.500778,-0.415616,1,0,,38.990335,-76.941070,-8.025000,,,
2026-09-11T19:06:20.607,12.930491,1.608214,16.356248,14.890872,0.000000,-3.154289,1.085191,1.607926,0.005889,0.012398,0.251126,15.697061,4.208970,-0.030597,0.018754,0.013882,1.166403,0.224965,13.241429,5.471568,-0.409720,1,0,,38.990335,-76.941070,-8.025000,,,
2026-09-11T19:06:20.641,12.963918,1.608414,16.410025,14.892723,0.000000,-2.623512,0.902585,1.608215,0.011193,0.023564,0.251727,15.749053,4.222620,-0.015521,0.055412,0.025047,1.505517,-2.337415,11.540368,5.473680,-0.570888,1,0,,38.990335,-76.941070,-8.025000,,,
2026-09-11T19:06:20.673,12.997335,1.618574,16.463636,14.986797,0.000000,-2.032997,0.699426,1.618454,-0.002876,-0.006054,0.252019,15.801230,4.236190,-0.022218,-0.052406,-0.004571,0.547898,1.245248,6.738444,5.424218,-0.495338,1,0,,38.990335,-76.941070,-8.025000,,,
2026-09-11T19:06:20.707,13.030752,1.628730,16.518232,15.080836,0.000000,-1.127998,0.388073,1.628693,0.003969,0.008356,0.252058,15.853766,4.249738,-0.001915,-0.010431,0.009839,1.571712,-1.315954,14.511391,5.454054,-0.587846,1,0,,38.990335,-76.941070,-8.025000,,,
2026-09-11T19:06:20.740,13.064173,1.619544,16.572013,14.995777,0.000000,-0.344536,0.118533,1.619540,-0.008251,-0.017370,0.251907,15.906350,4.263202,0.073153,-0.006292,-0.015887,1.553177,-0.614289,10.411230,5.491228,-0.631237,1,0,,38.990335,-76.941070,-8.025000,,,
2026-09-11T19:06:20.774,13.097593,1.610271,16.625971,14.909913,0.000000,-0.174248,0.059948,1.610270,-0.010061,-0.021182,0.251263,15.958696,4.276341,0.078709,0.027749,-0.019698,1.094324,0.281843,10.610109,5.500409,-0.615776,1,0,,38.990335,-76.941070,-8.025000,,,
2026-09-11T19:06:20.807,13.131012,1.649815,16.681215,15.276061,0.000000,-1.502907,0.517055,1.649747,-0.001834,-0.003861,0.250845,16.011512,4.289681,0.057986,0.032854,-0.002377,1.937892,-0.832290,8.465983,5.567398,-0.674368,1,0,,38.990335,-76.941070,-8.025000,,,
2026-09-11T19:06:20.841,13.164435,1.640444,16.736436,15.189300,0.000000,-2.645485,0.910144,1.640237,0.006906,0.014538,0.251023,16.064749,4.303415,0.078438,-0.056025,0.016022,1.458837,0.537208,9.414973,5.608221,-0.645652,1,0,,38.990335,-76.941070,-8.025000,,,
2026-09-11T19:06:20.874,13.197853,1.640708,16.791107,15.191737,0.000000,-3.218834,1.107397,1.640401,0.017701,0.037266,0.251889,16.117739,4.317452,0.114212,-0.007122,0.038749,0.343429,2.623475,10.964227,5.580968,-0.484685,1,1,13.184272,38.990339,-76.941085,-7.886000,-15.385798,5.635730,3.154297
2026-09-11T19:06:20.907,13.231270,1.611364,16.845157,14.920034,0.000000,-3.823769,1.315517,1.610939,0.024308,0.051175,0.253366,16.170165,4.331710,0.022678,-0.013092,0.052658,-0.428943,4.044066,7.031270,5.507976,-0.234962,1,0,,38.990339,-76.941085,-7.886000,,,
2026-09-11T19:06:20.941,13.264689,1.562493,16.897190,14.467527,0.000000,-4.854424,1.670100,1.561829,0.044310,0.093284,0.255780,16.221183,4.346170,-0.136260,-0.004051,0.094768,-0.080316,-2.432442,3.485774,5.464606,-0.411156,1,0,,38.990339,-76.941085,-7.886000,,,
2026-09-11T19:06:20.975,13.298112,1.514208,16.947901,14.020443,0.000000,-6.014855,2.069331,1.513220,0.044326,0.093317,0.258899,16.270502,4.360679,-0.156386,-0.056171,0.094801,1.100993,-0.951539,7.464038,5.503987,-0.489289,1,0,,38.990339,-76.941085,-7.886000,,,
2026-09-11T19:06:21.008,13.331542,1.485681,16.998080,13.756305,0.000000,-8.535530,2.936536,1.483730,0.064339,0.135451,0.262723,16.318434,4.375351,-0.154126,-0.040586,0.136935,0.315088,0.640570,9.091451,5.491361,-0.467392,1,0,,38.990339,-76.941085,-7.886000,,,
2026-09-11T19:06:21.041,13.364966,1.495760,17.047829,13.849630,0.000000,-17.221597,5.924861,1.487770,0.072750,0.153158,0.267546,16.365757,4.390574,0.007032,-0.055767,0.154641,1.631434,2.095387,6.299400,5.565830,-0.353335,1,0,,38.990339,-76.941085,-7.886000,,,
2026-09-11T19:06:21.075,13.398388,1.457075,17.096654,13.491435,0.000000,-17.417978,5.992424,1.449113,0.097976,0.206266,0.273552,16.412286,4.406438,0.115273,0.037597,0.207749,0.443359,3.164998,9.095276,5.562048,-0.175924,1,0,,38.990339,-76.941085,-7.886000,,,
2026-09-11T19:06:21.108,13.431809,1.428384,17.144080,13.225774,0.000000,-18.734277,6.445279,1.419355,0.094898,0.199785,0.280337,16.457513,4.422643,0.120393,0.038475,0.201269,0.075217,0.009022,11.898899,5.529249,-0.203717,1,0,,38.990339,-76.941085,-7.886000,,,
2026-09-11T19:06:21.142,13.465235,1.390108,17.190210,12.871370,0.000000,-18.342889,6.310627,1.381685,0.084884,0.178703,0.286663,16.501618,4.438620,0.139627,0.004918,0.180187,0.804145,-0.310871,11.643338,5.536718,-0.249538,1,0,,38.990339,-76.941085,-7.886000,,,
2026-09-11T19:06:21.175,13.498652,1.371566,17.235409,12.699688,0.000000,-17.504495,6.022189,1.363997,0.069569,0.146462,0.292096,16.544852,4.454184,0.085404,-0.015006,0.147945,0.146217,-0.710982,8.682220,5.489806,-0.317677,1,0,,38.990339,-76.941085,-7.886000,,,
2026-09-11T19:06:21.208,13.532063,1.313681,17.279490,12.163715,0.000000,-15.030511,5.171048,1.308335,0.046955,0.098853,0.296194,16.587014,4.468988,0.060250,-0.045744,0.100336,0.832094,-0.693134,10.202152,5.476033,-0.379335,1,0,,38.990339,-76.941085,-7.886000,,,
2026-09-11T19:06:21.242,13.565491,1.285152,17.323012,11.899558,0.000000,-8.665307,2.981184,1.283413,0.020574,0.043315,0.298570,16.628101,4.482760,-0.015067,-0.051122,0.044798,0.388147,2.095779,9.028394,5.422131,-0.255061,1,0,,38.990339,-76.941085,-7.886000,,,
2026-09-11T19:06:21.275,13.598911,1.295562,17.366364,11.995940,0.000000,-2.598107,0.893844,1.295404,0.005507,0.011594,0.299488,16.669152,4.495872,-0.036142,-0.014605,0.013077,1.718125,-0.808068,7.827962,5.447005,-0.317471,1,0,,38.990339,-76.941085,-7.886000,,,
2026-09-11T19:06:21.309,13.632328,1.296001,17.409489,12.000008,0.000000,-3.456414,1.189133,1.295722,0.004667,0.009824,0.299846,16.710466,4.508814,-0.054732,0.032589,0.011308,1.610350,-1.435596,7.614766,5.455494,-0.419637,1,0,,38.990339,-76.941085,-7.886000,,,
2026-09-11T19:06:21.342,13.665751,1.325628,17.453749,12.274332,0.000000,-3.118584,1.072908,1.325395,0.003113,0.006554,0.300119,16.752274,4.521882,-0.027564,0.017104,0.008037,2.728014,-0.885639,9.845779,5.526686,-0.484837,1,0,,38.990339,-76.941085,-7.886000,,,
2026-09-11T19:06:21.376,13.699170,1.364596,17.498951,12.635147,0.000000,-3.146737,1.082593,1.364352,0.001239,0.002609,0.300273,16.795187,4.535242,-0.051641,-0.005885,0.004093,2.419104,-0.194466,8.131086,5.569547,-0.504253,1,0,,38.990339,-76.941085,-7.886000,,,
2026-09-11T19:06:21.409,13.732589,1.413225,17.546156,13.085417,0.000000,-3.046487,1.048103,1.412989,0.002361,0.004971,0.300399,16.839500,4.549029,0.019886,0.030209,0.006454,1.763138,0.982822,8.904340,5.563886,-0.447503,1,0,,38.990339,-76.941085,-7.886000,,,
2026-09-11T19:06:21.442,13.766017,1.461838,17.595244,13.535540,0.000000,-1.881936,0.647455,1.461745,-0.010047,-0.021152,0.300129,16.885436,4.563118,0.015357,0.005472,-0.019669,1.916710,-3.079680,8.921796,5.561879,-0.651842,1,0,,38.990339,-76.941085,-7.886000,,,
2026-09-11T19:06:21.476,13.799432,1.501065,17.645476,13.898752,0.000000,0.574882,-0.197781,1.501056,-0.017906,-0.037697,0.299146,16.932869,4.577282,-0.009624,0.000090,-0.036214,3.256690,0.506808,7.786578,5.640526,-0.620146,1,0,,38.990339,-76.941085,-7.886000,,,
2026-09-11T19:06:21.509,13.832852,1.559574,17.697952,14.440497,0.000000,7.201698,-2.477648,1.558116,-0.035563,-0.074870,0.297265,16.981994,4.591446,0.005021,0.028213,-0.073386,2.964158,-0.901820,10.436531,5.696993,-0.676054,1,0,,38.990339,-76.941085,-7.886000,,,
2026-09-11T19:06:21.543,13.866272,1.608563,17.752388,14.894104,0.000000,9.122932,-3.138623,1.606150,-0.064344,-0.135462,0.293750,17.033064,4.605246,-0.018452,0.141063,-0.133978,3.172549,-2.556201,11.864281,5.768231,-0.831859,1,0,,38.990339,-76.941085,-7.886000,,,
2026-09-11T19:06:21.576,13.899693,1.666943,17.808169,15.434654,0.000000,10.895852,-3.748573,1.663376,-0.068546,-0.144307,0.289075,17.086033,4.618814,-0.021558,-0.014832,-0.142823,1.633396,-0.587124,1.012439,5.743066,-0.857076,1,0,,38.990339,-76.941085,-7.886000,,,
2026-09-11T19:06:21.610,13.933108,1.696370,17.864594,15.707129,0.000000,11.785058,-4.054493,1.692124,-0.074239,-0.156293,0.284053,17.140485,4.632371,0.070589,0.003806,-0.154809,0.823170,-1.843160,10.049855,5.672370,-0.961688,1,0,,38.990339,-76.941085,-7.886000,,,
2026-09-11T19:06:21.643,13.966532,1.715976,17.922472,15.888665,0.000000,13.937692,-4.795078,1.709970,-0.088970,-0.187306,0.278310,17.195864,4.645526,0.045098,-0.036542,-0.185823,1.127863,-1.556021,9.888438,5.631135,-1.042974,1,0,,38.990339,-76.941085,-7.886000,,,
2026-09-11T19:06:21.676,13.999952,1.726065,17.979544,15.982082,0.000000,15.628900,-5.376915,1.718470,-0.093472,-0.196784,0.271892,17.251827,4.658154,0.046075,-0.041032,-0.195301,2.086953,2.006244,8.326336,5.663999,-0.891703,1,0,,38.990339,-76.941085,-7.886000,,,
2026-09-11T19:06:21.709,14.033374,1.746066,18.038077,16.167281,0.000000,18.554696,-6.383496,1.735241,-0.108125,-0.227632,0.264800,17.308368,4.670207,-0.017255,-0.081689,-0.226148,1.558963,-2.450290,10.170183,5.675893,-1.026790,1,0,,38.990339,-76.941085,-7.886000,,,
2026-09-11T19:06:21.743,14.066793,1.756149,18.096495,16.260641,0.000000,22.138299,-7.616387,1.740656,-0.118337,-0.249130,0.256833,17.365458,4.681527,-0.079735,-0.011682,-0.247647,1.658206,-0.877107,10.219804,5.708102,-1.056081,1,0,,38.990339,-76.941085,-7.886000,,,
2026-09-11T19:06:21.776,14.100210,1.776139,18.155907,16.445731,0.000000,24.330072,-8.370438,1.757219,-0.136302,-0.286953,0.247876,17.423113,4.691999,-0.128178,0.036717,-0.285469,0.399131,-2.224835,9.348974,5.670328,-1.167675,1,0,,38.990339,-76.941085,-7.886000,,,
2026-09-11T19:06:21.810,14.133631,1.746981,18.214639,16.175748,0.000000,26.304178,-9.049602,1.725235,-0.148595,-0.312832,0.237853,17.480741,4.701374,-0.087471,0.046472,-0.311349,0.812775,-3.828810,8.840205,5.672301,-1.379535,1,0,,38.990339,-76.941085,-7.886000,,,
2026-09-11T19:06:21.843,14.167048,1.737274,18.272800,16.085868,0.000000,27.009362,-9.292212,1.714477,-0.152103,-0.320217,0.227276,17.537822,4.709732,-0.104643,0.034967,-0.318733,-0.159946,2.128043,8.883060,5.624464,-1.203031,1,1,14.172616,38.990344,-76.941101,-7.702000,-16.817022,6.144261,3.154297
2026-09-11T19:06:21.876,14.200467,1.708264,18.329748,15.817262,0.000000,26.718911,-9.192286,1.686326,-0.133294,-0.280619,0.217237,17.594302,4.717609,-0.024870,0.003850,-0.279135,-0.970564,1.299283,10.067605,5.537921,-1.086996,1,0,,38.990344,-76.941101,-7.702000,,,
2026-09-11T19:06:21.910,14.233906,1.679733,18.386158,15.553087,0.000000,20.999154,-7.224480,1.666398,-0.097872,-0.206047,0.209100,17.649909,4.725693,0.052870,-0.020167,-0.204563,-0.766782,-0.154357,9.586981,5.471628,-1.074693,1,0,,38.990344,-76.941101,-7.702000,,,
2026-09-11T19:06:21.943,14.267326,1.621676,18.440630,15.015522,0.000000,17.680597,-6.082774,1.612546,-0.073412,-0.154551,0.203074,17.704126,4.734106,0.066792,-0.076608,-0.153067,-1.239953,2.582189,9.649548,5.376879,-0.891563,1,0,,38.990344,-76.941101,-7.702000,,,
2026-09-11T19:06:21.977,14.300747,1.544265,18.491760,14.298749,0.000000,8.807763,-3.030194,1.542106,-0.067404,-0.141902,0.198120,17.756254,4.742307,-0.045968,-0.070425,-0.140419,0.812481,3.858525,5.155846,5.418877,-0.629831,1,0,,38.990344,-76.941101,-7.702000,,,
2026-09-11T19:06:22.011,14.334164,1.496308,18.541398,13.854706,0.000000,9.510888,-3.272095,1.493869,-0.044071,-0.092781,0.194199,17.806371,4.750368,0.006732,0.004549,-0.091297,-1.156302,-3.023881,9.696718,5.333557,-0.821499,1,0,,38.990344,-76.941101,-7.702000,,,
2026-09-11T19:06:22.044,14.367587,1.457936,18.589929,13.499406,0.000000,8.906640,-3.064211,1.455851,-0.027588,-0.058079,0.191678,17.854979,4.758646,-0.061187,-0.004309,-0.056596,-0.294690,2.331041,9.589041,5.304397,-0.668063,1,0,,38.990344,-76.941101,-7.702000,,,
2026-09-11T19:06:22.077,14.401002,1.410019,18.636249,13.055731,0.000000,6.542520,-2.250867,1.408931,-0.013239,-0.027871,0.190242,17.902102,4.767061,0.008294,-0.112116,-0.026387,0.852688,0.048445,5.780138,5.345718,-0.666961,1,0,,38.990344,-76.941101,-7.702000,,,
2026-09-11T19:06:22.111,14.434417,1.332882,18.680280,12.341504,0.000000,3.952493,-1.359803,1.332507,0.002483,0.005227,0.189864,17.947114,4.775537,0.100827,-0.050835,0.006710,-1.518168,-2.390665,9.222664,5.226503,-0.826659,1,0,,38.990344,-76.941101,-7.702000,,,
2026-09-11T19:06:22.144,14.467835,1.246166,18.722351,11.538572,0.000000,0.052346,-0.018009,1.246166,0.001415,0.002978,0.190001,17.989415,4.783736,0.095617,-0.009240,0.004462,-0.186621,3.384177,10.784275,5.187173,-0.610754,1,0,,38.990344,-76.941101,-7.702000,,,
2026-09-11T19:06:22.177,14.501253,1.266139,18.764857,11.723514,0.000000,-2.908469,1.000620,1.265946,0.000593,0.001249,0.190071,18.030627,4.791697,0.048547,-0.064607,0.002733,1.315954,-1.248975,8.688888,5.236399,-0.696872,1,0,,38.990344,-76.941101,-7.702000,,,
2026-09-11T19:06:22.211,14.534667,1.247436,18.806389,11.550332,0.000000,-2.503348,0.861244,1.247295,0.004067,0.008562,0.190235,18.071844,4.799710,0.087926,0.004411,0.010045,0.729517,-0.498080,10.966777,5.235313,-0.734039,1,0,,38.990344,-76.941101,-7.702000,,,
2026-09-11T19:06:22.245,14.568082,1.257596,18.848353,11.644405,0.000000,-1.134864,0.390435,1.257567,-0.006806,-0.014329,0.190139,18.112949,4.807577,0.019936,-0.039705,-0.012845,1.630650,0.317245,8.508838,5.281406,-0.716191,1,0,,38.990344,-76.941101,-7.702000,,,
2026-09-11T19:06:22.278,14.601502,1.247891,18.890080,11.554547,0.000000,1.624078,-0.558742,1.247832,-0.015565,-0.032769,0.189352,18.154132,4.815106,-0.063075,0.009036,-0.031285,1.255643,-0.094144,9.586099,5.291343,-0.723677,1,0,,38.990344,-76.941101,-7.702000,,,
2026-09-11T19:06:22.311,14.634917,1.257618,18.932446,11.644609,0.000000,8.199395,-2.820893,1.256094,-0.021315,-0.044874,0.188055,18.195340,4.822348,-0.036298,0.004749,-0.043391,1.487669,0.165830,10.082511,5.309198,-0.713258,1,0,,38.990344,-76.941101,-7.702000,,,
2026-09-11T19:06:22.344,14.668335,1.277059,18.975123,11.824623,0.000000,8.034601,-2.764197,1.275573,-0.040276,-0.084792,0.185888,18.237095,4.829200,-0.035386,0.001692,-0.083309,1.427554,0.245951,9.345149,5.313071,-0.694420,1,0,,38.990344,-76.941101,-7.702000,,,
2026-09-11T19:06:22.378,14.701751,1.306504,19.018916,12.097259,0.000000,8.813257,-3.032084,1.304675,-0.044886,-0.094496,0.182893,18.279736,4.835704,0.006926,-0.039532,-0.093013,2.562870,1.906903,8.528549,5.376650,-0.567353,1,0,,38.990344,-76.941101,-7.702000,,,
2026-09-11T19:06:22.412,14.735170,1.355390,19.064434,12.549909,0.000000,10.128183,-3.484467,1.352884,-0.061488,-0.129448,0.179151,18.323736,4.841949,0.010634,0.016044,-0.127964,1.982120,-0.028635,9.051930,5.396969,-0.563563,1,0,,38.990344,-76.941101,-7.702000,,,
2026-09-11T19:06:22.444,14.768585,1.384837,19.110267,12.822566,0.000000,13.045739,-4.488213,1.380590,-0.071130,-0.149746,0.174486,18.369084,4.847800,0.048208,0.005403,-0.148263,2.452349,0.705392,10.788590,5.448158,-0.510282,1,0,,38.990344,-76.941101,-7.702000,,,
2026-09-11T19:06:22.478,14.802005,1.414262,19.157771,13.095022,0.000000,16.985025,-5.843472,1.406914,-0.093652,-0.197162,0.168689,18.415448,4.853039,0.042639,0.037677,-0.195678,2.121669,1.822958,9.706917,5.475137,-0.380698,1,0,,38.990344,-76.941101,-7.702000,,,
2026-09-11T19:06:22.512,14.835420,1.453434,19.206264,13.457721,0.000000,23.392801,-8.047982,1.439119,-0.108571,-0.228570,0.161576,18.462906,4.857520,0.006998,0.055237,-0.227087,2.650934,-0.932024,6.316954,5.531936,-0.427473,1,0,,38.990344,-76.941101,-7.702000,,,
2026-09-11T19:06:22.545,14.868836,1.511928,19.256299,13.999334,0.000000,26.028146,-8.954637,1.493500,-0.129245,-0.272095,0.153211,18.511919,4.861272,-0.010187,-0.103721,-0.270611,1.449913,1.182192,15.378200,5.507421,-0.331932,1,0,,38.990344,-76.941101,-7.702000,,,
2026-09-11T19:06:22.579,14.902251,1.483214,19.307250,13.733463,0.000000,27.393884,-9.424501,1.463194,-0.149065,-0.313821,0.143422,18.561461,4.863975,0.123321,0.059840,-0.312337,0.252815,-1.987416,-2.889824,5.405832,-0.439102,1,0,,38.990344,-76.941101,-7.702000,,,
2026-09-11T19:06:22.612,14.935670,1.552145,19.359236,14.371717,0.000000,32.825250,-11.293091,1.522093,-0.154011,-0.324235,0.132760,18.611565,4.865821,-0.026819,-0.141438,-0.322751,2.342318,1.133355,17.929498,5.445163,-0.340945,1,0,,38.990344,-76.941101,-7.702000,,,
2026-09-11T19:06:22.645,14.969090,1.552725,19.410817,14.377084,0.000000,34.804852,-11.974146,1.518940,-0.170354,-0.358639,0.121349,18.662656,4.866883,-0.059897,0.038724,-0.357156,1.435988,-3.813512,11.883404,5.432873,-0.560652,1,0,,38.990344,-76.941101,-7.702000,,,
2026-09-11T19:06:22.679,15.002503,1.572784,19.462955,14.562816,0.000000,39.663555,-13.645719,1.528389,-0.210745,-0.443673,0.107946,18.713955,4.866381,-0.133766,0.118788,-0.442189,5.091711,-1.324388,19.357053,5.665845,-0.608224,1,0,,38.990344,-76.941101,-7.702000,,,
2026-09-11T19:06:22.712,15.035920,1.563528,19.515169,14.477115,0.000000,42.491848,-14.618755,1.512912,-0.202530,-0.426379,0.093408,18.765207,4.864620,-0.075479,0.175824,-0.424896,0.285079,-2.048315,6.086988,5.589303,-0.704248,1,0,,38.990344,-76.941101,-7.702000,,,
2026-09-11T19:06:22.746,15.069341,1.612417,19.569499,14.929788,0.000000,45.559094,-15.674000,1.552458,-0.224427,-0.472478,0.078388,18.816850,4.861901,-0.177139,0.085927,-0.470995,1.985062,-2.390763,9.274149,5.634115,-0.815654,1,0,,38.990344,-76.941101,-7.702000,,,
2026-09-11T19:06:22.779,15.102755,1.641484,19.624235,15.198929,0.000000,45.533688,-15.665260,1.580512,-0.228735,-0.481547,0.062449,18.869593,4.858028,-0.096536,0.095286,-0.480064,1.432555,-2.225031,9.845583,5.657285,-0.913296,1,0,,38.990344,-76.941101,-7.702000,,,
2026-09-11T19:06:22.812,15.136177,1.651209,19.679638,15.288972,0.000000,46.036312,-15.838181,1.588523,-0.230136,-0.484498,0.046306,18.922888,4.853248,-0.035502,0.097833,-0.483014,1.422553,0.396679,8.872861,5.689355,-0.839684,1,0,,38.990344,-76.941101,-7.702000,,,
2026-09-11T19:06:22.846,15.169597,1.661191,19.734946,15.381396,0.000000,45.880444,-15.784556,1.598550,-0.231221,-0.486781,0.030076,18.976397,4.847577,0.020475,0.083265,-0.485298,0.286746,-1.370283,10.821835,5.654315,-0.880670,1,1,15.175430,38.990350,-76.941116,-7.584000,-18.070207,6.823477,3.154879
2026-09-11T19:06:22.880,15.203014,1.642230,19.789904,15.205832,0.000000,45.792553,-15.754319,1.580539,-0.235836,-0.496498,0.013646,19.029671,4.840939,0.060218,0.040039,-0.495014,-0.024615,4.536654,14.970636,5.609289,-0.538595,1,0,,38.990350,-76.941116,-7.584000,,,
