timestamp,time_s,speed_mps,distance_m,wheel_omega_rad_s,motor_current_A,steer_motor_deg,steer_column_deg,vx_mps,vy_mps,yaw_rate_rad_s,heading_rad,x_m,y_m,gyro_x_rad_s,gyro_y_rad_s,gyro_z_rad_s,accel_x_mps2,accel_y_mps2,accel_z_mps2,grade_deg,bank_deg,moving,gps_new_fix,gps_time_s,gps_latitude_deg,gps_longitude_deg,gps_altitude_m,gps_east_m,gps_north_m,gps_sigma_m
2026-09-11T19:03:52.405,0.000005,-0.000000,-0.000000,-0.000000,0.000000,5.075134,-1.746032,-0.000000,-0.000407,-0.000856,0.000000,0.000000,0.000000,0.001322,-0.000637,0.000627,0.512790,0.006767,9.707505,0.557843,-0.402921,0,1,-0.232629,38.990312,-76.939600,-11.977000,0.000000,0.000000,3.842503
2026-09-11T19:03:52.439,0.033414,-0.000000,-0.000000,-0.000000,0.000000,5.075134,-1.746032,-0.000000,-0.001064,-0.002240,-0.000052,-0.000000,-0.000025,0.006470,-0.000929,-0.000757,0.507298,0.001373,9.699562,0.557487,-0.403270,0,0,,38.990312,-76.939600,-11.977000,,,
2026-09-11T19:03:52.472,0.066836,-0.000000,-0.000000,-0.000000,0.000000,5.075134,-1.746032,-0.000000,-0.000248,-0.000522,-0.000098,-0.000000,-0.000046,0.005770,-0.000395,0.000961,0.511515,0.004511,9.700248,0.557409,-0.403412,0,0,,38.990312,-76.939600,-11.977000,,,
2026-09-11T19:03:52.506,0.100246,-0.000000,-0.000000,-0.000000,0.000000,5.075134,-1.746032,-0.000000,-0.001338,-0.002818,-0.000154,-0.000000,-0.000073,0.008784,-0.000450,-0.001334,0.504944,0.012553,9.700836,0.556905,-0.403033,0,0,,38.990312,-76.939600,-11.977000,,,
2026-09-11T19:03:52.539,0.133653,-0.000000,-0.000000,-0.000000,0.000000,5.075134,-1.746032,-0.000000,-0.000555,-0.001169,-0.000220,-0.000000,-0.000105,0.009931,0.000090,0.000315,0.506808,0.026282,9.708093,0.556528,-0.401769,0,0,,38.990312,-76.939600,-11.977000,,,
2026-09-11T19:03:52.573,0.167063,-0.000000,-0.000000,-0.000000,0.000000,5.075134,-1.746032,-0.000000,-0.000284,-0.000597,-0.000250,-0.000000,-0.000119,0.006512,-0.000053,0.000886,0.512888,0.022948,9.706034,0.556549,-0.400735,0,0,,38.990312,-76.939600,-11.977000,,,
2026-09-11T19:03:52.607,0.200483,-0.000000,-0.000000,-0.000000,0.000000,5.075134,-1.746032,-0.000000,-0.000845,-0.001779,-0.000289,-0.000000,-0.000138,0.004782,-0.000758,-0.000295,0.525833,0.017946,9.685930,0.557408,-0.400036,0,0,,38.990312,-76.939600,-11.977000,,,
2026-09-11T19:03:52.640,0.233899,-0.000000,-0.000000,-0.000000,0.000000,5.075134,-1.746032,-0.000000,0.000063,0.000132,-0.000317,-0.000000,-0.000151,-0.001414,-0.001091,0.001616,0.524067,0.033931,9.681812,0.558144,-0.398311,0,0,,38.990312,-76.939600,-11.977000,,,
2026-09-11T19:03:52.672,0.267312,-0.000000,-0.000000,-0.000000,0.000000,5.075134,-1.746032,-0.000000,-0.000297,-0.000624,-0.000325,-0.000000,-0.000154,-0.005760,0.001042,0.000859,0.520537,0.047856,9.713977,0.558642,-0.395704,0,0,,38.990312,-76.939600,-11.977000,,,
2026-09-11T19:03:52.706,0.300724,-0.000000,-0.000000,-0.000000,0.000000,5.075134,-1.746032,-0.000000,0.000120,0.000252,-0.000331,-0.000000,-0.000157,-0.012011,0.002444,0.001735,0.512496,0.036971,9.704073,0.558614,-0.393830,0,0,,38.990312,-76.939600,-11.977000,,,
2026-09-11T19:03:52.741,0.334139,-0.000000,-0.000000,-0.000000,0.000000,5.075134,-1.746032,-0.000000,0.000862,0.001815,-0.000297,-0.000000,-0.000141,-0.021042,0.000590,0.003299,0.519654,0.023046,9.700248,0.559051,-0.392877,0,0,,38.990312,-76.939600,-11.977000,,,
2026-09-11T19:03:52.774,0.367564,-0.000000,-0.000000,-0.000000,0.000000,5.075134,-1.746032,-0.000000,0.000772,0.001625,-0.000239,-0.000000,-0.000114,-0.021328,0.001878,0.003109,0.527500,0.002452,9.689265,0.559990,-0.393268,0,0,,38.990312,-76.939600,-11.977000,,,
2026-09-11T19:03:52.807,0.400991,-0.000000,-0.000000,-0.000000,0.000000,5.075134,-1.746032,-0.000000,0.000342,0.000721,-0.000200,-0.000000,-0.000095,-0.020359,-0.000289,0.002205,0.520439,-0.012454,9.695345,0.560462,-0.394619,0,0,,38.990312,-76.939600,-11.977000,,,
2026-09-11T19:03:52.840,0.434411,-0.000000,-0.000000,-0.000000,0.000000,5.075134,-1.746032,-0.000000,0.000728,0.001532,-0.000163,-0.000000,-0.000077,-0.019527,0.000361,0.003015,0.506513,-0.007649,9.700542,0.560027,-0.395643,0,0,,38.990312,-76.939600,-11.977000,,,
2026-09-11T19:03:52.873,0.467820,-0.000000,-0.000000,-0.000000,0.000000,5.075134,-1.746032,-0.000000,-0.000392,-0.000825,-0.000151,-0.000000,-0.000072,-0.012624,0.001491,0.000658,0.508573,-0.034912,9.704465,0.559729,-0.398420,0,0,,38.990312,-76.939600,-11.977000,,,
2026-09-11T19:03:52.907,0.501231,-0.000000,-0.000000,-0.000000,0.000000,5.075134,-1.746032,-0.000000,0.000429,0.000902,-0.000149,-0.000000,-0.000071,-0.009473,0.000405,0.002386,0.512299,-0.023340,9.698385,0.559677,-0.400417,0,0,,38.990312,-76.939600,-11.977000,,,
2026-09-11T19:03:52.941,0.534652,-0.000000,-0.000000,-0.000000,0.000000,5.075134,-1.746032,-0.000000,-0.000637,-0.001341,-0.000157,-0.000000,-0.000074,-0.001343,0.001233,0.000142,0.502395,-0.025105,9.701817,0.558983,-0.402507,0,0,,38.990312,-76.939600,-11.977000,,,
2026-09-11T19:03:52.974,0.568076,-0.000000,-0.000000,-0.000000,0.000000,5.075134,-1.746032,-0.000000,-0.001745,-0.003674,-0.000241,-0.000000,-0.000114,0.006006,0.001189,-0.002190,0.497982,-0.023242,9.697012,0.558011,-0.404454,0,0,,38.990312,-76.939600,-11.977000,,,
2026-09-11T19:03:53.007,0.601487,-0.000000,-0.000000,-0.000000,0.000000,5.075134,-1.746032,-0.000000,-0.000545,-0.001148,-0.000321,-0.000000,-0.000153,0.011541,-0.000150,0.000336,0.495138,-0.028341,9.707407,0.556865,-0.406708,0,0,,38.990312,-76.939600,-11.977000,,,
2026-09-11T19:03:53.040,0.634894,-0.000000,-0.000000,-0.000000,0.000000,5.075134,-1.746032,-0.000000,-0.001879,-0.003956,-0.000406,-0.000000,-0.000193,0.013863,0.001486,-0.002472,0.500237,-0.004609,9.713585,0.556063,-0.407401,0,0,,38.990312,-76.939600,-11.977000,,,
2026-09-11T19:03:53.075,0.668308,-0.000000,-0.000000,-0.000000,0.000000,5.075134,-1.746032,-0.000000,-0.001109,-0.002335,-0.000512,-0.000000,-0.000243,0.018420,0.000411,-0.000851,0.518380,-0.005001,9.700248,0.556445,-0.408113,0,0,,38.990312,-76.939600,-11.977000,,,
2026-09-11T19:03:53.109,0.701724,-0.000000,-0.000000,-0.000000,0.000000,5.075134,-1.746032,-0.000000,-0.001832,-0.003857,-0.000615,-0.000000,-0.000292,0.017807,0.001214,-0.002373,0.500728,0.007159,9.693187,0.555679,-0.408030,0,0,,38.990312,-76.939600,-11.977000,,,
2026-09-11T19:03:53.141,0.735143,-0.000000,-0.000000,-0.000000,0.000000,5.075134,-1.746032,-0.000000,-0.001798,-0.003786,-0.000743,-0.000000,-0.000353,0.016632,0.001152,-0.002303,0.508083,-0.000785,9.695835,0.555398,-0.408462,0,0,,38.990312,-76.939600,-11.977000,,,
2026-09-11T19:03:53.174,0.768552,-0.000000,-0.000000,-0.000000,0.000000,5.075134,-1.746032,-0.000000,-0.000819,-0.001723,-0.000835,-0.000000,-0.000396,0.017065,0.001414,-0.000240,0.534168,-0.010787,9.701229,0.556810,-0.409536,0,0,,38.990312,-76.939600,-11.977000,,,
2026-09-11T19:03:53.207,0.801957,-0.000000,-0.000000,-0.000000,0.000000,5.075134,-1.746032,-0.000000,-0.002446,-0.005150,-0.000950,-0.000000,-0.000451,0.017778,-0.000127,-0.003667,0.535737,0.032558,9.693089,0.558307,-0.407795,0,1,0.788231,38.990313,-76.939600,-11.984000,0.010947,0.005560,4.092057
2026-09-11T19:03:53.242,0.835376,-0.000000,-0.000000,-0.000000,0.000000,5.075134,-1.746032,-0.000000,-0.001154,-0.002429,-0.001076,-0.000000,-0.000511,0.009285,0.000483,-0.000945,0.496805,0.070118,9.704171,0.557267,-0.403642,0,0,,38.990313,-76.939600,-11.984000,,,
2026-09-11T19:03:53.275,0.868792,-0.000000,-0.000000,-0.000000,0.000000,5.075134,-1.746032,-0.000000,0.000185,0.000389,-0.001110,-0.000000,-0.000527,-0.004923,-0.000760,0.001872,0.502983,0.024909,9.675928,0.556638,-0.402460,0,0,,38.990313,-76.939600,-11.984000,,,
2026-09-11T19:03:53.308,0.902210,-0.000000,-0.000000,-0.000000,0.000000,5.075134,-1.746032,-0.000000,-0.000240,-0.000506,-0.001112,-0.000000,-0.000528,-0.019328,0.000659,0.000978,0.544073,0.062959,9.698777,0.558678,-0.398830,0,0,,38.990313,-76.939600,-11.984000,,,
2026-09-11T19:03:53.340,0.935614,-0.000000,-0.000000,-0.000000,0.000000,5.075134,-1.746032,-0.000000,0.001258,0.002648,-0.001076,-0.000000,-0.000511,-0.024161,0.001367,0.004131,0.560156,0.009905,9.700640,0.561736,-0.398672,0,0,,38.990313,-76.939600,-11.984000,,,
2026-09-11T19:03:53.374,0.969022,-0.000000,-0.000000,-0.000000,0.000000,5.075134,-1.746032,-0.000000,0.000465,0.000979,-0.001016,-0.000000,-0.000483,-0.024690,0.000671,0.002463,0.547309,-0.019809,9.700346,0.563929,-0.400438,0,0,,38.990313,-76.939600,-11.984000,,,
2026-09-11T19:03:53.409,1.002431,-0.000000,-0.000000,-0.000000,0.000000,5.075134,-1.746032,-0.000000,0.000056,0.000118,-0.000998,-0.000000,-0.000474,-0.005820,0.000089,0.001602,0.498962,-0.036088,9.699365,0.562966,-0.403238,0,0,,38.990313,-76.939600,-11.984000,,,
2026-09-11T19:03:53.442,1.035851,-0.000000,-0.000000,-0.000000,0.000000,5.075134,-1.746032,-0.000000,-0.001735,-0.003652,-0.001057,-0.000000,-0.000502,0.013878,-0.000016,-0.002169,0.464051,-0.042463,9.719077,0.559751,-0.406419,0,0,,38.990313,-76.939600,-11.984000,,,
2026-09-11T19:03:53.475,1.069273,-0.000000,-0.000000,-0.000000,0.000000,5.075134,-1.746032,-0.000000,-0.001995,-0.004200,-0.001188,-0.000000,-0.000564,0.025002,-0.000871,-0.002717,0.444437,-0.036677,9.702013,0.555301,-0.409192,0,0,,38.990313,-76.939600,-11.984000,,,
2026-09-11T19:03:53.508,1.102689,-0.000000,-0.000000,-0.000000,0.000000,5.075134,-1.746032,-0.000000,-0.002038,-0.004291,-0.001330,-0.000000,-0.000632,0.039532,-0.001567,-0.002807,0.473563,0.003040,9.707897,0.552788,-0.409363,0,0,,38.990313,-76.939600,-11.984000,,,
2026-09-11T19:03:53.541,1.136094,-0.000000,-0.000000,-0.000000,0.000000,5.075134,-1.746032,-0.000000,-0.002385,-0.005021,-0.001485,-0.000001,-0.000705,0.034626,-0.001086,-0.003538,0.498962,0.029518,9.744280,0.551948,-0.407821,0,0,,38.990313,-76.939600,-11.984000,,,
2026-09-11T19:03:53.574,1.169505,-0.000000,-0.000000,-0.000000,0.000000,5.075134,-1.746032,-0.000000,-0.002524,-0.005313,-0.001658,-0.000001,-0.000787,0.022707,0.001217,-0.003830,0.514065,0.099930,9.713389,0.552096,-0.401740,0,0,,38.990313,-76.939600,-11.984000,,,
2026-09-11T19:03:53.610,1.202920,-0.000000,-0.000000,-0.000000,0.000000,5.075134,-1.746032,-0.000000,-0.000420,-0.000884,-0.001761,-0.000001,-0.000837,-0.003850,-0.000594,0.000600,0.579671,0.098753,9.661904,0.556493,-0.395802,0,0,,38.990313,-76.939600,-11.984000,,,
2026-09-11T19:03:53.643,1.236340,-0.000000,-0.000000,-0.000000,0.000000,5.075134,-1.746032,-0.000000,0.000506,0.001066,-0.001758,-0.000001,-0.000835,-0.026361,-0.000149,0.002549,0.586438,0.111796,9.675339,0.561279,-0.389085,0,0,,38.990313,-76.939600,-11.984000,,,
2026-09-11T19:03:53.675,1.269761,-0.000000,-0.000000,-0.000000,0.000000,5.075134,-1.746032,-0.000000,0.001507,0.003173,-0.001687,-0.000001,-0.000802,-0.038496,0.002074,0.004657,0.586438,0.042071,9.698189,0.566013,-0.386954,0,0,,38.990313,-76.939600,-11.984000,,,
2026-09-11T19:03:53.709,1.303169,-0.000000,-0.000000,-0.000000,0.000000,5.075134,-1.746032,-0.000000,0.001725,0.003632,-0.001574,-0.000001,-0.000748,-0.043553,0.000010,0.005115,0.550055,-0.000785,9.705151,0.568336,-0.387620,0,0,,38.990313,-76.939600,-11.984000,,,
2026-09-11T19:03:53.742,1.336588,-0.000000,-0.000000,-0.000000,0.000000,5.075134,-1.746032,-0.000000,0.001568,0.003302,-0.001458,-0.000001,-0.000693,-0.035378,0.000312,0.004786,0.516320,0.001177,9.737513,0.568449,-0.388151,0,0,,38.990313,-76.939600,-11.984000,,,
2026-09-11T19:03:53.777,1.370037,-0.000000,-0.000000,-0.000000,0.000000,5.075134,-1.746032,-0.000000,0.001645,0.003462,-0.001345,-0.000000,-0.000639,-0.014121,0.001218,0.004946,0.471602,-0.063841,9.726824,0.565660,-0.392887,0,0,,38.990313,-76.939600,-11.984000,,,
2026-09-11T19:03:53.809,1.403453,-0.000000,-0.000000,-0.000000,0.000000,5.075134,-1.746032,-0.000000,-0.000239,-0.000504,-0.001295,-0.000000,-0.000615,-0.004989,0.001141,0.000980,0.457872,-0.050014,9.708682,0.562016,-0.396672,0,0,,38.990313,-76.939600,-11.984000,,,
2026-09-11T19:03:53.842,1.436857,-0.000000,-0.000000,-0.000000,0.000000,5.141738,-1.768947,-0.000000,-0.001676,-0.003528,-0.001363,-0.000000,-0.000647,0.007087,-0.000417,-0.002044,0.452577,-0.033735,9.696325,0.558070,-0.399360,0,0,,38.990313,-76.939600,-11.984000,,,
2026-09-11T19:03:53.877,1.470273,-0.000000,-0.000000,-0.000000,0.000000,5.141738,-1.768947,-0.000000,-0.001860,-0.003915,-0.001487,-0.000001,-0.000706,0.016872,-0.001293,-0.002431,0.497393,-0.010591,9.696914,0.557070,-0.400523,0,0,,38.990313,-76.939600,-11.984000,,,
2026-09-11T19:03:53.911,1.503696,-0.000000,-0.000000,-0.000000,0.000000,5.141738,-1.768947,-0.000000,-0.001390,-0.002927,-0.001601,-0.000001,-0.000761,0.015205,-0.000286,-0.001444,0.517301,-0.003923,9.683969,0.557371,-0.401241,0,0,,38.990313,-76.939600,-11.984000,,,
2026-09-11T19:03:53.942,1.537116,-0.000000,-0.000000,-0.000000,0.000000,5.141738,-1.768947,-0.000000,-0.001713,-0.003607,-0.001711,-0.000001,-0.000813,0.012311,0.001240,-0.002123,0.532795,0.026576,9.694854,0.558673,-0.399978,0,0,,38.990313,-76.939600,-11.984000,,,
2026-09-11T19:03:53.975,1.570525,-0.000000,-0.000000,-0.000000,0.000000,5.141738,-1.768947,-0.000000,-0.001634,-0.003439,-0.001828,-0.000001,-0.000868,0.005708,0.001614,-0.001955,0.546819,0.019123,9.695443,0.560867,-0.399211,0,0,,38.990313,-76.939600,-11.984000,,,
2026-09-11T19:03:54.011,1.603948,-0.000000,-0.000000,-0.000000,0.000000,5.141738,-1.768947,-0.000000,-0.000326,-0.000686,-0.001897,-0.000001,-0.000901,-0.007555,0.001898,0.000798,0.547113,0.030204,9.712506,0.563058,-0.397736,0,0,,38.990313,-76.939600,-11.984000,,,
2026-09-11T19:03:54.043,1.637368,-0.000000,-0.000000,-0.000000,0.000000,5.141738,-1.768947,-0.000000,-0.000118,-0.000248,-0.001913,-0.000001,-0.000909,-0.014032,0.001467,0.001235,0.524165,0.014416,9.705936,0.563737,-0.397298,0,0,,38.990313,-76.939600,-11.984000,,,
2026-09-11T19:03:54.076,1.670777,-0.000000,-0.000000,-0.000000,0.000000,5.141738,-1.768947,-0.000000,0.000536,0.001128,-0.001898,-0.000001,-0.000902,-0.013970,0.000579,0.002612,0.518085,-0.009218,9.697502,0.564015,-0.398394,0,0,,38.990313,-76.939600,-11.984000,,,
2026-09-11T19:03:54.109,1.704190,-0.000000,-0.000000,-0.000000,0.000000,5.141738,-1.768947,-0.000000,-0.000795,-0.001673,-0.001907,-0.000001,-0.000906,-0.009083,0.001195,-0.000190,0.494059,-0.022065,9.688186,0.562733,-0.400310,0,0,,38.990313,-76.939600,-11.984000,,,
2026-09-11T19:03:54.142,1.737600,-0.000000,-0.000000,-0.000000,0.000000,5.141738,-1.768947,-0.000000,-0.000064,-0.000135,-0.001937,-0.000001,-0.000920,0.000162,0.001504,0.001348,0.504454,-0.011670,9.692305,0.562139,-0.401531,0,0,,38.990313,-76.939600,-11.984000,,,
2026-09-11T19:03:54.176,1.771015,-0.000000,-0.000000,-0.000000,0.000000,5.141738,-1.768947,-0.000000,-0.000904,-0.001903,-0.001972,-0.000001,-0.000936,0.003396,-0.000911,-0.000419,0.490627,-0.018633,9.703092,0.560656,-0.403190,0,1,1.759195,38.990313,-76.939599,-11.991000,0.020598,0.012787,4.091512
2026-09-11T19:03:54.211,1.804486,-0.000000,-0.000000,-0.000000,0.000000,5.075134,-1.746032,-0.000000,0.000541,0.001140,-0.001984,-0.000001,-0.000943,0.001253,0.000787,0.002623,0.446006,0.109442,9.699365,0.556291,-0.396533,0,0,,38.990313,-76.939599,-11.991000,,,
2026-09-11T19:03:54.244,1.837906,-0.000000,-0.000000,-0.000000,0.000000,5.031188,-1.730913,-0.000000,0.000282,0.000594,-0.001955,-0.000001,-0.000929,-0.008282,0.002190,0.002078,0.552016,-0.114247,9.729374,0.558850,-0.404434,0,0,,38.990313,-76.939599,-11.991000,,,
2026-09-11T19:03:54.277,1.871318,-0.000000,-0.000000,-0.000000,0.000000,5.031188,-1.730913,-0.000000,-0.001289,-0.002714,-0.001991,-0.000001,-0.000946,-0.006575,0.001370,-0.001230,0.652142,0.059624,9.703582,0.567865,-0.400998,0,0,,38.990313,-76.939599,-11.991000,,,
2026-09-11T19:03:54.311,1.904724,-0.000000,-0.000000,-0.000000,0.000000,4.943298,-1.700676,-0.000000,-0.001837,-0.003868,-0.002101,-0.000001,-0.000998,0.012117,0.000532,-0.002384,0.545936,-0.066195,9.707211,0.569901,-0.405738,0,0,,38.990313,-76.939599,-11.991000,,,
2026-09-11T19:03:54.345,1.938132,-0.000000,-0.000000,-0.000000,0.000000,4.943298,-1.700676,-0.000000,-0.002278,-0.004797,-0.002245,-0.000001,-0.001067,0.020773,0.000204,-0.003313,0.505533,0.025791,9.700052,0.569298,-0.404476,0,0,,38.990313,-76.939599,-11.991000,,,
2026-09-11T19:03:54.378,1.971554,-0.000000,-0.000000,-0.000000,0.000000,4.943298,-1.700676,-0.000000,0.000105,0.000220,-0.002322,-0.000001,-0.001103,0.010915,0.000915,0.001704,0.376771,0.031283,9.714173,0.560357,-0.402873,0,0,,38.990313,-76.939599,-11.991000,,,
2026-09-11T19:03:54.410,2.004961,-0.000000,-0.000000,-0.000000,0.000000,4.943298,-1.700676,-0.000000,-0.000480,-0.001010,-0.002335,-0.000001,-0.001109,-0.003335,0.000153,0.000474,0.386872,-0.008532,9.725647,0.552174,-0.403863,0,0,,38.990313,-76.939599,-11.991000,,,
2026-09-11T19:03:54.444,2.038367,-0.000000,-0.000000,-0.000000,0.000000,4.943298,-1.700676,-0.000000,-0.000029,-0.000060,-0.002353,-0.000001,-0.001118,-0.005621,-0.000238,0.001423,0.570257,0.019123,9.682008,0.555959,-0.403053,0,0,,38.990313,-76.939599,-11.991000,,,
2026-09-11T19:03:54.478,2.071771,-0.000000,-0.000000,-0.000000,0.000000,4.943298,-1.700676,-0.000000,-0.000476,-0.001002,-0.002371,-0.000001,-0.001126,0.007396,0.000691,0.000482,0.595264,-0.053544,9.698287,0.561321,-0.406952,0,0,,38.990313,-76.939599,-11.991000,,,
2026-09-11T19:03:54.512,2.105178,-0.000000,-0.000000,-0.000000,0.000000,4.943298,-1.700676,-0.000000,-0.000869,-0.001829,-0.002418,-0.000001,-0.001149,0.005363,0.000134,-0.000345,0.580946,0.075707,9.680733,0.565696,-0.402449,0,0,,38.990313,-76.939599,-11.991000,,,
2026-09-11T19:03:54.545,2.138597,-0.000000,-0.000000,-0.000000,0.000000,4.855407,-1.670438,-0.000000,0.001284,0.002702,-0.002403,-0.000001,-0.001142,-0.006939,-0.001286,0.004186,0.457578,0.069529,9.738984,0.562032,-0.398393,0,0,,38.990313,-76.939599,-11.991000,,,
2026-09-11T19:03:54.577,2.172024,-0.000000,-0.000000,-0.000000,0.000000,4.767517,-1.640201,-0.000000,0.000730,0.001536,-0.002333,-0.000001,-0.001108,-0.019493,0.002722,0.003020,0.505435,-0.064920,9.714566,0.561509,-0.403083,0,0,,38.990313,-76.939599,-11.991000,,,
2026-09-11T19:03:54.610,2.205434,-0.000000,-0.000000,-0.000000,0.000000,4.767517,-1.640201,-0.000000,-0.001251,-0.002635,-0.002351,-0.000001,-0.001117,-0.017362,0.000235,-0.001151,0.581632,-0.013729,9.703092,0.565928,-0.404407,0,0,,38.990313,-76.939599,-11.991000,,,
2026-09-11T19:03:54.645,2.238860,-0.000000,-0.000000,-0.000000,0.000000,4.755844,-1.636185,-0.000000,0.001156,0.002433,-0.002354,-0.000001,-0.001118,-0.007210,-0.001200,0.003916,0.509652,-0.016377,9.696521,0.565635,-0.405888,0,0,,38.990313,-76.939599,-11.991000,,,
2026-09-11T19:03:54.678,2.272280,-0.000000,-0.000000,-0.000000,0.000000,4.639114,-1.596025,-0.000000,-0.000301,-0.000633,-0.002324,-0.000001,-0.001104,0.004435,0.000556,0.000850,0.498570,-0.025890,9.707897,0.564627,-0.407968,0,0,,38.990313,-76.939599,-11.991000,,,
2026-09-11T19:03:54.711,2.305702,-0.000000,-0.000000,-0.000000,0.000000,4.591735,-1.579725,-0.000000,-0.001394,-0.002935,-0.002384,-0.000001,-0.001132,0.001424,0.000168,-0.001451,0.503277,-0.008336,9.693089,0.563936,-0.408889,0,0,,38.990313,-76.939599,-11.991000,,,
2026-09-11T19:03:54.744,2.339105,-0.000000,-0.000000,-0.000000,0.000000,4.535430,-1.560354,-0.000000,0.000899,0.001892,-0.002401,-0.000001,-0.001141,-0.005937,-0.000075,0.003376,0.458755,0.022359,9.714958,0.560369,-0.407815,0,0,,38.990313,-76.939599,-11.991000,,,
2026-09-11T19:03:54.779,2.372512,-0.000000,-0.000000,-0.000000,0.000000,4.332183,-1.490430,-0.000000,-0.000220,-0.000464,-0.002377,-0.000001,-0.001129,-0.011328,-0.000235,0.001020,0.558391,-0.023830,9.696914,0.563294,-0.409739,0,0,,38.990313,-76.939599,-11.991000,,,
2026-09-11T19:03:54.813,2.405939,-0.000000,-0.000000,-0.000000,0.000000,4.152282,-1.428537,-0.000000,0.001766,0.003718,-0.002323,-0.000001,-0.001103,-0.024208,-0.000161,0.005201,0.532207,0.049327,9.694658,0.551806,-0.406910,0,0,,38.990313,-76.939599,-11.991000,,,
2026-09-11T19:03:54.845,2.439362,-0.000000,-0.000000,-0.000000,0.000000,4.108337,-1.413419,-0.000000,-0.000427,-0.000900,-0.002276,-0.000001,-0.001081,-0.012610,0.002771,0.000584,0.517007,-0.211039,9.701131,0.525968,-0.420959,0,0,,38.990313,-76.939599,-11.991000,,,
2026-09-11T19:03:54.878,2.472773,-0.000000,-0.000000,-0.000000,0.000000,4.082931,-1.404678,-0.000000,-0.001390,-0.002926,-0.002340,-0.000001,-0.001111,-0.020136,-0.000049,-0.001442,0.601638,-0.022359,9.696521,0.516311,-0.422643,0,0,,38.990313,-76.939599,-11.991000,,,
2026-09-11T19:03:54.912,2.506177,-0.000000,-0.000000,-0.000000,0.000000,3.976501,-1.368062,-0.000000,0.001153,0.002427,-0.002348,-0.000001,-0.001115,-0.049020,0.005515,0.003910,0.788455,0.109736,9.608458,0.531936,-0.415766,0,0,,38.990313,-76.939599,-11.991000,,,
2026-09-11T19:03:54.944,2.539601,-0.000000,-0.000000,-0.000000,0.000000,-0.402237,0.138384,-0.000000,0.012313,0.025923,-0.001874,-0.000001,-0.000890,0.025541,0.005902,0.027406,1.139140,0.057761,9.630621,0.572401,-0.412324,0,0,,38.990313,-76.939599,-11.991000,,,
2026-09-11T19:03:54.980,2.573005,-0.000000,-0.000000,-0.000000,0.000000,-5.428483,1.867597,-0.000000,0.009037,0.019025,-0.001124,-0.000000,-0.000534,0.050086,-0.003119,0.020508,0.742756,-0.792083,9.583059,0.586514,-0.463883,0,0,,38.990313,-76.939599,-11.991000,,,
2026-09-11T19:03:55.013,2.606429,-0.000000,-0.000000,-0.000000,0.000000,-5.559632,1.912717,-0.000000,-0.005407,-0.011384,-0.000996,-0.000000,-0.000473,0.020528,-0.000919,-0.009900,0.672638,0.047758,9.793803,0.595316,-0.460555,0,0,,38.990313,-76.939599,-11.991000,,,
2026-09-11T19:03:55.045,2.639840,-0.000000,-0.000000,-0.000000,0.000000,-5.559632,1.912717,-0.000000,-0.000054,-0.000113,-0.001188,-0.000000,-0.000564,-0.009413,0.001801,0.001370,0.540543,0.445614,9.781545,0.595460,-0.431530,0,0,,38.990313,-76.939599,-11.991000,,,
2026-09-11T19:03:55.079,2.673249,0.196392,0.003076,1.818442,0.000000,-5.559632,1.912717,0.196282,0.002969,0.006251,-0.001085,0.003279,-0.000519,-0.041334,0.000826,0.007735,0.561725,-0.314401,9.760951,0.596977,-0.452066,0,0,,38.990313,-76.939599,-11.991000,,,
2026-09-11T19:03:55.112,2.706655,0.208853,0.015386,1.933823,0.000000,-5.742966,1.975791,0.208729,0.001321,0.002781,-0.000935,0.010044,-0.000454,-0.035312,0.002764,0.004264,0.571924,0.210647,9.679360,0.580448,-0.438373,0,0,,38.990313,-76.939599,-11.991000,,,
2026-09-11T19:03:55.147,2.740071,0.035270,0.015506,0.326574,0.000000,-7.055146,2.427229,0.035238,0.005593,0.011774,-0.000691,0.014120,-0.000342,-0.033815,0.001115,0.013258,0.602423,-0.097968,9.670240,0.555544,-0.444783,0,0,,38.990313,-76.939599,-11.991000,,,
2026-09-11T19:03:55.180,2.773491,0.006340,0.015375,0.058699,0.000000,-9.248292,3.181752,0.006330,0.009326,0.019633,-0.000167,0.014814,-0.000094,-0.040268,0.001469,0.021116,0.543092,0.087671,9.705838,0.544665,-0.439093,0,1,2.769229,38.990313,-76.939599,-11.979000,0.023335,0.019830,4.113782
2026-09-11T19:03:55.212,2.806901,-0.000000,0.015324,-0.000000,0.000000,-12.671906,4.359601,-0.000000,0.011195,0.023569,0.000555,0.014920,0.000249,-0.041336,0.003112,0.025052,0.531717,-0.057075,9.710839,0.543221,-0.442821,0,0,,38.990313,-76.939599,-11.979000,,,
2026-09-11T19:03:55.245,2.840310,0.009643,0.015591,0.089292,0.000000,-18.620321,6.406074,0.009583,0.010666,0.022455,0.001324,0.015080,0.000615,-0.047976,0.002774,0.023938,0.527990,0.011180,9.700444,0.542181,-0.442108,0,0,,38.990313,-76.939599,-11.979000,,,
2026-09-11T19:03:55.280,2.873716,0.009643,0.015910,0.089292,0.000000,-18.655340,6.418122,0.009583,0.011922,0.025100,0.002118,0.015399,0.000992,-0.046082,0.003188,0.026583,0.554664,-0.217806,9.683577,0.523817,-0.456214,0,0,,38.990313,-76.939599,-11.979000,,,
2026-09-11T19:03:55.313,2.907133,0.009643,0.016235,0.089292,0.000000,-20.209219,6.952713,0.009573,0.009696,0.020413,0.002879,0.015719,0.001354,-0.029825,0.003234,0.021897,0.513084,-0.194956,9.676712,0.509016,-0.468687,0,0,,38.990313,-76.939599,-11.979000,,,
2026-09-11T19:03:55.346,2.940548,0.009643,0.016560,0.089292,0.000000,-21.250174,7.310840,0.009565,0.007454,0.015692,0.003482,0.016037,0.001642,-0.025595,0.002546,0.017176,0.577514,-0.229966,9.710349,0.530078,-0.483284,0,0,,38.990313,-76.939599,-11.979000,,,
2026-09-11T19:03:55.379,2.973959,0.301380,0.024079,2.790555,0.000000,-21.467840,7.385725,0.298880,0.003023,0.006364,0.003850,0.021189,0.001837,-0.009722,0.004714,0.007848,0.739716,-0.158770,9.670534,0.556594,-0.493224,0,0,,38.990313,-76.939599,-11.979000,,,
2026-09-11T19:03:55.413,3.007369,0.173931,0.030898,1.610472,0.000000,-21.511786,7.400844,0.172482,0.003059,0.006439,0.004064,0.029063,0.001969,0.013673,-0.000394,0.007923,0.776981,-0.193583,9.719861,0.554744,-0.505255,0,0,,38.990313,-76.939599,-11.979000,,,
2026-09-11T19:03:55.448,3.040792,0.026874,0.031052,0.248837,0.000000,-21.511786,7.400844,0.026650,0.004613,0.009712,0.004334,0.032390,0.002111,0.037708,-0.000276,0.011195,0.775118,-0.092869,9.721528,0.545925,-0.510585,0,0,,38.990313,-76.939599,-11.979000,,,
2026-09-11T19:03:55.481,3.074216,0.017071,0.031274,0.158061,0.000000,-21.664221,7.453287,0.016926,0.004913,0.010344,0.004669,0.033118,0.002274,0.042197,0.001455,0.011827,0.749326,0.001177,9.696718,0.548575,-0.509766,0,0,,38.990313,-76.939599,-11.979000,,,
2026-09-11T19:03:55.514,3.107628,0.017071,0.031843,0.158061,0.000000,-22.970221,7.902599,0.016908,0.013665,0.028768,0.005323,0.033681,0.002587,0.098374,-0.020659,0.030252,3.573445,-2.767241,8.709384,0.725519,-0.688060,0,0,,38.990313,-76.939599,-11.979000,,,
2026-09-11T19:03:55.546,3.141038,0.315349,0.041693,2.919895,0.000000,-24.026968,8.266159,0.312072,0.003071,0.006466,0.005911,0.039175,0.002899,0.066437,-0.019633,0.007950,-1.312130,1.033523,5.760819,0.574152,-0.618618,0,0,,38.990313,-76.939599,-11.979000,,,
2026-09-11T19:03:55.580,3.174445,0.120973,0.046335,1.120125,0.000000,-26.895773,9.253133,0.119399,-0.002685,-0.005653,0.005925,0.046382,0.002948,0.037573,0.014254,-0.004169,0.640080,-0.056584,7.468451,0.549071,-0.620283,0,0,,38.990313,-76.939599,-11.979000,,,
2026-09-11T19:03:55.614,3.207865,0.033505,0.046603,0.310229,0.000000,-30.130560,10.366018,0.032958,0.019507,0.041067,0.006517,0.048926,0.003244,0.025252,0.003669,0.042551,1.434419,0.733243,10.781235,0.588842,-0.570958,0,0,,38.990313,-76.939599,-11.979000,,,
2026-09-11T19:03:55.648,3.241286,0.033505,0.047725,0.310229,0.000000,-31.751730,10.923760,0.032898,0.019171,0.040360,0.007877,0.050022,0.003899,-0.019767,-0.000628,0.041843,1.057941,-0.465424,10.115265,0.609379,-0.599736,0,0,,38.990313,-76.939599,-11.979000,,,
2026-09-11T19:03:55.680,3.274775,0.308453,0.058030,2.856048,0.000000,-32.811224,11.288265,0.302486,0.016727,0.035215,0.009143,0.055633,0.004550,-0.040202,0.001225,0.036698,0.776883,0.319991,9.869707,0.589468,-0.577933,0,0,,38.990313,-76.939599,-11.979000,,,
2026-09-11T19:03:55.713,3.308185,0.105940,0.062160,0.980924,0.000000,-32.893622,11.316613,0.103880,0.018973,0.039944,0.010398,0.062415,0.005211,-0.069362,0.000256,0.041428,0.881128,0.072569,9.589727,0.562787,-0.572007,0,0,,38.990313,-76.939599,-11.979000,,,
2026-09-11T19:03:55.747,3.341593,0.105940,0.065498,0.980924,0.000000,-32.893622,11.316613,0.103880,0.019700,0.041474,0.011758,0.065878,0.005895,-0.082846,0.005385,0.042958,1.481981,0.111109,9.591198,0.571568,-0.563664,0,0,,38.990313,-76.939599,-11.979000,,,
2026-09-11T19:03:55.781,3.374999,0.251808,0.075068,2.331556,0.000000,-32.937567,11.331732,0.246899,0.026045,0.054831,0.013367,0.071727,0.006735,-0.079856,0.006939,0.056315,1.451776,0.282333,9.956300,0.590523,-0.544937,0,0,,38.990313,-76.939599,-11.979000,,,
2026-09-11T19:03:55.815,3.408424,0.261612,0.083995,2.422332,0.000000,-33.034384,11.365040,0.256482,0.027176,0.057212,0.015239,0.080126,0.007745,-0.063988,0.003638,0.058695,1.559454,0.001373,9.576978,0.616660,-0.544662,0,0,,38.990313,-76.939599,-11.979000,,,
2026-09-11T19:03:55.847,3.441847,0.281146,0.092260,2.603206,0.000000,-33.025458,11.361969,0.275636,0.030470,0.064147,0.017268,0.089002,0.008853,-0.034452,0.006571,0.065630,1.649282,0.037756,9.535300,0.627759,-0.542231,0,0,,38.990313,-76.939599,-11.979000,,,
2026-09-11T19:03:55.880,3.475258,0.349783,0.104474,3.238727,0.000000,-33.069403,11.377088,0.342909,0.036230,0.076274,0.019613,0.099312,0.010159,-0.020349,0.005507,0.077758,1.696649,-0.171714,9.620618,0.633707,-0.553925,1,0,,38.990313,-76.939599,-11.979000,,,
2026-09-11T19:03:55.914,3.508669,0.359507,0.116146,3.328769,0.000000,-33.069403,11.377088,0.352443,0.036839,0.077555,0.022183,0.110900,0.011622,-0.014898,0.014996,0.079039,1.704788,-0.033245,9.828323,0.652572,-0.556609,1,0,,38.990313,-76.939599,-11.979000,,,
2026-09-11T19:03:55.949,3.542089,0.418330,0.130484,3.873424,0.000000,-33.069403,11.377088,0.410110,0.043845,0.092306,0.025022,0.123607,0.013272,-0.020893,-0.003453,0.093789,1.600347,0.248402,9.870295,0.664725,-0.541721,1,0,,38.990313,-76.939599,-11.979000,,,
2026-09-11T19:03:55.981,3.575514,0.418330,0.144440,3.873424,0.000000,-33.134634,11.399530,0.410077,0.047694,0.100409,0.028242,0.137268,0.015166,-0.004899,-0.001326,0.101892,1.448540,-0.087868,9.580411,0.650286,-0.548972,1,0,,38.990313,-76.939599,-11.979000,,,
2026-09-11T19:03:56.014,3.608924,0.467604,0.160892,4.329665,0.000000,-33.157293,11.407326,0.458367,0.051822,0.109099,0.031742,0.151720,0.017264,0.005639,-0.004912,0.110583,1.488159,-0.442868,9.602672,0.643934,-0.579673,1,0,,38.990313,-76.939599,-11.979000,,,
2026-09-11T19:03:56.047,3.642336,0.526427,0.178499,4.874320,0.000000,-33.157293,11.407326,0.516027,0.054331,0.114380,0.035476,0.167929,0.019585,0.008496,0.006142,0.115864,1.576419,-0.459736,8.925425,0.647955,-0.611710,1,0,,38.990313,-76.939599,-11.979000,,,
2026-09-11T19:03:56.082,3.675743,0.566100,0.196466,5.241670,0.000000,-33.157293,11.407326,0.554918,0.059729,0.125745,0.039487,0.185733,0.022161,0.031557,-0.008277,0.127228,1.643987,-0.013239,9.916289,0.652085,-0.615205,1,0,,38.990313,-76.939599,-11.979000,,,
2026-09-11T19:03:56.115,3.709170,0.566100,0.215504,5.241670,0.000000,-33.090689,11.384411,0.554962,0.059450,0.125157,0.043680,0.204184,0.024922,0.050252,-0.010176,0.126641,1.534152,0.251246,9.497152,0.649940,-0.601526,1,0,,38.990313,-76.939599,-11.979000,,,
2026-09-11T19:03:56.148,3.742590,0.605401,0.236729,5.605561,0.000000,-33.090689,11.384411,0.593489,0.062872,0.132362,0.047983,0.223261,0.027845,0.064384,-0.030925,0.133845,1.545920,0.322639,10.165770,0.649067,-0.583971,1,0,,38.990313,-76.939599,-11.979000,,,
2026-09-11T19:03:56.181,3.776002,0.644598,0.258763,5.968498,0.000000,-33.201239,11.422445,0.631831,0.067408,0.141912,0.052565,0.243596,0.031049,0.083864,-0.025806,0.143395,1.272021,0.342546,9.885398,0.628977,-0.566045,1,1,3.765302,38.990311,-76.939598,-11.945000,0.142748,-0.156970,4.229054
2026-09-11T19:03:56.214,3.809411,0.673997,0.282039,6.240716,0.000000,-33.090689,11.384411,0.660736,0.065670,0.138253,0.057245,0.265033,0.034454,0.087787,-0.054087,0.139736,1.645164,0.161417,10.176655,0.632971,-0.560144,1,0,,38.990311,-76.939598,-11.945000,,,
2026-09-11T19:03:56.250,3.842831,0.703470,0.306300,6.513612,0.000000,-32.433569,11.158338,0.690172,0.062936,0.132496,0.061769,0.287438,0.037943,0.072385,-0.024449,0.133980,1.428437,-0.119053,9.153037,0.624550,-0.572460,1,0,,38.990311,-76.939598,-11.945000,,,
2026-09-11T19:03:56.282,3.876259,0.732966,0.331661,6.786726,0.000000,-30.512335,10.497363,0.720699,0.058256,0.122644,0.066034,0.310842,0.041471,0.068491,0.005735,0.124127,1.473449,-0.262230,10.044559,0.623449,-0.593711,1,0,,38.990311,-76.939598,-11.945000,,,
2026-09-11T19:03:56.315,3.909683,0.781857,0.357705,7.239414,0.000000,-26.784537,9.214863,0.771767,0.055806,0.117485,0.070047,0.335597,0.045071,0.059692,0.014275,0.118969,1.851201,0.271056,7.991243,0.650586,-0.580362,1,0,,38.990311,-76.939598,-11.945000,,,
2026-09-11T19:03:56.348,3.943094,0.820740,0.385037,7.599441,0.000000,-19.653723,6.761602,0.815031,0.038001,0.080002,0.073346,0.361925,0.048534,0.085575,-0.073640,0.081485,1.404018,0.391285,12.343336,0.650340,-0.557742,1,0,,38.990311,-76.939598,-11.945000,,,
2026-09-11T19:03:56.382,3.976503,0.849728,0.413491,7.867850,0.000000,-18.149283,6.244019,0.844687,0.041948,0.088311,0.076157,0.389473,0.051937,0.044124,0.007280,0.089795,2.026446,0.216433,8.205322,0.691689,-0.547291,1,0,,38.990311,-76.939598,-11.945000,,,
2026-09-11T19:03:56.417,4.009927,0.888634,0.443352,8.228095,0.000000,-16.889975,5.810771,0.884068,0.036528,0.076900,0.078918,0.418175,0.055483,0.020381,0.005492,0.078384,1.712633,-0.060801,10.589417,0.717225,-0.554463,1,0,,38.990311,-76.939598,-11.945000,,,
2026-09-11T19:03:56.449,4.043351,0.937499,0.474768,8.680544,0.000000,-12.904684,4.439685,0.934686,0.029272,0.061625,0.081233,0.448385,0.059012,0.036512,0.043174,0.063109,1.104817,-0.026674,11.742581,0.708637,-0.558675,1,0,,38.990311,-76.939598,-11.945000,,,
2026-09-11T19:03:56.482,4.076760,0.947384,0.506025,8.772070,0.000000,-6.667882,2.293996,0.946624,0.007669,0.016146,0.082533,0.479656,0.062197,0.003634,0.012277,0.017629,0.302829,0.353236,7.357243,0.655644,-0.535529,1,0,,38.990311,-76.939598,-11.945000,,,
2026-09-11T19:03:56.515,4.110171,0.957399,0.538102,8.864806,0.000000,-0.741444,0.255084,0.957390,-0.005354,-0.011271,0.082614,0.511352,0.064859,-0.027524,-0.019643,-0.009787,0.953108,-0.826701,12.043743,0.652262,-0.587275,1,0,,38.990311,-76.939598,-11.945000,,,
2026-09-11T19:03:56.549,4.143581,0.987028,0.571061,9.139146,0.000000,7.825833,-2.692374,0.985938,-0.020249,-0.042629,0.081714,0.543740,0.067097,-0.019692,-0.018450,-0.041145,0.728536,-1.185918,10.684934,0.639563,-0.659662,1,0,,38.990311,-76.939598,-11.945000,,,
2026-09-11T19:03:56.583,4.177008,0.996889,0.604397,9.230455,0.000000,8.063412,-2.774110,0.995721,-0.023457,-0.049383,0.080176,0.576811,0.069047,-0.020545,-0.019637,-0.047899,0.343821,-0.364317,10.145666,0.611192,-0.677650,1,0,,38.990311,-76.939598,-11.945000,,,
2026-09-11T19:03:56.615,4.210416,0.997075,0.636850,9.232176,0.000000,9.770413,-3.361381,0.995360,-0.036126,-0.076054,0.078080,0.610045,0.070684,0.055487,-0.001190,-0.074571,1.204061,-1.779319,10.001606,0.649091,-0.785239,1,0,,38.990311,-76.939598,-11.945000,,,
2026-09-11T19:03:56.650,4.243826,1.016639,0.670870,9.413323,0.000000,10.195447,-3.507608,1.014734,-0.045139,-0.095029,0.075223,0.643628,0.071901,0.027381,-0.027021,-0.093546,0.589772,1.161009,8.857661,0.653026,-0.700108,1,0,,38.990311,-76.939598,-11.945000,,,
2026-09-11T19:03:56.684,4.277248,0.997469,0.704126,9.235820,0.000000,10.034772,-3.452330,0.995658,-0.033394,-0.070304,0.072460,0.677230,0.073071,0.013762,-0.050572,-0.068820,-0.073746,4.187440,10.833701,0.619674,-0.421765,1,0,,38.990311,-76.939598,-11.945000,,,
2026-09-11T19:03:56.717,4.310676,0.997803,0.737473,9.238917,0.000000,10.153561,-3.493198,0.995949,-0.020063,-0.042237,0.070579,0.710497,0.074559,-0.060827,0.025601,-0.040754,-0.339212,-1.501888,8.735176,0.576022,-0.516472,1,0,,38.990311,-76.939598,-11.945000,,,
2026-09-11T19:03:56.750,4.344092,0.940106,0.769071,8.704684,0.000000,9.332333,-3.210665,0.938630,-0.038558,-0.081176,0.068517,0.742809,0.075829,-0.053908,0.007007,-0.079692,-0.506906,0.077374,8.949647,0.525398,-0.505717,1,0,,38.990311,-76.939598,-11.945000,,,
2026-09-11T19:03:56.782,4.377499,0.950396,0.799929,8.799960,0.000000,8.540631,-2.938290,0.949146,-0.020385,-0.042915,0.066444,0.774337,0.076972,0.039220,-0.011400,-0.041431,0.635275,5.200074,9.161275,0.553239,-0.166047,1,0,,38.990311,-76.939598,-11.945000,,,
2026-09-11T19:03:56.816,4.410907,0.940990,0.831476,8.712869,0.000000,7.864285,-2.705603,0.939941,-0.010857,-0.022857,0.065345,0.805858,0.078530,0.049321,-0.003743,-0.021374,-0.450125,-0.143177,9.952377,0.511865,-0.176979,1,0,,38.990311,-76.939598,-11.945000,,,
2026-09-11T19:03:56.851,4.444324,0.902783,0.861332,8.359103,0.000000,5.009213,-1.723353,0.902375,-0.000774,-0.001629,0.064936,0.836587,0.080340,-0.065274,-0.004037,-0.000145,0.653417,1.736464,10.368571,0.538740,-0.067481,1,0,,38.990311,-76.939598,-11.945000,,,
2026-09-11T19:03:56.884,4.477745,0.854718,0.889569,7.914052,0.000000,2.521496,-0.867487,0.854620,0.011173,0.023523,0.065302,0.865874,0.082423,-0.091756,-0.017986,0.025006,-0.360591,1.698610,8.613965,0.496460,0.036974,1,0,,38.990311,-76.939598,-11.945000,,,
2026-09-11T19:03:56.917,4.511167,0.874770,0.918997,8.099727,0.000000,-0.118656,0.040822,0.874770,0.008917,0.018772,0.066009,0.894689,0.084655,-0.099161,0.001044,0.020256,0.125525,1.917396,10.577453,0.481082,0.154673,1,0,,38.990311,-76.939598,-11.945000,,,
2026-09-11T19:03:56.950,4.544665,0.855930,0.946961,7.925279,0.000000,-4.592838,1.580105,0.855605,0.020468,0.043090,0.067045,0.923575,0.087072,-0.133966,0.004869,0.044573,0.375987,-0.344115,9.532750,0.475718,0.123333,1,0,,38.990311,-76.939598,-11.945000,,,
2026-09-11T19:03:56.983,4.578072,0.836800,0.974253,7.748145,0.000000,-6.432361,2.212968,0.836176,0.031108,0.065491,0.068859,0.951709,0.089850,-0.091615,-0.006173,0.066975,0.256836,0.265858,9.954633,0.454475,0.130721,1,0,,38.990311,-76.939598,-11.945000,,,
2026-09-11T19:03:57.019,4.611493,0.827358,1.002046,7.660721,0.000000,-9.798984,3.371210,0.825926,0.040018,0.084249,0.071361,0.979332,0.092981,-0.078462,0.001680,0.085733,0.572414,0.815423,10.142234,0.443824,0.172633,1,0,,38.990311,-76.939598,-11.945000,,,
2026-09-11T19:03:57.051,4.644906,0.818059,1.029367,7.574617,0.000000,-14.646015,5.038766,0.814897,0.038407,0.080858,0.074119,1.006577,0.096280,-0.009991,0.019778,0.082341,0.807382,1.253780,9.147349,0.441581,0.242669,1,0,,38.990311,-76.939598,-11.945000,,,
2026-09-11T19:03:57.083,4.678315,0.847405,1.056909,7.846339,0.000000,-17.600653,6.055270,0.842677,0.041370,0.087095,0.076925,1.034086,0.099699,-0.003329,0.016167,0.088579,1.343609,-1.080203,10.525772,0.466603,0.160460,1,0,,38.990311,-76.939598,-11.945000,,,
2026-09-11T19:03:57.117,4.711718,0.886187,1.087032,8.205433,0.000000,-17.358267,5.971881,0.881378,0.040004,0.084219,0.079786,1.062686,0.103308,0.032269,0.013916,0.085703,1.500810,0.850237,10.626290,0.491072,0.203972,1,0,,38.990311,-76.939598,-11.945000,,,
2026-09-11T19:03:57.151,4.745120,0.914993,1.117685,8.472159,0.000000,-16.348898,5.624621,0.910588,0.039772,0.083731,0.082591,1.092407,0.107064,0.060869,0.029710,0.085214,1.830411,-1.372539,9.075564,0.530029,0.103120,1,0,,38.990311,-76.939598,-11.945000,,,
2026-09-11T19:03:57.185,4.778538,0.963703,1.150092,8.923178,0.000000,-14.589025,5.019160,0.960008,0.036076,0.075950,0.085259,1.123446,0.110948,0.015881,0.054970,0.077434,2.129906,-0.385892,9.262185,0.583470,0.067391,1,1,4.774275,38.990304,-76.939594,-12.016000,0.467856,-0.958500,4.202059
2026-09-11T19:03:57.217,4.811955,0.992863,1.183400,9.193180,0.000000,-11.970846,4.118410,0.990300,0.023506,0.049486,0.087355,1.155826,0.114749,0.068728,0.032074,0.050969,2.064006,1.151203,9.130384,0.625067,0.133055,1,0,,38.990304,-76.939594,-12.016000,,,
2026-09-11T19:03:57.250,4.845360,1.031835,1.217960,9.554028,0.000000,-8.006841,2.754647,1.030643,0.017448,0.036733,0.088795,1.189389,0.118400,0.054309,0.045737,0.038216,1.490513,-0.993218,10.189404,0.624091,0.059996,1,0,,38.990304,-76.939594,-12.016000,,,
2026-09-11T19:03:57.284,4.878764,1.099969,1.254828,10.184898,0.000000,-5.226613,1.798147,1.099427,0.004086,0.008602,0.089552,1.224793,0.121927,0.064468,-0.015766,0.010086,2.518838,0.314303,8.212775,0.690947,0.074149,1,0,,38.990304,-76.939594,-12.016000,,,
2026-09-11T19:03:57.319,4.912188,1.139289,1.293211,10.548973,0.000000,-2.282964,0.785423,1.139182,0.003610,0.007600,0.089823,1.262042,0.125406,0.062077,0.074150,0.009083,2.405179,0.166909,8.718602,0.752908,0.078666,1,0,,38.990304,-76.939594,-12.016000,,,
2026-09-11T19:03:57.352,4.945608,1.168578,1.332152,10.820163,0.000000,2.040157,-0.701889,1.168490,-0.009231,-0.019434,0.089625,1.300457,0.128768,0.070832,-0.031260,-0.017950,2.034390,-1.149241,9.576096,0.791280,0.000000,1,0,,38.990304,-76.939594,-12.016000,,,
2026-09-11T19:03:57.384,4.979025,1.217569,1.373167,11.273784,0.000000,9.582959,-3.296890,1.215553,-0.024824,-0.052261,0.088427,1.340183,0.131742,-0.011764,-0.040797,-0.050778,1.790204,-1.188860,7.334492,0.816290,-0.077709,1,0,,38.990304,-76.939594,-12.016000,,,
2026-09-11T19:03:57.418,5.012430,1.247012,1.414432,11.546403,0.000000,13.474866,-4.635848,1.242932,-0.060782,-0.127963,0.085417,1.381215,0.133882,-0.052860,-0.035110,-0.126479,1.480804,-1.521992,8.368897,0.826060,-0.169897,1,0,,38.990304,-76.939594,-12.016000,,,
2026-09-11T19:03:57.451,5.045836,1.295902,1.457634,11.999090,0.000000,20.140134,-6.928945,1.286437,-0.077628,-0.163427,0.080550,1.423509,0.135078,-0.094214,-0.036774,-0.161944,1.652617,-1.408725,12.345102,0.856262,-0.250428,1,0,,38.990304,-76.939594,-12.016000,,,
2026-09-11T19:03:57.486,5.079242,1.325606,1.501828,12.274127,0.000000,23.689404,-8.150024,1.312217,-0.090588,-0.190711,0.074635,1.467001,0.135640,-0.111981,-0.017891,-0.189227,0.954874,-3.180689,9.176279,0.851971,-0.442084,1,0,,38.990304,-76.939594,-12.016000,,,
2026-09-11T19:03:57.519,5.112665,1.355523,1.545953,12.551141,0.000000,30.211166,-10.393750,1.333281,-0.113562,-0.239078,0.067452,1.511340,0.135374,-0.059125,0.132750,-0.237594,3.849404,0.767567,21.341036,1.047320,-0.371795,1,0,,38.990304,-76.939594,-12.016000,,,
2026-09-11T19:03:57.552,5.146082,1.297717,1.590112,12.015901,0.000000,33.016799,-11.358991,1.272298,-0.118293,-0.249038,0.059297,1.555032,0.134269,-0.026957,0.179082,-0.247555,-0.505533,0.358237,-3.916384,0.968933,-0.328901,1,0,,38.990304,-76.939594,-12.016000,,,
2026-09-11T19:03:57.584,5.179492,1.327445,1.635268,12.291159,0.000000,33.128036,-11.397260,1.301269,-0.117339,-0.247030,0.051010,1.598175,0.132707,-0.083310,-0.042005,-0.245546,0.942027,-1.171797,9.246102,0.989630,-0.385161,1,0,,38.990304,-76.939594,-12.016000,,,
2026-09-11T19:03:57.618,5.212901,1.347348,1.680891,12.475441,0.000000,32.857498,-11.304185,1.321210,-0.116127,-0.244479,0.042799,1.642117,0.130864,0.030914,-0.018418,-0.242995,0.323325,-2.609942,13.728133,0.972293,-0.533717,1,0,,38.990304,-76.939594,-12.016000,,,
2026-09-11T19:03:57.653,5.246325,1.347805,1.726605,12.479672,0.000000,31.140884,-10.713607,1.324311,-0.113852,-0.239689,0.034708,1.686444,0.128736,0.128105,-0.003550,-0.238206,0.688231,0.188484,8.884923,0.982123,-0.499968,1,0,,38.990304,-76.939594,-12.016000,,,
2026-09-11T19:03:57.686,5.279738,1.338256,1.771306,12.391260,0.000000,26.787551,-9.215901,1.320982,-0.085272,-0.179519,0.027705,1.730721,0.126790,0.124706,0.007546,-0.178036,-1.148555,1.266137,11.310206,0.873914,-0.402087,1,0,,38.990304,-76.939594,-12.016000,,,
2026-09-11T19:03:57.719,5.313150,1.270140,1.813710,11.760557,0.000000,22.610000,-7.778670,1.258453,-0.072204,-0.152009,0.022166,1.773865,0.125237,0.152805,0.043623,-0.150525,-0.759035,-1.007045,9.194127,0.791859,-0.455302,1,0,,38.990304,-76.939594,-12.016000,,,
2026-09-11T19:03:57.751,5.346559,1.231151,1.854514,11.399542,0.000000,21.546386,-7.412748,1.220861,-0.065066,-0.136981,0.017339,1.815318,0.123764,0.094312,0.065634,-0.135498,-1.398723,-1.583186,9.863921,0.668351,-0.546746,1,0,,38.990304,-76.939594,-12.016000,,,
2026-09-11T19:03:57.785,5.380119,1.192422,1.894321,11.040945,0.000000,21.385025,-7.357233,1.182605,-0.063325,-0.133316,0.012803,1.855677,0.122219,0.030886,0.023380,-0.131832,-0.892503,0.257032,12.020305,0.572138,-0.518641,1,0,,38.990304,-76.939594,-12.016000,,,
2026-09-11T19:03:57.820,5.413526,1.173257,1.933405,10.863495,0.000000,21.279281,-7.320854,1.163693,-0.065148,-0.137154,0.008285,1.894889,0.120487,-0.020319,0.009977,-0.135670,1.199353,-0.098655,8.396062,0.606392,-0.513855,1,0,,38.990304,-76.939594,-12.016000,,,
2026-09-11T19:03:57.853,5.446943,1.193067,1.973753,11.046913,0.000000,20.969604,-7.214313,1.183622,-0.057742,-0.121562,0.003963,1.934120,0.118674,-0.033295,0.013255,-0.120078,1.345963,-0.542210,10.481936,0.646012,-0.538834,1,0,,38.990304,-76.939594,-12.016000,,,
2026-09-11T19:03:57.886,5.480370,1.212951,2.014073,11.231028,0.000000,19.437011,-6.687045,1.204699,-0.059945,-0.126200,-0.000178,1.974041,0.116781,-0.032587,0.018416,-0.124717,0.703431,1.452659,10.904995,0.636945,-0.433916,1,0,,38.990304,-76.939594,-12.016000,,,
2026-09-11T19:03:57.919,5.513780,1.213018,2.054421,11.231652,0.000000,17.092117,-5.880315,1.206636,-0.048684,-0.102493,-0.003999,2.014319,0.114883,-0.008941,-0.002679,-0.101009,0.565353,0.776981,9.464006,0.607419,-0.375752,1,0,,38.990304,-76.939594,-12.016000,,,
2026-09-11T19:03:57.952,5.547189,1.261909,2.096843,11.684339,0.000000,12.078231,-4.155355,1.258591,-0.035981,-0.075749,-0.006976,2.055491,0.113241,-0.010171,-0.021826,-0.074266,0.753445,-0.078453,8.286031,0.577579,-0.375399,1,0,,38.990304,-76.939594,-12.016000,,,
2026-09-11T19:03:57.987,5.580595,1.281712,2.139549,11.867704,0.000000,7.272399,-2.501972,1.280490,-0.030366,-0.063929,-0.009309,2.097891,0.111787,-0.013756,0.038512,-0.062445,0.815031,0.420313,12.033740,0.541453,-0.343663,1,0,,38.990304,-76.939594,-12.016000,,,
2026-09-11T19:03:58.021,5.614010,1.320943,2.183788,12.230952,0.000000,6.516403,-2.241882,1.319932,0.008885,0.018704,-0.010065,2.141333,0.111007,0.170549,-0.013498,0.020188,0.197408,-7.748038,10.115364,0.456803,-0.847601,1,0,,38.990304,-76.939594,-12.016000,,,
2026-09-11T19:03:58.053,5.647432,1.340752,2.228386,12.414370,0.000000,5.498107,-1.891551,1.340021,-0.010616,-0.022350,-0.010126,2.185780,0.110529,0.103630,-0.054893,-0.020866,2.493733,-1.491788,7.448249,0.516314,-0.937705,1,0,,38.990304,-76.939594,-12.016000,,,
2026-09-11T19:03:58.086,5.680839,1.389822,2.274231,12.868724,0.000000,5.138305,-1.767766,1.389161,-0.013002,-0.027373,-0.010956,2.231361,0.109654,0.040772,0.009983,-0.025890,1.978296,-2.919342,10.115658,0.538542,-1.118588,1,0,,38.990304,-76.939594,-12.016000,,,
2026-09-11T19:03:58.120,5.714245,1.448514,2.322748,13.412170,0.000000,6.948303,-2.390471,1.447254,-0.012019,-0.025302,-0.011836,2.278729,0.108696,0.031280,0.058667,-0.023819,3.044475,-7.209555,8.669863,0.627915,-1.575066,1,0,,38.990304,-76.939594,-12.016000,,,
2026-09-11T19:03:58.154,5.747665,1.516749,2.373795,14.043976,0.000000,9.060424,-3.117118,1.514505,-0.055652,-0.117162,-0.014217,2.328201,0.106919,-0.088780,0.048796,-0.115678,3.375057,-1.190822,10.048874,0.735077,-1.628100,1,0,,38.990304,-76.939594,-12.016000,,,
2026-09-11T19:03:58.189,5.781099,1.633653,2.428316,15.126421,0.000000,15.293792,-5.261626,1.626770,-0.098657,-0.207699,-0.019647,2.380659,0.103446,-0.131277,-0.072131,-0.206216,-2.770281,-0.339604,11.586557,0.441683,-1.615070,1,1,5.777712,38.990294,-76.939591,-11.984000,0.785185,-2.110294,4.617667
2026-09-11T19:03:58.221,5.814523,1.662972,2.483868,15.397892,0.000000,23.057006,-7.932456,1.647060,-0.107972,-0.227309,-0.026917,2.435275,0.098719,-0.171840,-0.080019,-0.225825,-0.051877,0.765311,6.468663,0.332001,-1.528311,1,0,,38.990294,-76.939591,-11.984000,,,
2026-09-11T19:03:58.254,5.847947,1.711410,2.540861,15.846385,0.000000,25.782302,-8.870058,1.690942,-0.135758,-0.285805,-0.035493,2.490904,0.092904,-0.115717,0.036786,-0.284322,1.128059,-2.926010,15.409484,0.304448,-1.674385,1,0,,38.990294,-76.939591,-11.984000,,,
2026-09-11T19:03:58.288,5.881359,1.740855,2.599034,16.119024,0.000000,31.781524,-10.934011,1.709252,-0.155563,-0.327501,-0.045738,2.547460,0.085733,-0.084323,0.145221,-0.326018,0.907998,-1.368126,12.961548,0.267604,-1.713040,1,0,,38.990294,-76.939591,-11.984000,,,
2026-09-11T19:03:58.321,5.914773,1.750759,2.658693,16.210735,0.000000,31.581024,-10.865031,1.719375,-0.161054,-0.339061,-0.056875,2.604394,0.077512,0.040568,0.080451,-0.337577,0.437180,-1.010968,10.227650,0.210646,-1.726658,1,0,,38.990294,-76.939591,-11.984000,,,
2026-09-11T19:03:58.354,5.948184,1.789925,2.718136,16.573381,0.000000,30.595001,-10.525803,1.759806,-0.151300,-0.318526,-0.067860,2.662077,0.068678,0.035339,0.007680,-0.317043,1.666248,4.568624,7.295265,0.247737,-1.380588,1,0,,38.990294,-76.939591,-11.984000,,,
2026-09-11T19:03:58.387,5.981602,1.809566,2.778610,16.755245,0.000000,26.732620,-9.197002,1.786304,-0.127208,-0.267807,-0.077657,2.720835,0.059727,0.097526,-0.042620,-0.266324,1.336744,2.393901,6.300577,0.275632,-1.184340,1,0,,38.990294,-76.939591,-11.984000,,,
2026-09-11T19:03:58.421,6.015022,1.839015,2.840468,17.027920,0.000000,20.596755,-7.086040,1.824969,-0.105032,-0.221119,-0.085827,2.780662,0.050930,0.084718,-0.009551,-0.219636,1.842375,-1.338510,13.324394,0.348811,-1.236621,1,0,,38.990294,-76.939591,-11.984000,,,
2026-09-11T19:03:58.455,6.048439,1.868637,2.902879,17.302194,0.000000,18.802551,-6.468767,1.856740,-0.104984,-0.221020,-0.093214,2.841616,0.041933,0.108512,0.077083,-0.219536,0.058153,1.575046,7.338905,0.313496,-1.099365,1,0,,38.990294,-76.939591,-11.984000,,,
2026-09-11T19:03:58.489,6.081861,1.839986,2.964879,17.036905,0.000000,13.890289,-4.778769,1.833590,-0.074064,-0.155924,-0.099513,2.902713,0.033023,0.051072,0.070987,-0.154441,-1.055588,-0.431296,9.915112,0.209891,-1.101495,1,0,,38.990294,-76.939591,-11.984000,,,
2026-09-11T19:03:58.522,6.115281,1.850208,3.026720,17.131551,0.000000,6.582321,-2.264560,1.848763,-0.050054,-0.105376,-0.103880,2.963719,0.024712,0.028308,-0.070215,-0.103893,-0.312146,-1.359202,6.877894,0.157049,-1.169540,1,0,,38.990294,-76.939591,-11.984000,,,
2026-09-11T19:03:58.555,6.148703,1.821609,3.086892,16.866754,0.000000,4.123443,-1.418616,1.821051,-0.003866,-0.008140,-0.105777,3.024614,0.017399,0.100024,0.007156,-0.006656,-0.294690,6.185152,12.765709,0.105158,-0.760290,1,0,,38.990294,-76.939591,-11.984000,,,
2026-09-11T19:03:58.588,6.182133,1.763699,3.146181,16.330545,0.000000,0.252822,-0.086980,1.763697,0.025503,0.053690,-0.105015,3.084239,0.011455,0.014314,0.059755,0.055174,-1.581126,1.426377,7.356851,-0.026934,-0.670578,1,0,,38.990294,-76.939591,-11.984000,,,
2026-09-11T19:03:58.622,6.215570,1.714809,3.203870,15.877858,0.000000,-4.043519,1.391119,1.714303,0.049688,0.104606,-0.102369,3.142203,0.006686,-0.007521,0.000116,0.106089,-2.272005,1.823252,7.523858,-0.197379,-0.561629,1,0,,38.990294,-76.939591,-11.984000,,,
2026-09-11T19:03:58.655,6.248997,1.695474,3.260145,15.698832,0.000000,-4.244706,1.460335,1.694923,0.030478,0.064164,-0.099548,3.199029,0.002275,-0.041223,-0.029281,0.065647,0.894563,1.433732,12.584972,-0.157218,-0.474560,1,0,,38.990294,-76.939591,-11.984000,,,
2026-09-11T19:03:58.688,6.282409,1.695715,3.316609,15.701069,0.000000,-4.346329,1.495297,1.695138,0.033867,0.071299,-0.097285,3.255494,-0.002220,0.030188,0.007695,0.072783,0.082278,-1.458739,11.327760,-0.167476,-0.576384,1,0,,38.990294,-76.939591,-11.984000,,,
2026-09-11T19:03:58.721,6.315836,1.705992,3.373494,15.796224,0.000000,-4.593522,1.580340,1.705343,0.033984,0.071545,-0.094898,3.312175,-0.006544,0.113499,-0.016511,0.073028,0.004805,-1.057745,8.748807,-0.185253,-0.651249,1,0,,38.990294,-76.939591,-11.984000,,,
2026-09-11T19:03:58.755,6.349257,1.706252,3.430789,15.798626,0.000000,-4.482285,1.542071,1.705634,0.027750,0.058422,-0.092726,3.369020,-0.010856,0.130292,-0.058967,0.059906,0.704902,0.261053,10.005921,-0.163684,-0.638492,1,0,,38.990294,-76.939591,-11.984000,,,
2026-09-11T19:03:58.789,6.382674,1.745590,3.488893,16.162867,0.000000,-4.024979,1.384741,1.745080,0.018923,0.039839,-0.091084,3.426504,-0.015370,0.093212,-0.050642,0.041322,0.714120,1.764118,8.748513,-0.147592,-0.526685,1,0,,38.990294,-76.939591,-11.984000,,,
2026-09-11T19:03:58.823,6.416100,1.745968,3.547169,16.166366,0.000000,-1.225525,0.421626,1.745920,-0.003265,-0.006874,-0.090533,3.484632,-0.020401,0.012195,-0.012738,-0.005390,-0.373928,-0.523773,10.593634,-0.212536,-0.558870,1,0,,38.990294,-76.939591,-11.984000,,,
2026-09-11T19:03:58.856,6.449702,1.756426,3.606309,16.263208,0.000000,4.295104,-1.477674,1.755842,-0.007668,-0.016143,-0.090920,3.543208,-0.025914,-0.054523,-0.024124,-0.014659,0.193093,0.048935,10.051522,-0.254591,-0.552545,1,0,,38.990294,-76.939591,-11.984000,,,
2026-09-11T19:03:58.889,6.483121,1.737524,3.664328,16.088181,0.000000,6.699737,-2.304955,1.736118,-0.024777,-0.052162,-0.092061,3.601263,-0.031785,-0.102023,-0.172849,-0.050679,1.884642,-0.000392,15.829600,-0.197652,-0.545492,1,0,,38.990294,-76.939591,-11.984000,,,
2026-09-11T19:03:58.922,6.516542,1.767236,3.723406,16.363295,0.000000,6.863845,-2.361415,1.765735,-0.042107,-0.088647,-0.094414,3.659422,-0.038346,-0.083173,-0.113264,-0.087163,1.363124,-0.941536,16.408487,-0.179354,-0.595144,1,0,,38.990294,-76.939591,-11.984000,,,
2026-09-11T19:03:58.956,6.549954,1.767424,3.782439,16.365038,0.000000,7.084259,-2.437245,1.765825,-0.039513,-0.083185,-0.097285,3.718018,-0.045350,-0.007123,0.052136,-0.081702,2.011540,0.254973,11.020812,-0.120412,-0.567458,1,0,,38.990294,-76.939591,-11.984000,,,
2026-09-11T19:03:58.990,6.583366,1.816313,3.843716,16.817710,0.000000,6.936630,-2.386455,1.814737,-0.045809,-0.096440,-0.100286,3.777402,-0.052669,0.075210,-0.022893,-0.094956,1.804031,2.711048,10.648355,-0.075443,-0.379382,1,0,,38.990294,-76.939591,-11.984000,,,
2026-09-11T19:03:59.022,6.616783,1.855287,3.905631,17.178580,0.000000,6.889938,-2.370391,1.853699,-0.044663,-0.094027,-0.103468,3.838225,-0.060407,0.083032,-0.021858,-0.092544,0.932416,-0.410408,9.636014,-0.084177,-0.395356,1,0,,38.990294,-76.939591,-11.984000,,,
2026-09-11T19:03:59.056,6.650197,1.894375,3.968897,17.540510,0.000000,7.341751,-2.525832,1.892535,-0.052729,-0.111007,-0.106894,3.900296,-0.068597,0.047344,-0.012416,-0.109524,1.982414,-1.000769,9.582470,-0.019761,-0.447028,1,0,,38.990294,-76.939591,-11.984000,,,
2026-09-11T19:03:59.090,6.683614,1.933703,4.033842,17.904660,0.000000,9.232772,-3.176412,1.930732,-0.071898,-0.151364,-0.111277,3.963569,-0.077623,0.016247,0.015712,-0.149880,1.618293,-1.941226,10.133604,0.025453,-0.553660,1,0,,38.990294,-76.939591,-11.984000,,,
2026-09-11T19:03:59.123,6.717022,2.011647,4.101357,18.626363,0.000000,11.254943,-3.872114,2.007055,-0.084846,-0.178622,-0.116790,4.028621,-0.087713,-0.001156,0.054009,-0.177139,0.503081,-0.852100,9.121754,0.001701,-0.584355,1,0,,38.990294,-76.939591,-11.984000,,,
2026-09-11T19:03:59.157,6.750436,2.041019,4.169464,18.898326,0.000000,12.532791,-4.311740,2.035243,-0.096981,-0.204171,-0.123185,4.095305,-0.098814,-0.109272,0.015057,-0.202688,-0.575258,-1.438145,8.719191,-0.087244,-0.648937,1,0,,38.990294,-76.939591,-11.984000,,,
2026-09-11T19:03:59.191,6.783857,2.060726,4.238494,19.080795,0.000000,13.930801,-4.792707,2.053521,-0.105575,-0.222263,-0.130311,4.162654,-0.110809,-0.106831,0.003829,-0.220779,0.833565,1.285063,11.779846,-0.078902,-0.533967,1,1,6.762108,38.990278,-76.939587,-11.962000,1.059013,-3.855313,4.228415
2026-09-11T19:03:59.223,6.817278,2.070987,4.307553,19.175806,0.000000,14.622253,-5.030592,2.063010,-0.105222,-0.221520,-0.137727,4.230354,-0.123492,-0.061918,-0.027625,-0.220036,1.139729,1.097364,8.279951,-0.044247,-0.432381,1,0,,38.990278,-76.939587,-11.962000,,,
2026-09-11T19:03:59.257,6.850694,2.071545,4.376594,19.180971,0.000000,15.703720,-5.402656,2.062342,-0.089356,-0.188117,-0.144571,4.298137,-0.136407,0.000193,0.033482,-0.186634,1.749408,-2.871583,6.737463,0.039207,-0.593169,1,0,,38.990278,-76.939587,-11.962000,,,
2026-09-11T19:03:59.290,6.884119,2.062260,4.445357,19.095000,0.000000,15.926193,-5.479195,2.052837,-0.120676,-0.254054,-0.151961,4.365637,-0.150037,-0.053536,0.021038,-0.252571,-0.393149,-3.425757,10.627957,-0.010100,-0.779439,1,0,,38.990278,-76.939587,-11.962000,,,
2026-09-11T19:03:59.323,6.917537,2.033628,4.512923,18.829892,0.000000,16.088241,-5.534945,2.024147,-0.103416,-0.217719,-0.159843,4.432352,-0.164312,0.012880,0.001429,-0.216235,-0.269487,0.450419,10.611776,-0.046564,-0.718051,1,0,,38.990278,-76.939587,-11.962000,,,
2026-09-11T19:03:59.356,6.950952,1.994682,4.578996,18.469280,0.000000,16.500915,-5.676920,1.984899,-0.106159,-0.223494,-0.167215,4.497870,-0.178669,-0.041818,0.162272,-0.222010,0.173872,-1.580636,14.991818,-0.045425,-0.788557,1,0,,38.990278,-76.939587,-11.962000,,,
2026-09-11T19:03:59.390,6.984373,1.965712,4.645035,18.201037,0.000000,16.277069,-5.599909,1.956331,-0.101957,-0.214647,-0.174537,4.562179,-0.193293,0.044142,0.046554,-0.213163,1.370185,1.237795,11.588028,0.039578,-0.677459,1,0,,38.990278,-76.939587,-11.962000,,,
2026-09-11T19:03:59.424,7.017798,1.936722,4.709810,17.932612,0.000000,16.485122,-5.671487,1.927242,-0.093483,-0.196805,-0.181413,4.625481,-0.207997,0.051389,-0.018757,-0.195322,0.552409,0.092183,7.832375,0.071842,-0.644345,1,0,,38.990278,-76.939587,-11.962000,,,
2026-09-11T19:03:59.457,7.051211,1.917738,4.773856,17.756831,0.000000,17.289184,-5.948114,1.907413,-0.105899,-0.222946,-0.188426,4.687840,-0.223049,0.054914,0.020912,-0.221463,-1.928870,3.043102,8.790877,-0.053926,-0.417742,1,0,,38.990278,-76.939587,-11.962000,,,
2026-09-11T19:03:59.492,7.084721,1.888904,4.837053,17.489856,0.000000,20.675720,-7.113206,1.874366,-0.126824,-0.266998,-0.196635,4.749285,-0.238998,0.075297,-0.031374,-0.265515,-0.250364,0.370888,10.116736,-0.068772,-0.361487,1,0,,38.990278,-76.939587,-11.962000,,,
2026-09-11T19:03:59.526,7.118142,1.860196,4.899281,17.224034,0.000000,21.320480,-7.335027,1.844973,-0.110895,-0.233464,-0.204997,4.809396,-0.255286,0.120650,0.035635,-0.231981,-0.100714,0.175735,5.567628,-0.073145,-0.323143,1,0,,38.990278,-76.939587,-11.962000,,,
2026-09-11T19:03:59.558,7.151557,1.860655,4.961384,17.228284,0.000000,21.531967,-7.407787,1.845125,-0.114744,-0.241565,-0.212934,4.868925,-0.271763,0.030688,-0.029115,-0.240082,-0.111992,1.809523,6.956740,-0.078887,-0.178563,1,0,,38.990278,-76.939587,-11.962000,,,
2026-09-11T19:03:59.592,7.185007,1.871076,5.024410,17.324779,0.000000,21.293014,-7.325578,1.855804,-0.122897,-0.258731,-0.221302,4.928512,-0.288979,0.062755,0.009402,-0.257247,0.320579,0.476211,10.242458,-0.060363,-0.119555,1,0,,38.990278,-76.939587,-11.962000,,,
2026-09-11T19:03:59.625,7.218425,1.842381,5.086126,17.059083,0.000000,20.687393,-7.117222,1.828185,-0.097352,-0.204952,-0.229049,4.987693,-0.306308,0.066857,-0.024787,-0.203469,0.367357,3.115180,9.124892,-0.042812,0.102664,1,0,,38.990278,-76.939587,-11.962000,,,
2026-09-11T19:03:59.659,7.251855,1.872105,5.148013,17.334307,0.000000,17.982696,-6.186707,1.861202,-0.091041,-0.191666,-0.235679,5.046979,-0.323575,0.042152,0.043864,-0.190183,0.312146,3.792820,9.794882,-0.033416,0.365212,1,0,,38.990278,-76.939587,-11.962000,,,
2026-09-11T19:03:59.692,7.285275,1.862820,5.209392,17.248334,0.000000,13.410324,-4.613643,1.856784,-0.065378,-0.137638,-0.241181,5.106733,-0.340789,-0.002694,-0.032610,-0.136154,1.528857,1.319583,8.966220,0.050226,0.458192,1,0,,38.990278,-76.939587,-11.962000,,,
2026-09-11T19:03:59.725,7.318698,1.843268,5.271735,17.067298,0.000000,6.346115,-2.183296,1.841930,-0.041635,-0.087652,-0.244946,5.166296,-0.357400,0.027309,0.025070,-0.086168,0.980959,1.773533,10.282371,0.092765,0.573438,1,0,,38.990278,-76.939587,-11.962000,,,
2026-09-11T19:03:59.759,7.352120,1.853119,5.333690,17.158512,0.000000,6.274703,-2.158728,1.851804,-0.019424,-0.040892,-0.247094,5.225916,-0.373423,0.028157,-0.052369,-0.039408,-0.342154,0.722456,10.985017,0.045053,0.613838,1,0,,38.990278,-76.939587,-11.962000,,,
2026-09-11T19:03:59.792,7.385540,1.824191,5.394391,16.890656,0.000000,4.727691,-1.626499,1.823456,-0.005619,-0.011830,-0.247975,5.285356,-0.388876,0.016491,-0.062128,-0.010346,0.283510,0.592322,8.457157,0.036535,0.641862,1,0,,38.990278,-76.939587,-11.962000,,,
2026-09-11T19:03:59.826,7.418990,1.824729,5.455754,16.895640,0.000000,4.352783,-1.497517,1.824106,-0.006195,-0.013042,-0.248391,5.344442,-0.404053,0.042446,-0.022868,-0.011559,0.435611,1.976334,11.378656,0.036883,0.759391,1,0,,38.990278,-76.939587,-11.962000,,,
2026-09-11T19:03:59.859,7.452412,1.815264,5.515818,16.808000,0.000000,4.178375,-1.437514,1.814693,-0.010565,-0.022242,-0.248981,5.403311,-0.419291,0.011418,-0.019701,-0.020759,0.736970,-0.614190,10.104086,0.055094,0.708935,1,0,,38.990278,-76.939587,-11.962000,,,
2026-09-11T19:03:59.892,7.485834,1.815605,5.576246,16.811154,0.000000,4.448913,-1.530589,1.814957,-0.012144,-0.025565,-0.249780,5.461997,-0.434629,0.015185,-0.024749,-0.024082,0.397071,0.829348,10.957657,0.051442,0.752856,1,0,,38.990278,-76.939587,-11.962000,,,
2026-09-11T19:03:59.926,7.519252,1.825685,5.637893,16.904495,0.000000,4.660400,-1.603349,1.824971,-0.011969,-0.025198,-0.250628,5.520822,-0.450078,0.078562,-0.006159,-0.023715,1.078437,-0.411291,7.603194,0.093740,0.715975,1,0,,38.990278,-76.939587,-11.962000,,,
2026-09-11T19:03:59.959,7.552675,1.835749,5.698755,16.997674,0.000000,5.097793,-1.753828,1.834889,-0.016143,-0.033986,-0.251617,5.579950,-0.465732,0.090849,0.062817,-0.032502,0.988314,1.120508,9.453709,0.130254,0.779698,1,0,,38.990278,-76.939587,-11.962000,,,
2026-09-11T19:03:59.993,7.586100,1.846059,5.760658,17.093138,0.000000,6.067337,-2.087386,1.844834,-0.035784,-0.075334,-0.253444,5.639278,-0.481938,0.105853,0.188491,-0.073850,-1.573771,-1.473743,1.376069,0.003093,0.679762,1,0,,38.990278,-76.939587,-11.962000,,,
2026-09-11T19:04:00.026,7.619516,1.837145,5.821816,17.010606,0.000000,6.748489,-2.321728,1.835637,-0.043314,-0.091187,-0.256226,5.698453,-0.498718,0.058139,0.208471,-0.089703,-0.652731,1.707730,-0.314303,-0.061786,0.788668,1,0,,38.990278,-76.939587,-11.962000,,,
2026-09-11T19:04:00.060,7.653004,1.847126,5.884067,17.103018,0.000000,9.063171,-3.118063,1.844391,-0.062900,-0.132422,-0.259970,5.757575,-0.516165,0.069681,-0.002153,-0.130938,2.136183,-0.999494,14.398124,0.054808,0.726024,1,0,,38.990278,-76.939587,-11.962000,,,
2026-09-11T19:04:00.093,7.686433,1.866924,5.946535,17.286332,0.000000,10.595077,-3.645095,1.863147,-0.083121,-0.174992,-0.265109,5.816787,-0.534606,-0.037958,-0.039888,-0.173508,-0.485037,-1.891507,9.557659,0.000000,0.611738,1,0,,38.990278,-76.939587,-11.962000,,,
2026-09-11T19:04:00.126,7.719858,1.857203,6.008814,17.196327,0.000000,11.165679,-3.841403,1.853031,-0.082021,-0.172676,-0.270919,5.875946,-0.553714,-0.059382,-0.029884,-0.171192,-0.358727,0.799144,9.145290,-0.047287,0.672491,1,0,,38.990278,-76.939587,-11.962000,,,
2026-09-11T19:04:00.160,7.753280,1.867025,6.071100,17.287267,0.000000,10.829910,-3.725886,1.863079,-0.082526,-0.173738,-0.276708,5.934988,-0.573153,-0.076995,-0.025015,-0.172254,-0.539954,1.644281,11.173697,-0.105771,0.787503,1,0,,38.990278,-76.939587,-11.962000,,,
2026-09-11T19:04:00.193,7.786703,1.857643,6.132844,17.200395,0.000000,10.432342,-3.589108,1.853999,-0.077127,-0.162372,-0.282325,5.993959,-0.592855,-0.103273,0.020659,-0.160889,0.259092,0.866908,10.514200,-0.112506,0.849468,1,0,,38.990278,-76.939587,-11.962000,,,
2026-09-11T19:04:00.227,7.820131,1.838736,6.194446,17.025331,0.000000,9.306930,-3.201925,1.835865,-0.063722,-0.134151,-0.287281,6.052486,-0.612442,-0.154317,0.047823,-0.132667,-0.278803,0.745403,8.302604,-0.153991,0.899347,1,1,7.815692,38.990261,-76.939587,-11.981000,1.137805,-5.719311,3.363800
2026-09-11T19:04:00.260,7.853601,1.809851,6.254954,16.757876,0.000000,8.521408,-2.931677,1.807482,-0.047532,-0.100068,-0.291201,6.110394,-0.631616,-0.162558,0.049018,-0.098584,0.065018,0.006472,9.075859,-0.174605,0.896600,1,0,,38.990261,-76.939587,-11.981000,,,
2026-09-11T19:04:00.294,7.887012,1.800431,6.314989,16.670653,0.000000,6.927703,-2.383384,1.798873,-0.035126,-0.073949,-0.294108,6.167681,-0.650319,-0.133666,0.042765,-0.072465,-0.746580,-0.255561,10.649924,-0.251918,0.873839,1,0,,38.990261,-76.939587,-11.981000,,,
2026-09-11T19:04:00.327,7.920428,1.781419,6.374791,16.494619,0.000000,3.213638,-1.105609,1.781087,-0.009669,-0.020355,-0.295683,6.224695,-0.668419,-0.066813,-0.035767,-0.018871,0.177697,3.778600,9.215211,-0.269937,1.106130,1,0,,38.990261,-76.939587,-11.981000,,,
2026-09-11T19:04:00.360,7.953838,1.791825,6.434991,16.590969,0.000000,-1.049744,0.361151,1.791789,0.023153,0.048744,-0.295209,6.281861,-0.685582,-0.065643,0.014441,0.050227,0.020986,4.656099,8.442251,-0.301189,1.384633,1,0,,38.990261,-76.939587,-11.981000,,,
2026-09-11T19:04:00.393,7.987247,1.792697,6.494924,16.599047,0.000000,-5.567185,1.915316,1.791696,0.002823,0.005944,-0.294296,6.339264,-0.702556,-0.103859,-0.082586,0.007427,2.125199,4.471440,7.385879,-0.199775,1.653083,1,0,,38.990261,-76.939587,-11.981000,,,
2026-09-11T19:04:00.427,8.020654,1.803016,6.554413,16.694592,0.000000,-5.766312,1.983823,1.801935,0.046906,0.098750,-0.292547,6.396965,-0.719122,-0.037979,0.071908,0.100233,1.471684,-6.293810,11.146533,-0.143733,1.211062,1,0,,38.990261,-76.939587,-11.981000,,,
2026-09-11T19:04:00.460,8.054063,1.822903,6.614915,16.878729,0.000000,-6.275116,2.158870,1.821609,0.038044,0.080092,-0.289559,6.455357,-0.735132,0.051867,0.082706,0.081575,-0.824249,2.183255,10.351017,-0.240050,1.324584,1,0,,38.990261,-76.939587,-11.981000,,,
2026-09-11T19:04:00.494,8.087495,1.823110,6.675679,16.880650,0.000000,-6.913010,2.378329,1.821540,0.041952,0.088319,-0.286744,6.514125,-0.751156,0.025195,0.002823,0.089803,-3.619046,3.649251,15.712019,-0.518196,1.530902,1,0,,38.990261,-76.939587,-11.981000,,,
2026-09-11T19:04:00.527,8.120923,1.852292,6.737737,17.150853,0.000000,-6.928803,2.383763,1.850689,0.042792,0.090088,-0.283762,6.573421,-0.767068,-0.053080,0.023698,0.091572,2.228169,0.456107,7.663309,-0.412009,1.527766,1,0,,38.990261,-76.939587,-11.981000,,,
2026-09-11T19:04:00.561,8.154357,1.891242,6.801481,17.511503,0.000000,-6.774994,2.330847,1.889678,0.043707,0.092015,-0.280718,6.633877,-0.783092,-0.055462,0.003484,0.093499,1.238384,1.390583,8.638874,-0.367834,1.584726,1,0,,38.990261,-76.939587,-11.981000,,,
2026-09-11T19:04:00.594,8.187781,1.901248,6.864837,17.604149,0.000000,-6.503769,2.237535,1.899798,0.030388,0.063974,-0.278111,6.695093,-0.799368,-0.033155,0.067675,0.065458,2.625633,-1.487767,10.332090,-0.231018,1.458057,1,0,,38.990261,-76.939587,-11.981000,,,
2026-09-11T19:04:00.628,8.221200,1.950394,6.930233,18.059205,0.000000,-5.683228,1.955239,1.949259,0.015904,0.033482,-0.276483,6.757164,-0.816230,0.001413,-0.011378,0.034965,2.006244,0.321364,9.470086,-0.132530,1.453574,1,0,,38.990261,-76.939587,-11.981000,,,
2026-09-11T19:04:00.661,8.254618,1.960578,6.996261,18.153497,0.000000,-4.604508,1.584120,1.959828,0.029354,0.061797,-0.274891,6.820219,-0.833282,-0.088545,0.026352,0.063281,0.199860,-0.698724,6.254387,-0.150739,1.379495,1,0,,38.990261,-76.939587,-11.981000,,,
2026-09-11T19:04:00.694,8.288046,1.980831,7.062482,18.341025,0.000000,-3.371293,1.159848,1.980425,0.008556,0.018014,-0.273557,6.883788,-0.850506,-0.139051,-0.035703,0.019497,0.576141,-1.626237,10.050149,-0.141882,1.251694,1,0,,38.990261,-76.939587,-11.981000,,,
2026-09-11T19:04:00.728,8.321465,1.981431,7.128345,18.346579,0.000000,-3.237397,1.113783,1.981056,0.003041,0.006401,-0.273149,6.947577,-0.868189,-0.057154,0.031613,0.007885,0.229181,-0.100224,9.078703,-0.154499,1.225613,1,0,,38.990261,-76.939587,-11.981000,,,
2026-09-11T19:04:00.761,8.354902,1.962749,7.193365,18.173601,0.000000,-3.500382,1.204260,1.962315,0.006383,0.013438,-0.272817,7.011106,-0.885813,0.020866,-0.054668,0.014921,0.153278,-0.078355,11.061705,-0.171438,1.200337,1,0,,38.990261,-76.939587,-11.981000,,,
2026-09-11T19:04:00.795,8.388326,1.904856,7.257524,17.637558,0.000000,-3.466736,1.192685,1.904444,0.029014,0.061083,-0.271572,7.073507,-0.902616,0.069666,0.026631,0.062567,-1.771179,3.378097,7.564262,-0.310814,1.393297,1,0,,38.990261,-76.939587,-11.981000,,,
2026-09-11T19:04:00.828,8.421743,1.886155,7.320362,17.464395,0.000000,-4.108750,1.413561,1.885581,0.035639,0.075029,-0.269298,7.134820,-0.918493,0.105856,-0.017436,0.076512,-1.146888,4.158706,6.959093,-0.406063,1.633009,1,0,,38.990261,-76.939587,-11.981000,,,
2026-09-11T19:04:00.862,8.455153,1.847353,7.382169,17.105121,0.000000,-6.117875,2.104773,1.846107,0.041552,0.087478,-0.266583,7.195274,-0.933754,0.138819,-0.096501,0.088961,0.788945,4.117518,10.887245,-0.371536,1.866088,1,0,,38.990261,-76.939587,-11.981000,,,
2026-09-11T19:04:00.895,8.488573,1.847108,7.444278,17.102848,0.000000,-7.938859,2.731259,1.845009,0.056035,0.117968,-0.263150,7.255227,-0.948326,0.127457,-0.086103,0.119451,0.077963,1.650459,6.213592,-0.378569,1.933281,1,0,,38.990261,-76.939587,-11.981000,,,
2026-09-11T19:04:00.929,8.522006,1.837650,7.505652,17.015281,0.000000,-8.576752,2.950718,1.835214,0.058430,0.123011,-0.259122,7.315156,-0.962361,0.068047,-0.009589,0.124495,-4.233139,1.861989,0.783846,-0.658642,2.012941,1,0,,38.990261,-76.939587,-11.981000,,,
2026-09-11T19:04:00.962,8.555423,1.838220,7.566388,17.020557,0.000000,-7.688920,2.645270,1.836261,0.051935,0.109337,-0.255239,7.374953,-0.976181,-0.010739,-0.008868,0.110820,-0.251344,0.430414,8.540219,-0.673693,2.000596,1,0,,38.990261,-76.939587,-11.981000,,,
2026-09-11T19:04:00.996,8.588877,1.838501,7.628360,17.023158,0.000000,-4.280411,1.472619,1.837894,0.036006,0.075803,-0.252143,7.434813,-0.990182,-0.004067,-0.008820,0.077286,-0.454342,-1.300656,8.270046,-0.700791,1.880144,1,0,,38.990261,-76.939587,-11.981000,,,
2026-09-11T19:04:01.029,8.622294,1.858226,7.690514,17.205792,0.000000,1.061691,-0.365261,1.858188,-0.005995,-0.012622,-0.251087,7.494750,-1.005072,-0.049444,-0.023643,-0.011138,0.740990,0.014808,9.293566,-0.651347,1.856879,1,0,,38.990261,-76.939587,-11.981000,,,
2026-09-11T19:04:01.062,8.655722,1.878045,7.752897,17.389306,0.000000,9.196380,-3.163892,1.875182,-0.033411,-0.070340,-0.252473,7.555017,-1.021255,-0.046112,-0.076260,-0.068856,0.245166,-0.971839,7.549650,-0.639382,1.776987,1,0,,38.990261,-76.939587,-11.981000,,,
2026-09-11T19:04:01.096,8.689137,1.878308,7.816367,17.391745,0.000000,10.783905,-3.710059,1.874372,-0.050752,-0.106846,-0.255434,7.615299,-1.038354,-0.057268,-0.044648,-0.105363,-0.138862,-2.071557,9.988465,-0.657354,1.631249,1,0,,38.990261,-76.939587,-11.981000,,,
2026-09-11T19:04:01.129,8.722559,1.888750,7.879296,17.488422,0.000000,14.055084,-4.835465,1.882027,-0.084213,-0.177290,-0.260182,7.675421,-1.056540,0.021754,0.004003,-0.175806,-0.698920,0.277136,9.409285,-0.716538,1.647814,1,0,,38.990261,-76.939587,-11.981000,,,
2026-09-11T19:04:01.163,8.755975,1.869934,7.941593,17.314202,0.000000,17.723831,-6.097648,1.859354,-0.096956,-0.204119,-0.266555,7.734988,-1.075735,0.018055,-0.007622,-0.202635,-0.778158,-2.822452,9.780957,-0.785999,1.466508,1,0,,38.990261,-76.939587,-11.981000,,,
2026-09-11T19:04:01.196,8.789386,1.831579,8.003098,16.959069,0.000000,19.571594,-6.733346,1.818946,-0.110262,-0.232131,-0.273842,7.793283,-1.095470,0.048536,-0.037624,-0.230648,-1.008418,-1.236226,9.048106,-0.875827,1.392677,1,1,8.772491,38.990244,-76.939585,-12.051000,1.274215,-7.565888,3.472861
2026-09-11T19:04:01.229,8.822795,1.831845,8.064255,16.961525,0.000000,20.474533,-7.043991,1.818019,-0.119087,-0.250710,-0.281908,7.850654,-1.115819,0.014736,-0.005969,-0.249226,-1.073436,-0.161221,9.923643,-0.972400,1.391410,1,0,,38.990244,-76.939585,-12.051000,,,
2026-09-11T19:04:01.262,8.856212,1.802598,8.124268,16.690718,0.000000,22.578414,-7.767803,1.786057,-0.125714,-0.264661,-0.290519,7.907268,-1.136742,0.013077,-0.010788,-0.263177,0.297240,1.137277,7.646147,-0.982256,1.475305,1,0,,38.990244,-76.939585,-12.051000,,,
2026-09-11T19:04:01.296,8.889618,1.783568,8.183910,16.514518,0.000000,27.387680,-9.422367,1.759505,-0.133050,-0.280105,-0.299618,7.962673,-1.158097,0.013340,-0.005399,-0.278622,2.026446,-3.949138,7.866502,-0.881976,1.230412,1,0,,38.990244,-76.939585,-12.051000,,,
2026-09-11T19:04:01.329,8.923034,1.822645,8.244783,16.876338,0.000000,34.231475,-11.776884,1.784278,-0.173935,-0.366179,-0.310416,8.017603,-1.180771,-0.223837,-0.022209,-0.364695,0.343723,-6.121311,9.434978,-0.889425,0.858019,1,0,,38.990244,-76.939585,-12.051000,,,
2026-09-11T19:04:01.363,8.956449,1.823108,8.305969,16.880626,0.000000,37.203964,-12.799529,1.777805,-0.216082,-0.454910,-0.324135,8.072108,-1.205526,-0.224592,-0.023677,-0.453427,1.290555,-1.087165,10.023279,-0.830983,0.825595,1,0,,38.990244,-76.939585,-12.051000,,,
2026-09-11T19:04:01.396,8.989864,1.881657,8.368129,17.422753,0.000000,41.520904,-14.284715,1.823479,-0.236770,-0.498464,-0.340063,8.126515,-1.232299,-0.215022,-0.049593,-0.496980,2.395863,-1.742348,6.642829,-0.699289,0.757620,1,0,,38.990244,-76.939585,-12.051000,,,
2026-09-11T19:04:01.429,9.023277,1.930629,8.432658,17.876194,0.000000,46.146835,-15.876205,1.856985,-0.263964,-0.555714,-0.357675,8.181433,-1.261182,-0.084239,-0.103571,-0.554231,2.062535,-1.088930,10.077608,-0.592741,0.740639,1,0,,38.990244,-76.939585,-12.051000,,,
2026-09-11T19:04:01.463,9.056691,1.999137,8.499501,18.510530,0.000000,49.485992,-17.024997,1.911529,-0.291819,-0.614355,-0.377223,8.236844,-1.292470,-0.065081,-0.066040,-0.612871,0.418156,-3.887356,9.996213,-0.592343,0.551998,1,0,,38.990244,-76.939585,-12.051000,,,
2026-09-11T19:04:01.497,9.090104,2.038220,8.568189,18.872408,0.000000,58.307327,-20.059860,1.914571,-0.349075,-0.734895,-0.399764,8.291931,-1.326586,-0.175120,-0.046725,-0.733412,0.320187,-2.108822,8.808627,-0.595930,0.495577,1,0,,38.990244,-76.939585,-12.051000,,,
2026-09-11T19:04:01.530,9.123517,2.126344,8.639492,19.688371,0.000000,62.038558,-21.343541,1.980509,-0.389858,-0.820754,-0.425754,8.346570,-1.364005,-0.208506,-0.023102,-0.819270,0.596637,-0.276940,7.503656,-0.581797,0.572438,1,0,,38.990244,-76.939585,-12.051000,,,
2026-09-11T19:04:01.564,9.156931,2.175215,8.712339,20.140879,0.000000,70.989669,-24.423051,1.980571,-0.444215,-0.935190,-0.455090,8.400473,-1.404812,-0.104338,-0.029800,-0.933706,0.632333,-0.485233,11.039542,-0.559430,0.649642,1,0,,38.990244,-76.939585,-12.051000,,,
2026-09-11T19:04:01.597,9.190344,2.184948,8.785180,20.230996,0.000000,75.921163,-26.119666,1.961813,-0.468818,-0.986986,-0.487204,8.452228,-1.448288,-0.191959,-0.042486,-0.985503,-1.497966,-1.871893,11.157222,-0.665223,0.641711,1,0,,38.990244,-76.939585,-12.051000,,,
2026-09-11T19:04:01.631,9.223760,2.185048,8.858442,20.231929,0.000000,83.323888,-28.666475,1.917220,-0.499619,-1.051830,-0.521268,8.501145,-1.493744,-0.124381,-0.048563,-1.050346,-1.568279,0.431983,7.230835,-0.765556,0.788140,1,0,,38.990244,-76.939585,-12.051000,,,
2026-09-11T19:04:01.664,9.257178,2.175763,8.931312,20.145954,0.000000,83.141927,-28.603874,1.910212,-0.519081,-1.092802,-0.557103,8.547275,-1.541175,0.003530,-0.076803,-1.091318,-1.449031,0.777177,9.505586,-0.848975,0.959897,1,0,,38.990244,-76.939585,-12.051000,,,
2026-09-11T19:04:01.697,9.290609,2.147032,9.002808,19.879930,0.000000,82.828130,-28.495916,1.886922,-0.490197,-1.031993,-0.592619,8.591375,-1.589835,-0.013970,-0.056942,-1.030510,-0.565353,-0.042071,7.555828,-0.867889,1.067705,1,0,,38.990244,-76.939585,-12.051000,,,
2026-09-11T19:04:01.730,9.324021,2.098631,9.072431,19.431765,0.000000,82.507466,-28.385596,1.846308,-0.472101,-0.993897,-0.626464,8.633312,-1.638708,0.037235,0.000559,-0.992414,-2.071851,3.022017,7.601036,-0.981248,1.365301,1,0,,38.990244,-76.939585,-12.051000,,,
2026-09-11T19:04:01.764,9.357448,2.060096,9.141615,19.074965,0.000000,81.640233,-28.087236,1.817482,-0.475491,-1.001034,-0.659806,8.672813,-1.688090,0.119361,-0.101334,-0.999550,-2.220422,1.511597,10.052895,-1.101529,1.560944,1,0,,38.990244,-76.939585,-12.051000,,,
2026-09-11T19:04:01.798,9.390870,2.021614,9.208383,18.718646,0.000000,80.308141,-27.628948,1.791088,-0.463668,-0.976143,-0.692847,8.710021,-1.738065,-0.092101,-0.459448,-0.974659,-3.000835,0.759721,17.168208,-1.270230,1.701136,1,0,,38.990244,-76.939585,-12.051000,,,
2026-09-11T19:04:01.831,9.424283,1.925246,9.271649,17.826348,0.000000,77.304753,-26.595672,1.721532,-0.403765,-0.850031,-0.723356,8.745191,-1.787231,-0.062089,0.087032,-0.848547,4.235590,-2.500402,12.456799,-0.974031,1.610253,1,0,,38.990244,-76.939585,-12.051000,,,
2026-09-11T19:04:01.864,9.457707,1.818852,9.332646,16.841223,0.000000,71.230001,-24.505734,1.655009,-0.376379,-0.792377,-0.750804,8.778221,-1.834800,-0.051788,0.031415,-0.790894,-1.325075,-1.167482,5.957834,-1.051313,1.596819,1,0,,38.990244,-76.939585,-12.051000,,,
2026-09-11T19:04:01.898,9.491122,1.770975,9.391263,16.397914,0.000000,68.370122,-23.521831,1.623821,-0.321455,-0.676747,-0.775349,8.809764,-1.881087,-0.122129,0.034459,-0.675264,1.587402,-7.604567,12.223401,-0.949794,1.153143,1,0,,38.990244,-76.939585,-12.051000,,,
2026-09-11T19:04:01.931,9.524534,1.713056,9.448393,15.861634,0.000000,58.408269,-20.094588,1.608777,-0.303172,-0.638257,-0.797318,8.840532,-1.926679,0.066745,0.028633,-0.636773,1.051763,-3.314942,7.320566,-0.893003,0.987401,1,0,,38.990244,-76.939585,-12.051000,,,
2026-09-11T19:04:01.964,9.557956,1.713240,9.505421,15.863338,0.000000,57.261571,-19.700082,1.612965,-0.261129,-0.549746,-0.817170,8.870951,-1.972096,-0.010602,0.011255,-0.548263,0.295867,-4.971187,7.512777,-0.893667,0.707198,1,0,,38.990244,-76.939585,-12.051000,,,
2026-09-11T19:04:01.998,9.591379,1.713701,9.562528,15.867605,0.000000,54.528035,-18.759645,1.622663,-0.254937,-0.536710,-0.835327,8.901249,-2.017704,-0.089437,0.011087,-0.535226,0.304987,2.408709,7.878074,-0.898725,0.906729,1,0,,38.990244,-76.939585,-12.051000,,,
2026-09-11T19:04:02.031,9.624792,1.743396,9.619977,16.142556,0.000000,52.052678,-17.908031,1.658931,-0.264320,-0.556464,-0.853590,8.931168,-2.064453,-0.081268,0.011373,-0.554980,2.072047,2.180214,7.441090,-0.792789,1.092600,1,0,,38.990244,-76.939585,-12.051000,,,
2026-09-11T19:04:02.064,9.658219,1.763109,9.679261,16.325081,0.000000,52.156362,-17.943702,1.677351,-0.239953,-0.505165,-0.871333,8.961042,-2.112286,-0.074611,0.037192,-0.503682,0.376085,-3.229134,8.537179,-0.802185,0.921400,1,0,,38.990244,-76.939585,-12.051000,,,
2026-09-11T19:04:02.098,9.691638,1.812084,9.739814,16.778559,0.000000,52.833394,-18.176626,1.721660,-0.263704,-0.555166,-0.889051,8.990726,-2.161429,-0.027873,0.037995,-0.553683,1.733423,-0.516614,11.413862,-0.730155,0.934714,1,0,,38.990244,-76.939585,-12.051000,,,
2026-09-11T19:04:02.131,9.725050,1.880161,9.802476,17.408897,0.000000,56.100453,-19.300615,1.774491,-0.305410,-0.642969,-0.909067,9.019620,-2.213060,-0.024212,0.038399,-0.641486,1.794127,-2.754688,10.018964,-0.660819,0.815043,1,0,,38.990244,-76.939585,-12.051000,,,
2026-09-11T19:04:02.165,9.758475,1.948598,9.869005,18.042574,0.000000,57.508763,-19.785125,1.833570,-0.312305,-0.657484,-0.930801,9.047930,-2.267289,-0.154046,-0.087127,-0.656000,3.161664,0.643610,19.601630,-0.506658,0.920802,1,1,9.763203,38.990230,-76.939593,-12.047000,0.577617,-9.168207,3.675350
2026-09-11T19:04:02.198,9.791900,2.017262,9.935756,18.678355,0.000000,61.179570,-21.048017,1.882670,-0.353456,-0.744118,-0.954225,9.075418,-2.324071,-0.193544,-0.159311,-0.742634,1.608094,-2.910418,15.995137,-0.455495,0.807986,1,0,,38.990230,-76.939593,-12.047000,,,
2026-09-11T19:04:02.231,9.825312,2.037187,10.003322,18.862840,0.000000,63.206548,-21.745372,1.892219,-0.395771,-0.833201,-0.980576,9.100887,-2.383090,0.053399,0.076305,-0.831718,1.437753,0.301260,9.349856,-0.415047,0.915641,1,0,,38.990230,-76.939593,-12.047000,,,
2026-09-11T19:04:02.265,9.858739,2.047147,10.071623,18.955067,0.000000,65.569295,-22.558244,1.890520,-0.403866,-0.850245,-1.008712,9.124121,-2.443379,-0.038938,-0.019954,-0.848761,-0.745403,-1.205237,10.321303,-0.513423,0.926623,1,0,,38.990230,-76.939593,-12.047000,,,
2026-09-11T19:04:02.298,9.892161,2.057157,10.139958,19.047749,0.000000,67.605886,-23.258906,1.889971,-0.445437,-0.937763,-1.038591,9.144860,-2.504700,0.017396,-0.041484,-0.936279,-3.049182,-5.618230,11.341587,-0.756306,0.662541,1,0,,38.990230,-76.939593,-12.047000,,,
2026-09-11T19:04:02.332,9.925573,2.037735,10.207633,18.867917,0.000000,69.518880,-23.917046,1.862762,-0.460455,-0.969380,-1.070452,9.162648,-2.566678,0.068109,-0.274067,-0.967896,1.982610,4.584021,0.775314,-0.666726,1.063745,1,0,,38.990230,-76.939593,-12.047000,,,
2026-09-11T19:04:02.365,9.958996,2.028232,10.275814,18.779923,0.000000,69.307393,-23.844287,1.855117,-0.429530,-0.904274,-1.101764,9.178441,-2.628582,-0.080430,0.228753,-0.902790,1.946718,-1.024795,13.030586,-0.577563,1.089306,1,0,,38.990230,-76.939593,-12.047000,,,
