timestamp,time_s,speed_mps,distance_m,wheel_omega_rad_s,motor_current_A,steer_motor_deg,steer_column_deg,vx_mps,vy_mps,yaw_rate_rad_s,heading_rad,x_m,y_m,gyro_x_rad_s,gyro_y_rad_s,gyro_z_rad_s,accel_x_mps2,accel_y_mps2,accel_z_mps2,grade_deg,bank_deg,moving,gps_new_fix,gps_time_s,gps_latitude_deg,gps_longitude_deg,gps_altitude_m,gps_east_m,gps_north_m,gps_sigma_m
2026-09-11T19:18:38.611,0.000007,-0.000000,-0.000000,-0.000000,0.000000,0.295944,-0.101816,-0.000000,-0.000295,-0.000620,0.000000,0.000000,0.000000,0.000737,-0.001020,0.000863,0.293317,0.630175,9.639251,0.000000,0.000000,0,0,,,,,,,
2026-09-11T19:18:38.644,0.033416,-0.000000,-0.000000,-0.000000,0.000000,0.295944,-0.101816,-0.000000,-0.000669,-0.001408,-0.000034,-0.000000,-0.000016,0.002325,-0.000882,0.000076,0.273017,0.656751,9.665140,0.000000,0.000000,0,0,,,,,,,
2026-09-11T19:18:38.679,0.066834,-0.000000,-0.000000,-0.000000,0.000000,0.295944,-0.101816,-0.000000,-0.001148,-0.002417,-0.000098,-0.000000,-0.000046,0.001179,0.001047,-0.000933,0.269781,0.638119,9.630229,0.000000,0.000000,0,0,,,,,,,
2026-09-11T19:18:38.712,0.100257,-0.000000,-0.000000,-0.000000,0.000000,0.295944,-0.101816,-0.000000,-0.001062,-0.002235,-0.000176,-0.000000,-0.000083,0.005173,-0.001100,-0.000751,0.269487,0.658713,9.694364,0.000000,0.000000,0,0,,,,,,,
2026-09-11T19:18:38.746,0.133669,-0.000000,-0.000000,-0.000000,0.000000,0.295944,-0.101816,-0.000000,-0.000540,-0.001137,-0.000232,-0.000000,-0.000110,0.004887,-0.001175,0.000347,0.280470,0.660674,9.666807,0.000000,0.000000,0,0,,,,,,,
2026-09-11T19:18:38.779,0.167085,-0.000000,-0.000000,-0.000000,0.000000,0.295944,-0.101816,-0.000000,-0.000487,-0.001026,-0.000268,-0.000000,-0.000127,0.005163,0.001344,0.000458,0.284001,0.656947,9.648077,0.000000,0.000000,0,1,0.148714,38.990217,-76.938744,-9.758000,0.000000,0.000000,3.307732
2026-09-11T19:18:38.813,0.200506,-0.000000,-0.000000,-0.000000,0.000000,0.295944,-0.101816,-0.000000,-0.000351,-0.000739,-0.000297,-0.000000,-0.000141,0.004546,-0.001381,0.000745,0.292336,0.672050,9.672495,0.000000,0.000000,0,0,,38.990217,-76.938744,-9.758000,,,
2026-09-11T19:18:38.846,0.233924,-0.000000,-0.000000,-0.000000,0.000000,0.295944,-0.101816,-0.000000,-0.001451,-0.003055,-0.000361,-0.000000,-0.000171,0.001657,0.002227,-0.001572,0.277920,0.654692,9.666317,0.000000,0.000000,0,0,,38.990217,-76.938744,-9.758000,,,
2026-09-11T19:18:38.883,0.267336,-0.000000,-0.000000,-0.000000,0.000000,0.295944,-0.101816,-0.000000,-0.001671,-0.003518,-0.000471,-0.000000,-0.000224,0.001688,0.000883,-0.002035,0.264681,0.669010,9.692403,0.000000,0.000000,0,0,,38.990217,-76.938744,-9.758000,,,
2026-09-11T19:18:38.916,0.300760,-0.000000,-0.000000,-0.000000,0.000000,0.295944,-0.101816,-0.000000,-0.000600,-0.001264,-0.000551,-0.000000,-0.000262,-0.003211,0.000291,0.000220,0.277724,0.669010,9.659060,0.000000,0.000000,0,0,,38.990217,-76.938744,-9.758000,,,
2026-09-11T19:18:38.949,0.334173,-0.000000,-0.000000,-0.000000,0.000000,0.295944,-0.101816,-0.000000,-0.000872,-0.001835,-0.000602,-0.000000,-0.000286,-0.002883,0.001292,-0.000352,0.276351,0.624782,9.647096,0.000000,0.000000,0,0,,38.990217,-76.938744,-9.758000,,,
2026-09-11T19:18:38.980,0.367588,-0.000000,-0.000000,-0.000000,0.000000,0.295944,-0.101816,-0.000000,-0.000944,-0.001988,-0.000666,-0.000000,-0.000316,-0.001404,0.000697,-0.000505,0.269094,0.684210,9.677889,0.000000,0.000000,0,0,,38.990217,-76.938744,-9.758000,,,
2026-09-11T19:18:39.014,0.401012,-0.000000,-0.000000,-0.000000,0.000000,0.295944,-0.101816,-0.000000,-0.001279,-0.002693,-0.000744,-0.000000,-0.000354,-0.001433,-0.001397,-0.001209,0.291650,0.661655,9.658276,0.000000,0.000000,0,0,,38.990217,-76.938744,-9.758000,,,
2026-09-11T19:18:39.048,0.434432,-0.000000,-0.000000,-0.000000,0.000000,0.295944,-0.101816,-0.000000,-0.000991,-0.002086,-0.000824,-0.000000,-0.000392,-0.000517,0.001682,-0.000602,0.281353,0.674109,9.689559,0.000000,0.000000,0,0,,38.990217,-76.938744,-9.758000,,,
2026-09-11T19:18:39.081,0.467848,-0.000000,-0.000000,-0.000000,0.000000,0.295944,-0.101816,-0.000000,-0.001162,-0.002447,-0.000900,-0.000000,-0.000428,0.001611,0.000016,-0.000963,0.276842,0.640276,9.668376,0.000000,0.000000,0,0,,38.990217,-76.938744,-9.758000,,,
2026-09-11T19:18:39.114,0.501273,-0.000000,-0.000000,-0.000000,0.000000,0.295944,-0.101816,-0.000000,-0.001071,-0.002255,-0.000979,-0.000000,-0.000465,0.001851,-0.001216,-0.000772,0.270271,0.678032,9.663963,0.000000,0.000000,0,0,,38.990217,-76.938744,-9.758000,,,
2026-09-11T19:18:39.147,0.534689,-0.000000,-0.000000,-0.000000,0.000000,0.295944,-0.101816,-0.000000,-0.001064,-0.002240,-0.001054,-0.000000,-0.000501,0.002599,0.000494,-0.000757,0.264093,0.650573,9.661414,0.000000,0.000000,0,0,,38.990217,-76.938744,-9.758000,,,
2026-09-11T19:18:39.180,0.568101,-0.000000,-0.000000,-0.000000,0.000000,0.295944,-0.101816,-0.000000,-0.000946,-0.001992,-0.001124,-0.000000,-0.000534,0.002035,0.000220,-0.000509,0.283020,0.653221,9.647292,0.000000,0.000000,0,0,,38.990217,-76.938744,-9.758000,,,
2026-09-11T19:18:39.214,0.601532,-0.000000,-0.000000,-0.000000,0.000000,0.295944,-0.101816,-0.000000,-0.001210,-0.002548,-0.001200,-0.000000,-0.000570,0.000734,-0.001960,-0.001065,0.288708,0.655673,9.666023,0.000000,0.000000,0,0,,38.990217,-76.938744,-9.758000,,,
2026-09-11T19:18:39.247,0.634954,-0.000000,-0.000000,-0.000000,0.000000,0.295944,-0.101816,-0.000000,-0.000924,-0.001945,-0.001275,-0.000000,-0.000606,0.001754,-0.000094,-0.000462,0.278019,0.644493,9.650332,0.000000,0.000000,0,0,,38.990217,-76.938744,-9.758000,,,
2026-09-11T19:18:39.281,0.668377,-0.000000,-0.000000,-0.000000,0.000000,0.295944,-0.101816,-0.000000,-0.001080,-0.002274,-0.001346,-0.000000,-0.000639,0.001852,0.000350,-0.000790,0.270467,0.658517,9.680929,0.000000,0.000000,0,0,,38.990217,-76.938744,-9.758000,,,
2026-09-11T19:18:39.314,0.701800,-0.000000,-0.000000,-0.000000,0.000000,0.295944,-0.101816,-0.000000,-0.001148,-0.002417,-0.001424,-0.000000,-0.000677,-0.000689,-0.000725,-0.000933,0.273017,0.662047,9.660139,0.000000,0.000000,0,0,,38.990217,-76.938744,-9.758000,,,
2026-09-11T19:18:39.348,0.735215,-0.000000,-0.000000,-0.000000,0.000000,0.362549,-0.124730,-0.000000,-0.002195,-0.004620,-0.001542,-0.000001,-0.000732,0.002158,0.000343,-0.003137,0.277724,0.685877,9.674358,0.000000,0.000000,0,0,,38.990217,-76.938744,-9.758000,,,
2026-09-11T19:18:39.381,0.768628,-0.000000,-0.000000,-0.000000,0.000000,0.406494,-0.139849,-0.000000,-0.000730,-0.001537,-0.001645,-0.000001,-0.000781,0.003837,-0.000594,-0.000054,0.280764,0.661949,9.676320,0.000000,0.000000,0,0,,38.990217,-76.938744,-9.758000,,,
2026-09-11T19:18:39.414,0.802050,-0.000000,-0.000000,-0.000000,0.000000,0.450439,-0.154968,-0.000000,-0.001768,-0.003722,-0.001733,-0.000001,-0.000823,0.001806,-0.001564,-0.002238,0.282235,0.670186,9.675829,0.000000,0.000000,0,0,,38.990217,-76.938744,-9.758000,,,
2026-09-11T19:18:39.448,0.835473,-0.000000,-0.000000,-0.000000,0.000000,0.450439,-0.154968,-0.000000,-0.000995,-0.002095,-0.001830,-0.000001,-0.000869,0.003111,0.000236,-0.000611,0.277430,0.678718,9.676810,0.000000,0.000000,0,0,,38.990217,-76.938744,-9.758000,,,
2026-09-11T19:18:39.481,0.868893,-0.000000,-0.000000,-0.000000,0.000000,0.450439,-0.154968,-0.000000,-0.000885,-0.001863,-0.001896,-0.000001,-0.000901,0.002173,-0.000066,-0.000380,0.273998,0.658222,9.660139,0.000000,0.000000,0,0,,38.990217,-76.938744,-9.758000,,,
2026-09-11T19:18:39.517,0.902319,-0.000000,-0.000000,-0.000000,0.000000,0.450439,-0.154968,-0.000000,-0.000476,-0.001002,-0.001944,-0.000001,-0.000923,-0.003020,0.001176,0.000482,0.299691,0.667244,9.679164,0.000000,0.000000,0,0,,38.990217,-76.938744,-9.758000,,,
2026-09-11T19:18:39.551,0.935740,-0.000000,-0.000000,-0.000000,0.000000,0.450439,-0.154968,-0.000000,-0.000310,-0.000652,-0.001972,-0.000001,-0.000936,0.001544,-0.000566,0.000831,0.288414,0.648612,9.661218,0.000000,0.000000,0,0,,38.990217,-76.938744,-9.758000,,,
2026-09-11T19:18:39.583,0.969159,-0.000000,-0.000000,-0.000000,0.000000,0.450439,-0.154968,-0.000000,-0.000038,-0.000080,-0.001984,-0.000001,-0.000942,-0.000457,-0.001504,0.001404,0.269585,0.652240,9.669945,0.000000,0.000000,0,0,,38.990217,-76.938744,-9.758000,,,
2026-09-11T19:18:39.615,1.002584,-0.000000,-0.000000,-0.000000,0.000000,0.450439,-0.154968,-0.000000,-0.000038,-0.000081,-0.001986,-0.000001,-0.000944,-0.001875,-0.000775,0.001403,0.267918,0.667539,9.659452,0.000000,0.000000,0,0,,38.990217,-76.938744,-9.758000,,,
2026-09-11T19:18:39.649,1.036005,-0.000000,-0.000000,-0.000000,0.000000,0.450439,-0.154968,-0.000000,-0.000627,-0.001319,-0.002010,-0.000001,-0.000955,0.003928,-0.000439,0.000164,0.269683,0.639296,9.662198,0.000000,0.000000,0,0,,38.990217,-76.938744,-9.758000,,,
2026-09-11T19:18:39.683,1.069420,-0.000000,-0.000000,-0.000000,0.000000,0.450439,-0.154968,-0.000000,-0.000860,-0.001811,-0.002062,-0.000001,-0.000980,0.002919,-0.001379,-0.000327,0.272821,0.663812,9.654157,0.000000,0.000000,0,0,,38.990217,-76.938744,-9.758000,,,
2026-09-11T19:18:39.715,1.102841,-0.000000,-0.000000,-0.000000,0.000000,0.450439,-0.154968,-0.000000,-0.000356,-0.000750,-0.002105,-0.000001,-0.001000,-0.000803,0.000348,0.000734,0.279293,0.676463,9.663865,0.000000,0.000000,0,0,,38.990217,-76.938744,-9.758000,,,
2026-09-11T19:18:39.749,1.136259,-0.000000,-0.000000,-0.000000,0.000000,0.450439,-0.154968,-0.000000,-0.000740,-0.001558,-0.002143,-0.000001,-0.001018,-0.001150,-0.001199,-0.000074,0.278117,0.674894,9.675829,0.000000,0.000000,0,0,,38.990217,-76.938744,-9.758000,,,
2026-09-11T19:18:39.783,1.169680,-0.000000,-0.000000,-0.000000,0.000000,0.450439,-0.154968,-0.000000,0.000155,0.000326,-0.002164,-0.000001,-0.001028,-0.002850,-0.001277,0.001809,0.289100,0.649887,9.655530,0.000000,0.000000,0,1,1.146063,38.990217,-76.938744,-9.697000,-0.006194,0.013158,3.359483
2026-09-11T19:18:39.816,1.203102,-0.000000,-0.000000,-0.000000,0.000000,0.450439,-0.154968,-0.000000,-0.001134,-0.002387,-0.002199,-0.000001,-0.001044,-0.002765,-0.000138,-0.000904,0.281353,0.674599,9.681027,0.000000,0.000000,0,0,,38.990217,-76.938744,-9.697000,,,
2026-09-11T19:18:39.849,1.236519,-0.000000,-0.000000,-0.000000,0.000000,0.450439,-0.154968,-0.000000,-0.000360,-0.000757,-0.002251,-0.000001,-0.001069,0.001192,-0.000703,0.000726,0.278509,0.657928,9.670044,0.000000,0.000000,0,0,,38.990217,-76.938744,-9.697000,,,
2026-09-11T19:18:39.883,1.269933,-0.000000,-0.000000,-0.000000,0.000000,0.450439,-0.154968,-0.000000,-0.000313,-0.000658,-0.002275,-0.000001,-0.001080,0.001862,-0.001312,0.000825,0.274978,0.658517,9.663865,0.000000,0.000000,0,0,,38.990217,-76.938744,-9.697000,,,
2026-09-11T19:18:39.916,1.303351,-0.000000,-0.000000,-0.000000,0.000000,0.450439,-0.154968,-0.000000,-0.000418,-0.000881,-0.002300,-0.000001,-0.001093,0.000900,0.001124,0.000603,0.267133,0.644983,9.680635,0.000000,0.000000,0,0,,38.990217,-76.938744,-9.697000,,,
2026-09-11T19:18:39.949,1.336769,-0.000000,-0.000000,-0.000000,0.000000,0.450439,-0.154968,-0.000000,-0.000991,-0.002085,-0.002350,-0.000001,-0.001116,0.005399,-0.001340,-0.000602,0.279490,0.653515,9.637878,0.000000,0.000000,0,0,,38.990217,-76.938744,-9.697000,,,
2026-09-11T19:18:39.982,1.370182,-0.000000,-0.000000,-0.000000,0.000000,0.450439,-0.154968,-0.000000,-0.000153,-0.000321,-0.002390,-0.000001,-0.001135,0.004462,-0.001097,0.001162,0.281941,0.662930,9.668573,0.000000,0.000000,0,0,,38.990217,-76.938744,-9.697000,,,
2026-09-11T19:18:40.017,1.403603,-0.000000,-0.000000,-0.000000,0.000000,0.450439,-0.154968,-0.000000,-0.001343,-0.002826,-0.002443,-0.000001,-0.001160,0.005489,0.000673,-0.001343,0.283903,0.648023,9.633857,0.000000,0.000000,0,0,,38.990217,-76.938744,-9.697000,,,
2026-09-11T19:18:40.050,1.437085,-0.000000,-0.000000,-0.000000,0.000000,0.450439,-0.154968,-0.000000,-0.000218,-0.000458,-0.002498,-0.000001,-0.001186,0.003355,-0.000760,0.001025,0.280372,0.684406,9.675339,0.000000,0.000000,0,0,,38.990217,-76.938744,-9.697000,,,
2026-09-11T19:18:40.083,1.470501,-0.000000,-0.000000,-0.000000,0.000000,0.450439,-0.154968,-0.000000,-0.000953,-0.002007,-0.002539,-0.000002,-0.001206,0.001266,-0.001513,-0.000524,0.280470,0.667931,9.657099,0.000000,0.000000,0,0,,38.990217,-76.938744,-9.697000,,,
2026-09-11T19:18:40.116,1.503923,-0.000000,-0.000000,-0.000000,0.000000,0.450439,-0.154968,-0.000000,-0.000126,-0.000266,-0.002577,-0.000002,-0.001224,0.000821,0.001363,0.001217,0.278019,0.666264,9.661806,0.000000,0.000000,0,0,,38.990217,-76.938744,-9.697000,,,
2026-09-11T19:18:40.150,1.537344,-0.000000,-0.000000,-0.000000,0.000000,0.450439,-0.154968,-0.000000,-0.000037,-0.000077,-0.002583,-0.000002,-0.001227,-0.002156,-0.001110,0.001406,0.273998,0.663518,9.646409,0.000000,0.000000,0,0,,38.990217,-76.938744,-9.697000,,,
2026-09-11T19:18:40.183,1.570758,-0.000000,-0.000000,-0.000000,0.000000,0.450439,-0.154968,-0.000000,-0.000216,-0.000456,-0.002592,-0.000002,-0.001231,-0.003248,-0.000639,0.001028,0.277724,0.660968,9.657099,0.000000,0.000000,0,0,,38.990217,-76.938744,-9.697000,,,
2026-09-11T19:18:40.217,1.604179,-0.000000,-0.000000,-0.000000,0.000000,0.450439,-0.154968,-0.000000,-0.001006,-0.002119,-0.002635,-0.000002,-0.001251,-0.000007,-0.000296,-0.000635,0.278313,0.659399,9.687597,0.000000,0.000000,0,0,,38.990217,-76.938744,-9.697000,,,
2026-09-11T19:18:40.250,1.637602,-0.000000,-0.000000,-0.000000,0.000000,0.450439,-0.154968,-0.000000,-0.000380,-0.000799,-0.002683,-0.000002,-0.001275,-0.000588,-0.000973,0.000685,0.281255,0.665185,9.670534,0.000000,0.000000,0,0,,38.990217,-76.938744,-9.697000,,,
2026-09-11T19:18:40.283,1.671025,-0.000000,-0.000000,-0.000000,0.000000,0.450439,-0.154968,-0.000000,-0.000682,-0.001435,-0.002721,-0.000002,-0.001292,-0.000390,-0.000261,0.000049,0.275077,0.674403,9.693579,0.000000,0.000000,0,0,,38.990217,-76.938744,-9.697000,,,
2026-09-11T19:18:40.317,1.704448,-0.000000,-0.000000,-0.000000,0.000000,0.450439,-0.154968,-0.000000,-0.000499,-0.001050,-0.002762,-0.000002,-0.001312,0.001906,-0.000228,0.000433,0.277920,0.678130,9.673378,0.000000,0.000000,0,0,,38.990217,-76.938744,-9.697000,,,
2026-09-11T19:18:40.350,1.737860,-0.000000,-0.000000,-0.000000,0.000000,0.450439,-0.154968,-0.000000,-0.000666,-0.001402,-0.002803,-0.000002,-0.001332,-0.001285,-0.000738,0.000082,0.276842,0.649298,9.658570,0.000000,0.000000,0,0,,38.990217,-76.938744,-9.697000,,,
2026-09-11T19:18:40.384,1.771274,-0.000000,-0.000000,-0.000000,0.000000,0.450439,-0.154968,-0.000000,-0.000688,-0.001448,-0.002851,-0.000002,-0.001354,-0.002855,-0.001821,0.000035,0.271742,0.661753,9.651411,0.000000,0.000000,0,0,,38.990217,-76.938744,-9.697000,,,
2026-09-11T19:18:40.417,1.804698,-0.000000,-0.000000,-0.000000,0.000000,0.450439,-0.154968,-0.000000,-0.000365,-0.000768,-0.002888,-0.000002,-0.001372,0.000418,-0.000494,0.000716,0.285275,0.651946,9.656510,0.000000,0.000000,0,0,,38.990217,-76.938744,-9.697000,,,
2026-09-11T19:18:40.450,1.838115,-0.000000,-0.000000,-0.000000,0.000000,0.450439,-0.154968,-0.000000,-0.001105,-0.002326,-0.002940,-0.000002,-0.001396,-0.002473,-0.000421,-0.000842,0.282235,0.663126,9.669063,0.000000,0.000000,0,0,,38.990217,-76.938744,-9.697000,,,
2026-09-11T19:18:40.488,1.871540,-0.000000,-0.000000,-0.000000,0.000000,0.450439,-0.154968,-0.000000,-0.000285,-0.000599,-0.002988,-0.000002,-0.001420,-0.000580,0.000372,0.000884,0.283510,0.656457,9.643075,0.000000,0.000000,0,0,,38.990217,-76.938744,-9.697000,,,
2026-09-11T19:18:40.518,1.904951,-0.000000,-0.000000,-0.000000,0.000000,0.450439,-0.154968,-0.000000,-0.000600,-0.001262,-0.003020,-0.000002,-0.001434,-0.001959,-0.001146,0.000221,0.280078,0.657732,9.644840,0.000000,0.000000,0,0,,38.990217,-76.938744,-9.697000,,,
2026-09-11T19:18:40.551,1.938369,-0.000000,-0.000000,-0.000000,0.000000,0.450439,-0.154968,-0.000000,-0.000190,-0.000400,-0.003047,-0.000002,-0.001447,-0.004148,-0.000720,0.001084,0.277528,0.650279,9.642585,0.000000,0.000000,0,0,,38.990217,-76.938744,-9.697000,,,
2026-09-11T19:18:40.584,1.971781,-0.000000,-0.000000,-0.000000,0.000000,0.450439,-0.154968,-0.000000,-0.000904,-0.001902,-0.003086,-0.000002,-0.001466,-0.002857,0.000873,-0.000419,0.276449,0.651456,9.663571,0.000000,0.000000,0,0,,38.990217,-76.938744,-9.697000,,,
2026-09-11T19:18:40.618,2.005196,-0.000000,-0.000000,-0.000000,0.000000,0.450439,-0.154968,-0.000000,-0.000293,-0.000617,-0.003128,-0.000002,-0.001486,0.000616,-0.000249,0.000867,0.278411,0.673717,9.674849,0.000000,0.000000,0,0,,38.990217,-76.938744,-9.697000,,,
2026-09-11T19:18:40.651,2.038614,-0.000000,-0.000000,-0.000000,0.000000,0.450439,-0.154968,-0.000000,-0.001145,-0.002410,-0.003178,-0.000002,-0.001510,-0.002474,0.001080,-0.000927,0.287433,0.642434,9.664552,0.000000,0.000000,0,0,,38.990217,-76.938744,-9.697000,,,
2026-09-11T19:18:40.684,2.072023,-0.000000,-0.000000,-0.000000,0.000000,0.450439,-0.154968,-0.000000,-0.000655,-0.001378,-0.003242,-0.000002,-0.001540,-0.001192,0.000565,0.000105,0.275763,0.668617,9.693089,0.000000,0.000000,0,0,,38.990217,-76.938744,-9.697000,,,
2026-09-11T19:18:40.718,2.105466,-0.000000,-0.000000,-0.000000,0.000000,0.450439,-0.154968,-0.000000,-0.000586,-0.001234,-0.003285,-0.000003,-0.001561,0.000769,-0.001061,0.000250,0.279588,0.652731,9.655824,0.000000,0.000000,0,0,,38.990217,-76.938744,-9.697000,,,
2026-09-11T19:18:40.751,2.138884,-0.000000,-0.000000,-0.000000,0.000000,0.450439,-0.154968,-0.000000,-0.000649,-0.001367,-0.003329,-0.000003,-0.001581,-0.002127,-0.000221,0.000116,0.280470,0.656163,9.674358,0.000000,0.000000,0,0,,38.990217,-76.938744,-9.697000,,,
2026-09-11T19:18:40.786,2.172296,-0.000000,-0.000000,-0.000000,0.000000,0.450439,-0.154968,-0.000000,-0.000771,-0.001622,-0.003379,-0.000003,-0.001605,-0.000955,0.000570,-0.000139,0.280470,0.661164,9.667788,0.000000,0.000000,0,1,2.155587,38.990217,-76.938744,-9.620000,-0.022039,0.019459,3.359483
2026-09-11T19:18:40.818,2.205716,-0.000000,-0.000000,-0.000000,0.000000,0.450439,-0.154968,-0.000000,0.000081,0.000170,-0.003403,-0.000003,-0.001616,0.000493,-0.001380,0.001654,0.278411,0.656457,9.663081,0.000000,0.000000,0,0,,38.990217,-76.938744,-9.620000,,,
2026-09-11T19:18:40.851,2.239139,-0.000000,-0.000000,-0.000000,0.000000,0.450439,-0.154968,-0.000000,-0.000904,-0.001903,-0.003432,-0.000003,-0.001630,-0.001269,0.000633,-0.000419,0.284197,0.663616,9.676810,0.000000,0.000000,0,0,,38.990217,-76.938744,-9.620000,,,
2026-09-11T19:18:40.886,2.272550,-0.000000,-0.000000,-0.000000,0.000000,0.450439,-0.154968,-0.000000,-0.000226,-0.000476,-0.003472,-0.000003,-0.001649,-0.000008,0.000513,0.001008,0.283510,0.638805,9.622089,0.000000,0.000000,0,0,,38.990217,-76.938744,-9.620000,,,
2026-09-11T19:18:40.918,2.305969,-0.000000,-0.000000,-0.000000,0.000000,0.450439,-0.154968,-0.000000,-0.000833,-0.001753,-0.003509,-0.000003,-0.001667,0.000484,-0.000290,-0.000270,0.277430,0.676463,9.677595,0.000000,0.000000,0,0,,38.990217,-76.938744,-9.620000,,,
2026-09-11T19:18:40.952,2.339389,-0.000000,-0.000000,-0.000000,0.000000,0.450439,-0.154968,-0.000000,-0.000438,-0.000923,-0.003554,-0.000003,-0.001688,-0.002403,0.001251,0.000561,0.281451,0.646945,9.652588,0.000000,0.000000,0,0,,38.990217,-76.938744,-9.620000,,,
2026-09-11T19:18:40.985,2.372798,-0.000000,-0.000000,-0.000000,0.000000,0.450439,-0.154968,-0.000000,-0.001050,-0.002210,-0.003606,-0.000003,-0.001713,-0.001067,0.001476,-0.000726,0.279391,0.664401,9.699267,0.000000,0.000000,0,0,,38.990217,-76.938744,-9.620000,,,
2026-09-11T19:18:41.019,2.406214,-0.000000,-0.000000,-0.000000,0.000000,0.450439,-0.154968,-0.000000,-0.000018,-0.000038,-0.003644,-0.000003,-0.001731,-0.000385,-0.001878,0.001446,0.276351,0.673423,9.672887,0.000000,0.000000,0,0,,38.990217,-76.938744,-9.620000,,,
2026-09-11T19:18:41.053,2.439637,-0.000000,-0.000000,-0.000000,0.000000,0.450439,-0.154968,-0.000000,-0.001348,-0.002839,-0.003692,-0.000003,-0.001754,-0.001620,0.000808,-0.001355,0.282824,0.640276,9.642781,0.000000,0.000000,0,0,,38.990217,-76.938744,-9.620000,,,
2026-09-11T19:18:41.085,2.473046,-0.000000,-0.000000,-0.000000,0.000000,0.450439,-0.154968,-0.000000,-0.001401,-0.002950,-0.003788,-0.000003,-0.001799,0.000362,0.002140,-0.001467,0.280568,0.664401,9.690049,0.000000,0.000000,0,0,,38.990217,-76.938744,-9.620000,,,
2026-09-11T19:18:41.120,2.506462,-0.000000,-0.000000,-0.000000,0.000000,0.450439,-0.154968,-0.000000,-0.000255,-0.000536,-0.003847,-0.000004,-0.001827,-0.000624,-0.001195,0.000947,0.287923,0.653123,9.656510,0.000000,0.000000,0,0,,38.990217,-76.938744,-9.620000,,,
2026-09-11T19:18:41.152,2.539882,-0.000000,-0.000000,-0.000000,0.000000,0.450439,-0.154968,-0.000000,-0.001161,-0.002445,-0.003896,-0.000004,-0.001851,-0.001510,0.001337,-0.000962,0.279686,0.661360,9.707309,0.000000,0.000000,0,0,,38.990217,-76.938744,-9.620000,,,
2026-09-11T19:18:41.185,2.573292,-0.000000,-0.000000,-0.000000,0.000000,0.450439,-0.154968,-0.000000,-0.001070,-0.002253,-0.003975,-0.000004,-0.001888,0.000334,0.000349,-0.000770,0.274096,0.650573,9.644350,0.000000,0.000000,0,0,,38.990217,-76.938744,-9.620000,,,
2026-09-11T19:18:41.221,2.606708,-0.000000,-0.000000,-0.000000,0.000000,0.450439,-0.154968,-0.000000,-0.001067,-0.002245,-0.004050,-0.000004,-0.001924,-0.000542,-0.001562,-0.000762,0.278313,0.649298,9.646802,0.000000,0.000000,0,0,,38.990217,-76.938744,-9.620000,,,
2026-09-11T19:18:41.252,2.640130,-0.000000,-0.000000,-0.000000,0.000000,0.450439,-0.154968,-0.000000,-0.001125,-0.002368,-0.004127,-0.000004,-0.001960,0.000664,0.000156,-0.000884,0.278411,0.660184,9.659550,0.000000,0.000000,0,0,,38.990217,-76.938744,-9.620000,,,
2026-09-11T19:18:41.286,2.673544,-0.000000,-0.000000,-0.000000,0.000000,0.450439,-0.154968,-0.000000,-0.000582,-0.001226,-0.004187,-0.000004,-0.001989,0.002209,0.001455,0.000257,0.279195,0.651946,9.667592,0.000000,0.000000,0,0,,38.990217,-76.938744,-9.620000,,,
2026-09-11T19:18:41.319,2.706959,-0.000000,-0.000000,-0.000000,0.000000,0.450439,-0.154968,-0.000000,-0.001301,-0.002740,-0.004253,-0.000004,-0.002020,0.000436,-0.001346,-0.001256,0.276351,0.675874,9.703288,0.000000,0.000000,0,0,,38.990217,-76.938744,-9.620000,,,
2026-09-11T19:18:41.353,2.740377,-0.000000,-0.000000,-0.000000,0.000000,0.450439,-0.154968,-0.000000,-0.000938,-0.001976,-0.004332,-0.000004,-0.002058,-0.000660,0.001017,-0.000492,0.283216,0.653221,9.647292,0.000000,0.000000,0,0,,38.990217,-76.938744,-9.620000,,,
2026-09-11T19:18:41.387,2.773784,-0.000000,-0.000000,-0.000000,0.000000,0.450439,-0.154968,-0.000000,0.000130,0.000274,-0.004361,-0.000005,-0.002071,-0.002240,-0.000892,0.001758,0.278803,0.655673,9.681027,0.000000,0.000000,0,0,,38.990217,-76.938744,-9.620000,,,
2026-09-11T19:18:41.420,2.807202,-0.000000,-0.000000,-0.000000,0.000000,0.450439,-0.154968,-0.000000,-0.000965,-0.002031,-0.004390,-0.000005,-0.002085,-0.003177,-0.000014,-0.000548,0.281647,0.667441,9.655334,0.000000,0.000000,0,0,,38.990217,-76.938744,-9.620000,,,
2026-09-11T19:18:41.453,2.840619,-0.000000,-0.000000,-0.000000,0.000000,0.450439,-0.154968,-0.000000,-0.001436,-0.003023,-0.004475,-0.000005,-0.002125,-0.002529,0.001016,-0.001539,0.279980,0.659889,9.672103,0.000000,0.000000,0,0,,38.990217,-76.938744,-9.620000,,,
2026-09-11T19:18:41.487,2.874026,-0.000000,-0.000000,-0.000000,0.000000,0.450439,-0.154968,-0.000000,-0.000508,-0.001070,-0.004543,-0.000005,-0.002158,-0.003291,-0.001630,0.000414,0.278803,0.665185,9.670338,0.000000,0.000000,0,0,,38.990217,-76.938744,-9.620000,,,
2026-09-11T19:18:41.520,2.907444,-0.000000,-0.000000,-0.000000,0.000000,0.450439,-0.154968,-0.000000,-0.000809,-0.001703,-0.004589,-0.000005,-0.002180,-0.003230,-0.000523,-0.000220,0.276253,0.659497,9.666611,0.000000,0.000000,0,0,,38.990217,-76.938744,-9.620000,,,
2026-09-11T19:18:41.554,2.940864,-0.000000,-0.000000,-0.000000,0.000000,0.450439,-0.154968,-0.000000,-0.001046,-0.002203,-0.004654,-0.000005,-0.002211,-0.001573,0.001512,-0.000719,0.274390,0.648023,9.652392,0.000000,0.000000,0,0,,38.990217,-76.938744,-9.620000,,,
2026-09-11T19:18:41.587,2.974273,-0.000000,-0.000000,-0.000000,0.000000,0.450439,-0.154968,-0.000000,-0.000742,-0.001562,-0.004717,-0.000005,-0.002241,-0.000744,-0.000310,-0.000078,0.277626,0.650475,9.663081,0.000000,0.000000,0,0,,38.990217,-76.938744,-9.620000,,,
2026-09-11T19:18:41.620,3.007690,-0.000000,-0.000000,-0.000000,0.000000,0.450439,-0.154968,-0.000000,-0.001077,-0.002268,-0.004781,-0.000005,-0.002271,-0.001842,0.000162,-0.000784,0.275273,0.675874,9.692893,0.000000,0.000000,0,0,,38.990217,-76.938744,-9.620000,,,
2026-09-11T19:18:41.657,3.041110,-0.000000,-0.000000,-0.000000,0.000000,0.450439,-0.154968,-0.000000,-0.000177,-0.000372,-0.004825,-0.000006,-0.002292,0.000230,-0.000631,0.001112,0.284099,0.653711,9.664748,0.000000,0.000000,0,0,,38.990217,-76.938744,-9.620000,,,
2026-09-11T19:18:41.689,3.074520,-0.000000,-0.000000,-0.000000,0.000000,0.450439,-0.154968,-0.000000,-0.000289,-0.000609,-0.004842,-0.000006,-0.002300,-0.003130,0.000179,0.000875,0.281745,0.658517,9.645331,0.000000,0.000000,0,0,,38.990217,-76.938744,-9.620000,,,
2026-09-11T19:18:41.721,3.107941,-0.000000,-0.000000,-0.000000,0.000000,0.450439,-0.154968,-0.000000,-0.000506,-0.001065,-0.004870,-0.000006,-0.002313,-0.004945,0.000264,0.000418,0.284589,0.656163,9.661512,0.000000,0.000000,0,0,,38.990217,-76.938744,-9.620000,,,
2026-09-11T19:18:41.754,3.141355,-0.000000,-0.000000,-0.000000,0.000000,0.450439,-0.154968,-0.000000,-0.000310,-0.000653,-0.004899,-0.000006,-0.002327,-0.003045,0.000291,0.000830,0.278215,0.642532,9.650136,0.000000,0.000000,0,1,3.149305,38.990217,-76.938744,-9.529000,-0.035291,0.023351,3.359483
2026-09-11T19:18:41.787,3.174766,-0.000000,-0.000000,-0.000000,0.000000,0.450439,-0.154968,-0.000000,-0.000340,-0.000715,-0.004921,-0.000006,-0.002338,-0.003434,-0.000288,0.000769,0.278705,0.667931,9.693285,0.000000,0.000000,0,0,,38.990217,-76.938744,-9.529000,,,
2026-09-11T19:18:41.821,3.208188,-0.000000,-0.000000,-0.000000,0.000000,0.450439,-0.154968,-0.000000,-0.000894,-0.001881,-0.004965,-0.000006,-0.002358,-0.004334,0.001138,-0.000398,0.275273,0.649004,9.674358,0.000000,0.000000,0,0,,38.990217,-76.938744,-9.529000,,,
2026-09-11T19:18:41.854,3.241612,-0.000000,-0.000000,-0.000000,0.000000,0.450439,-0.154968,-0.000000,-0.000854,-0.001798,-0.005026,-0.000006,-0.002387,-0.000954,0.000262,-0.000315,0.275175,0.650279,9.652097,0.000000,0.000000,0,0,,38.990217,-76.938744,-9.529000,,,
2026-09-11T19:18:41.889,3.275027,-0.000000,-0.000000,-0.000000,0.000000,0.450439,-0.154968,-0.000000,-0.000401,-0.000845,-0.005070,-0.000006,-0.002408,-0.001919,-0.000265,0.000638,0.277626,0.648220,9.670044,0.000000,0.000000,0,0,,38.990217,-76.938744,-9.529000,,,
2026-09-11T19:18:41.921,3.308450,-0.000000,-0.000000,-0.000000,0.000000,0.450439,-0.154968,-0.000000,-0.001279,-0.002693,-0.005130,-0.000006,-0.002437,0.000481,0.000221,-0.001210,0.287041,0.637236,9.639545,0.000000,0.000000,0,0,,38.990217,-76.938744,-9.529000,,,
2026-09-11T19:18:41.954,3.341869,-0.000000,-0.000000,-0.000000,0.000000,0.450439,-0.154968,-0.000000,-0.000490,-0.001031,-0.005192,-0.000006,-0.002466,0.003832,0.000485,0.000452,0.278607,0.667441,9.680831,0.000000,0.000000,0,0,,38.990217,-76.938744,-9.529000,,,
2026-09-11T19:18:41.988,3.375288,-0.000000,-0.000000,-0.000000,0.000000,0.450439,-0.154968,-0.000000,-0.000815,-0.001717,-0.005238,-0.000007,-0.002488,-0.000472,0.000511,-0.000233,0.278803,0.641943,9.660825,0.000000,0.000000,0,0,,38.990217,-76.938744,-9.529000,,,
2026-09-11T19:18:42.021,3.408711,-0.000000,-0.000000,-0.000000,0.000000,0.450439,-0.154968,-0.000000,-0.001095,-0.002305,-0.005305,-0.000007,-0.002520,0.001088,0.001442,-0.000822,0.277626,0.684308,9.703778,0.000000,0.000000,0,0,,38.990217,-76.938744,-9.529000,,,
2026-09-11T19:18:42.054,3.442121,-0.000000,-0.000000,-0.000000,0.000000,0.450439,-0.154968,-0.000000,-0.000948,-0.001997,-0.005377,-0.000007,-0.002554,0.002264,-0.000461,-0.000513,0.277626,0.632823,9.642095,0.000000,0.000000,0,0,,38.990217,-76.938744,-9.529000,,,
2026-09-11T19:18:42.088,3.475533,-0.000000,-0.000000,-0.000000,0.000000,0.450439,-0.154968,-0.000000,-0.001358,-0.002858,-0.005458,-0.000007,-0.002592,-0.001714,0.001226,-0.001375,0.281059,0.663910,9.684263,0.000000,0.000000,0,0,,38.990217,-76.938744,-9.529000,,,
2026-09-11T19:18:42.121,3.508958,-0.000000,-0.000000,-0.000000,0.000000,0.450439,-0.154968,-0.000000,-0.000302,-0.000635,-0.005516,-0.000007,-0.002620,-0.002516,0.001888,0.000848,0.282726,0.652240,9.652784,0.000000,0.000000,0,0,,38.990217,-76.938744,-9.529000,,,
2026-09-11T19:18:42.155,3.542370,-0.000000,-0.000000,-0.000000,0.000000,0.450439,-0.154968,-0.000000,-0.000726,-0.001528,-0.005552,-0.000007,-0.002637,0.000128,0.000321,-0.000045,0.281549,0.654496,9.662590,0.000000,0.000000,0,0,,38.990217,-76.938744,-9.529000,,,
2026-09-11T19:18:42.188,3.575784,-0.000000,-0.000000,-0.000000,0.000000,0.450439,-0.154968,-0.000000,-0.001095,-0.002305,-0.005616,-0.000007,-0.002668,-0.002107,0.001791,-0.000821,0.274782,0.659203,9.668082,0.000000,0.000000,0,0,,38.990217,-76.938744,-9.529000,,,
2026-09-11T19:18:42.224,3.609211,-0.000000,-0.000000,-0.000000,0.000000,0.450439,-0.154968,-0.000000,-0.000499,-0.001051,-0.005673,-0.000008,-0.002694,-0.001022,0.001449,0.000433,0.275665,0.644003,9.663571,0.000000,0.000000,0,0,,38.990217,-76.938744,-9.529000,,,
2026-09-11T19:18:42.256,3.642647,-0.000000,-0.000000,-0.000000,0.000000,0.450439,-0.154968,-0.000000,-0.000125,-0.000263,-0.005694,-0.000008,-0.002705,0.001945,-0.000407,0.001220,0.273409,0.664695,9.683577,0.000000,0.000000,0,0,,38.990217,-76.938744,-9.529000,,,
2026-09-11T19:18:42.288,3.676059,-0.000000,-0.000000,-0.000000,0.000000,0.450439,-0.154968,-0.000000,-0.001136,-0.002391,-0.005739,-0.000008,-0.002726,-0.000773,0.000620,-0.000907,0.277038,0.642532,9.650332,0.000000,0.000000,0,0,,38.990217,-76.938744,-9.529000,,,
2026-09-11T19:18:42.322,3.709479,-0.000000,-0.000000,-0.000000,0.000000,0.450439,-0.154968,-0.000000,-0.000433,-0.000911,-0.005794,-0.000008,-0.002752,0.001600,0.001378,0.000572,0.276842,0.666656,9.683086,0.000000,0.000000,0,0,,38.990217,-76.938744,-9.529000,,,
2026-09-11T19:18:42.356,3.742896,-0.000000,-0.000000,-0.000000,0.000000,0.450439,-0.154968,-0.000000,-0.001168,-0.002460,-0.005850,-0.000008,-0.002779,0.002498,-0.000544,-0.000976,0.284197,0.629979,9.638270,0.000000,0.000000,0,0,,38.990217,-76.938744,-9.529000,,,
2026-09-11T19:18:42.390,3.776309,-0.000000,-0.000000,-0.000000,0.000000,0.450439,-0.154968,-0.000000,-0.001053,-0.002218,-0.005928,-0.000008,-0.002816,0.001334,0.002902,-0.000734,0.271154,0.657242,9.681419,0.000000,0.000000,0,0,,38.990217,-76.938744,-9.529000,,,
2026-09-11T19:18:42.422,3.809727,-0.000000,-0.000000,-0.000000,0.000000,0.450439,-0.154968,-0.000000,-0.001188,-0.002501,-0.006007,-0.000009,-0.002853,0.004290,0.001933,-0.001017,0.278313,0.660674,9.688284,0.000000,0.000000,0,0,,38.990217,-76.938744,-9.529000,,,
2026-09-11T19:18:42.455,3.843149,-0.000000,-0.000000,-0.000000,0.000000,0.450439,-0.154968,-0.000000,-0.000876,-0.001845,-0.006080,-0.000009,-0.002888,0.005526,-0.000611,-0.000361,0.281941,0.640472,9.662100,0.000000,0.000000,0,0,,38.990217,-76.938744,-9.529000,,,
2026-09-11T19:18:42.489,3.876564,-0.000000,-0.000000,-0.000000,0.000000,0.450439,-0.154968,-0.000000,-0.000655,-0.001379,-0.006134,-0.000009,-0.002914,0.006980,0.001506,0.000105,0.273409,0.664695,9.675339,0.000000,0.000000,0,0,,38.990217,-76.938744,-9.529000,,,
2026-09-11T19:18:42.522,3.909974,-0.000000,-0.000000,-0.000000,0.000000,0.450439,-0.154968,-0.000000,-0.000782,-0.001645,-0.006184,-0.000009,-0.002938,0.008830,0.001049,-0.000162,0.277234,0.657438,9.666807,0.000000,0.000000,0,0,,38.990217,-76.938744,-9.529000,,,
2026-09-11T19:18:42.556,3.943392,-0.000000,-0.000000,-0.000000,0.000000,0.450439,-0.154968,-0.000000,-0.000780,-0.001641,-0.006239,-0.000009,-0.002964,0.004944,-0.001216,-0.000158,0.271546,0.705392,9.685636,0.000000,0.000000,0,0,,38.990217,-76.938744,-9.529000,,,
2026-09-11T19:18:42.589,3.976800,-0.000000,-0.000000,-0.000000,0.000000,0.450439,-0.154968,-0.000000,-0.000641,-0.001350,-0.006289,-0.000009,-0.002987,0.001680,0.001359,0.000133,0.288610,0.636942,9.666709,0.000000,0.000000,0,0,,38.990217,-76.938744,-9.529000,,,
2026-09-11T19:18:42.623,4.010209,-0.000000,-0.000000,-0.000000,0.000000,0.450439,-0.154968,-0.000000,-0.001511,-0.003180,-0.006365,-0.000010,-0.003023,0.002454,0.000077,-0.001697,0.306948,0.750013,9.631111,0.000000,0.000000,0,0,,38.990217,-76.938744,-9.529000,,,
2026-09-11T19:18:42.656,4.043631,-0.000000,-0.000000,-0.000000,0.000000,0.450439,-0.154968,-0.000000,0.000052,0.000109,-0.006416,-0.000010,-0.003048,-0.004333,0.000666,0.001593,0.294592,0.587124,9.667886,0.000000,0.000000,0,0,,38.990217,-76.938744,-9.529000,,,
2026-09-11T19:18:42.689,4.077040,-0.000000,-0.000000,-0.000000,0.000000,0.450439,-0.154968,-0.000000,-0.000374,-0.000787,-0.006428,-0.000010,-0.003053,-0.004335,0.001155,0.000696,0.299201,0.714905,9.603751,0.000000,0.000000,0,0,,38.990217,-76.938744,-9.529000,,,
2026-09-11T19:18:42.723,4.110450,-0.000000,-0.000000,-0.000000,0.000000,0.383835,-0.132053,-0.000000,0.000542,0.001141,-0.006422,-0.000010,-0.003050,-0.007826,0.000145,0.002624,0.253698,0.617132,9.692991,0.000000,0.000000,0,0,,38.990217,-76.938744,-9.529000,,,
2026-09-11T19:18:42.756,4.143867,-0.000000,-0.000000,-0.000000,0.000000,0.383835,-0.132053,-0.000000,-0.000489,-0.001029,-0.006420,-0.000010,-0.003049,-0.012322,0.000748,0.000454,0.265270,0.690388,9.635720,0.000000,0.000000,0,1,4.139948,38.990217,-76.938744,-9.443000,-0.047967,0.025945,3.360024
2026-09-11T19:18:42.790,4.177276,-0.000000,-0.000000,-0.000000,0.000000,0.383835,-0.132053,-0.000000,0.000089,0.000187,-0.006434,-0.000010,-0.003056,-0.005131,0.001227,0.001670,0.273606,0.597519,9.674555,0.000000,0.000000,0,0,,38.990217,-76.938744,-9.443000,,,
2026-09-11T19:18:42.825,4.210694,-0.000000,-0.000000,-0.000000,0.000000,0.383835,-0.132053,-0.000000,-0.000305,-0.000643,-0.006441,-0.000010,-0.003060,0.000983,0.000242,0.000841,0.261641,0.663420,9.634543,0.000000,0.000000,0,0,,38.990217,-76.938744,-9.443000,,,
2026-09-11T19:18:42.857,4.244110,-0.000000,-0.000000,-0.000000,0.000000,0.383835,-0.132053,-0.000000,-0.001631,-0.003434,-0.006510,-0.000010,-0.003092,0.006607,0.000096,-0.001950,0.297338,0.593695,9.654157,0.000000,0.000000,0,0,,38.990217,-76.938744,-9.443000,,,
2026-09-11T19:18:42.891,4.277529,-0.000000,-0.000000,-0.000000,0.000000,0.383835,-0.132053,-0.000000,-0.001788,-0.003764,-0.006630,-0.000010,-0.003149,0.011449,-0.000425,-0.002280,0.268212,0.685681,9.691128,0.000000,0.000000,0,0,,38.990217,-76.938744,-9.443000,,,
2026-09-11T19:18:42.923,4.310939,-0.000000,-0.000000,-0.000000,0.000000,0.383835,-0.132053,-0.000000,-0.000852,-0.001794,-0.006723,-0.000011,-0.003193,0.013130,0.000144,-0.000310,0.273017,0.645278,9.677595,0.000000,0.000000,0,0,,38.990217,-76.938744,-9.443000,,,
2026-09-11T19:18:42.957,4.344357,-0.000000,-0.000000,-0.000000,0.000000,0.383835,-0.132053,-0.000000,-0.000889,-0.001872,-0.006784,-0.000011,-0.003222,0.004579,0.001052,-0.000389,0.274782,0.687937,9.676614,0.000000,0.000000,0,0,,38.990217,-76.938744,-9.443000,,,
2026-09-11T19:18:42.990,4.377776,-0.000000,-0.000000,-0.000000,0.000000,0.383835,-0.132053,-0.000000,-0.000149,-0.000313,-0.006820,-0.000011,-0.003240,0.002505,0.000418,0.001170,0.281157,0.649985,9.630817,0.000000,0.000000,0,0,,38.990217,-76.938744,-9.443000,,,
2026-09-11T19:18:43.023,4.411189,-0.000000,-0.000000,-0.000000,0.000000,0.383835,-0.132053,-0.000000,0.000244,0.000514,-0.006817,-0.000011,-0.003238,-0.001925,0.000568,0.001997,0.309106,0.691467,9.664061,0.000000,0.000000,0,0,,38.990217,-76.938744,-9.443000,,,
2026-09-11T19:18:43.057,4.444601,-0.000000,-0.000000,-0.000000,0.000000,0.383835,-0.132053,-0.000000,-0.000899,-0.001892,-0.006840,-0.000011,-0.003249,-0.008504,0.000346,-0.000408,0.291159,0.659105,9.652980,0.000000,0.000000,0,0,,38.990217,-76.938744,-9.443000,,,
2026-09-11T19:18:43.090,4.478021,-0.000000,-0.000000,-0.000000,0.000000,0.383835,-0.132053,-0.000000,-0.000279,-0.000588,-0.006882,-0.000011,-0.003269,-0.007757,0.000661,0.000895,0.288610,0.653221,9.648469,0.000000,0.000000,0,0,,38.990217,-76.938744,-9.443000,,,
2026-09-11T19:18:43.124,4.511432,-0.000000,-0.000000,-0.000000,0.000000,0.383835,-0.132053,-0.000000,-0.001369,-0.002883,-0.006940,-0.000011,-0.003296,-0.005093,-0.001142,-0.001399,0.277528,0.633706,9.664356,0.000000,0.000000,0,0,,38.990217,-76.938744,-9.443000,,,
2026-09-11T19:18:43.157,4.544846,-0.000000,-0.000000,-0.000000,0.000000,0.383835,-0.132053,-0.000000,-0.000668,-0.001406,-0.007011,-0.000012,-0.003330,-0.003904,0.000944,0.000077,0.255757,0.628214,9.632582,0.000000,0.000000,0,0,,38.990217,-76.938744,-9.443000,,,
2026-09-11T19:18:43.191,4.578272,-0.000000,-0.000000,-0.000000,0.000000,0.383835,-0.132053,-0.000000,-0.000508,-0.001070,-0.007053,-0.000012,-0.003350,0.003437,0.000391,0.000414,0.267329,0.645572,9.668671,0.000000,0.000000,0,0,,38.990217,-76.938744,-9.443000,,,
2026-09-11T19:18:43.224,4.611685,-0.000000,-0.000000,-0.000000,0.000000,0.383835,-0.132053,-0.000000,-0.000080,-0.000169,-0.007073,-0.000012,-0.003360,0.007804,-0.000672,0.001315,0.266152,0.635863,9.652980,0.000000,0.000000,0,0,,38.990217,-76.938744,-9.443000,,,
2026-09-11T19:18:43.257,4.645096,-0.000000,-0.000000,-0.000000,0.000000,0.383835,-0.132053,-0.000000,-0.000583,-0.001227,-0.007097,-0.000012,-0.003371,0.007076,0.001153,0.000256,0.287335,0.659595,9.671220,0.000000,0.000000,0,0,,38.990217,-76.938744,-9.443000,,,
2026-09-11T19:18:43.291,4.678518,-0.000000,-0.000000,-0.000000,0.000000,0.383835,-0.132053,-0.000000,-0.000669,-0.001409,-0.007141,-0.000012,-0.003392,0.008919,-0.000341,0.000075,0.290179,0.653123,9.661218,0.000000,0.000000,0,0,,38.990217,-76.938744,-9.443000,,,
2026-09-11T19:18:43.324,4.711934,-0.000000,-0.000000,-0.000000,0.000000,0.383835,-0.132053,-0.000000,-0.000442,-0.000930,-0.007180,-0.000012,-0.003410,0.005833,-0.000809,0.000553,0.282530,0.674403,9.665336,0.000000,0.000000,0,0,,38.990217,-76.938744,-9.443000,,,
2026-09-11T19:18:43.358,4.745348,-0.000000,-0.000000,-0.000000,0.000000,0.383835,-0.132053,-0.000000,-0.001142,-0.002404,-0.007235,-0.000012,-0.003437,-0.001207,0.001783,-0.000921,0.290277,0.674109,9.654745,0.000000,0.000000,0,0,,38.990217,-76.938744,-9.443000,,,
2026-09-11T19:18:43.391,4.778767,-0.000000,-0.000000,-0.000000,0.000000,0.383835,-0.132053,-0.000000,-0.000326,-0.000687,-0.007287,-0.000013,-0.003461,-0.002408,-0.001288,0.000796,0.284197,0.666166,9.664748,0.000000,0.000000,0,0,,38.990217,-76.938744,-9.443000,,,
2026-09-11T19:18:43.426,4.812184,-0.000000,-0.000000,-0.000000,0.000000,0.383835,-0.132053,-0.000000,-0.000147,-0.000309,-0.007304,-0.000013,-0.003469,-0.005993,-0.000858,0.001174,0.282235,0.665675,9.665532,0.000000,0.000000,0,0,,38.990217,-76.938744,-9.443000,,,
2026-09-11T19:18:43.458,4.845598,-0.000000,-0.000000,-0.000000,0.000000,0.383835,-0.132053,-0.000000,-0.000570,-0.001200,-0.007329,-0.000013,-0.003481,-0.007634,0.002012,0.000284,0.281157,0.634196,9.658079,0.000000,0.000000,0,0,,38.990217,-76.938744,-9.443000,,,
2026-09-11T19:18:43.491,4.879025,-0.000000,-0.000000,-0.000000,0.000000,0.383835,-0.132053,-0.000000,0.000432,0.000909,-0.007334,-0.000013,-0.003484,-0.005380,-0.000479,0.002392,0.278803,0.724123,9.684067,0.000000,0.000000,0,0,,38.990217,-76.938744,-9.443000,,,
2026-09-11T19:18:43.525,4.912444,-0.000000,-0.000000,-0.000000,0.000000,0.383835,-0.132053,-0.000000,-0.000693,-0.001459,-0.007343,-0.000013,-0.003488,0.004420,-0.001291,0.000025,0.268114,0.594577,9.659648,0.000000,0.000000,0,0,,38.990217,-76.938744,-9.443000,,,
2026-09-11T19:18:43.558,4.945855,-0.000000,-0.000000,-0.000000,0.000000,0.383835,-0.132053,-0.000000,-0.000550,-0.001157,-0.007387,-0.000013,-0.003509,0.012969,-0.000038,0.000326,0.265466,0.655575,9.669161,0.000000,0.000000,0,0,,38.990217,-76.938744,-9.443000,,,
2026-09-11T19:18:43.592,4.979275,-0.000000,-0.000000,-0.000000,0.000000,0.383835,-0.132053,-0.000000,-0.001882,-0.003962,-0.007472,-0.000013,-0.003549,0.016414,-0.000172,-0.002479,0.251933,0.644395,9.688088,0.000000,0.000000,0,0,,38.990217,-76.938744,-9.443000,,,
2026-09-11T19:18:43.626,5.012698,-0.000000,-0.000000,-0.000000,0.000000,0.383835,-0.132053,-0.000000,-0.002028,-0.004269,-0.007610,-0.000014,-0.003615,0.013140,-0.000904,-0.002786,0.268016,0.672246,9.672397,0.000000,0.000000,0,0,,38.990217,-76.938744,-9.443000,,,
2026-09-11T19:18:43.659,5.046114,-0.000000,-0.000000,-0.000000,0.000000,0.383835,-0.132053,-0.000000,-0.002187,-0.004605,-0.007758,-0.000014,-0.003685,0.009067,0.000382,-0.003121,0.288806,0.655084,9.670240,0.000000,0.000000,0,0,,38.990217,-76.938744,-9.443000,,,
2026-09-11T19:18:43.692,5.079527,-0.000000,-0.000000,-0.000000,0.000000,0.383835,-0.132053,-0.000000,-0.001824,-0.003840,-0.007899,-0.000015,-0.003752,0.007159,-0.002188,-0.002357,0.280764,0.640276,9.655824,0.000000,0.000000,0,0,,38.990217,-76.938744,-9.443000,,,
2026-09-11T19:18:43.726,5.112945,-0.000000,-0.000000,-0.000000,0.000000,0.383835,-0.132053,-0.000000,-0.003483,-0.007333,-0.008086,-0.000016,-0.003841,0.005191,-0.000085,-0.005849,0.294788,0.649396,9.654157,0.000000,0.000000,0,0,,38.990217,-76.938744,-9.443000,,,
2026-09-11T19:18:43.759,5.146358,-0.000000,-0.000000,-0.000000,0.000000,0.494385,-0.170087,-0.000000,-0.003044,-0.006408,-0.008315,-0.000016,-0.003950,0.008007,-0.000333,-0.004925,0.271154,0.694507,9.669651,0.000000,0.000000,0,0,,38.990217,-76.938744,-9.443000,,,
2026-09-11T19:18:43.792,5.179772,-0.000000,-0.000000,-0.000000,0.000000,0.715485,-0.246153,-0.000000,-0.002186,-0.004603,-0.008499,-0.000017,-0.004037,0.008630,-0.001435,-0.003119,0.268016,0.665381,9.638662,0.000000,0.000000,0,1,5.157012,38.990217,-76.938745,-9.373000,-0.058770,0.033914,3.628583
2026-09-11T19:18:43.826,5.213191,-0.000000,-0.000000,-0.000000,0.000000,1.376724,-0.473644,-0.000000,-0.003147,-0.006626,-0.008687,-0.000018,-0.004126,0.006147,-0.001353,-0.005142,0.268408,0.627331,9.675633,0.000000,0.000000,0,0,,38.990217,-76.938745,-9.373000,,,
2026-09-11T19:18:43.859,5.246612,-0.000000,-0.000000,-0.000000,0.000000,2.655945,-0.913742,-0.000000,-0.005064,-0.010660,-0.008976,-0.000019,-0.004263,0.005240,-0.000334,-0.009177,0.262622,0.648612,9.657491,0.000000,0.000000,0,0,,38.990217,-76.938745,-9.373000,,,
2026-09-11T19:18:43.892,5.280024,-0.000000,-0.000000,-0.000000,0.000000,4.420624,-1.520857,-0.000000,-0.004788,-0.010079,-0.009322,-0.000021,-0.004428,0.005834,-0.001144,-0.008596,0.270271,0.698233,9.645919,0.000000,0.000000,0,0,,38.990217,-76.938745,-9.373000,,,
2026-09-11T19:18:43.926,5.313463,-0.000000,-0.000000,-0.000000,0.000000,6.471634,-2.226480,-0.000000,-0.004383,-0.009226,-0.009645,-0.000022,-0.004581,0.004530,0.000531,-0.007743,0.239675,0.666264,9.663179,0.000000,0.000000,0,0,,38.990217,-76.938745,-9.373000,,,
2026-09-11T19:18:43.959,5.346876,-0.000000,-0.000000,-0.000000,0.000000,9.402237,-3.234715,-0.000000,-0.004511,-0.009497,-0.009958,-0.000024,-0.004730,-0.004475,0.000529,-0.008014,0.276253,0.698233,9.651411,0.000000,0.000000,0,0,,38.990217,-76.938745,-9.373000,,,
2026-09-11T19:18:43.993,5.380290,-0.000000,-0.000000,-0.000000,0.000000,13.225479,-4.550050,-0.000000,-0.004115,-0.008664,-0.010261,-0.000025,-0.004874,-0.014612,-0.002012,-0.007180,0.327640,0.699999,9.665925,0.000000,0.000000,0,0,,38.990217,-76.938745,-9.373000,,,
2026-09-11T19:18:44.026,5.413698,-0.000000,-0.000000,-0.000000,0.000000,14.017868,-4.822661,-0.000000,-0.004209,-0.008861,-0.010554,-0.000026,-0.005013,-0.012647,0.000468,-0.007377,0.325090,0.730301,9.648959,0.000000,0.000000,0,0,,38.990217,-76.938745,-9.373000,,,
2026-09-11T19:18:44.060,5.447118,-0.000000,-0.000000,-0.000000,0.000000,15.945969,-5.485998,-0.000000,-0.003904,-0.008218,-0.010840,-0.000028,-0.005149,-0.013491,-0.001268,-0.006735,0.266545,0.640570,9.670926,0.000000,0.000000,0,0,,38.990217,-76.938745,-9.373000,,,
2026-09-11T19:18:44.093,5.480528,-0.000000,-0.000000,-0.000000,0.000000,17.596664,-6.053898,-0.000000,-0.003180,-0.006695,-0.011089,-0.000029,-0.005267,-0.012742,-0.000734,-0.005212,0.278999,0.685779,9.632386,0.000000,0.000000,0,0,,38.990217,-76.938745,-9.373000,,,
2026-09-11T19:18:44.127,5.513941,-0.000000,-0.000000,-0.000000,0.000000,19.457474,-6.694085,-0.000000,-0.003631,-0.007645,-0.011328,-0.000030,-0.005381,-0.005599,0.000084,-0.006161,0.236242,0.645278,9.682694,0.000000,0.000000,0,0,,38.990217,-76.938745,-9.373000,,,
2026-09-11T19:18:44.160,5.547359,-0.000000,-0.000000,-0.000000,0.000000,24.511871,-8.432983,-0.000000,-0.004006,-0.008434,-0.011597,-0.000032,-0.005508,-0.005505,0.000156,-0.006950,0.274782,0.641747,9.651901,0.000000,0.000000,0,0,,38.990217,-76.938745,-9.373000,,,
2026-09-11T19:18:44.194,5.580769,-0.000000,-0.000000,-0.000000,0.000000,25.642776,-8.822056,-0.000000,-0.004805,-0.010116,-0.011907,-0.000034,-0.005656,-0.007337,-0.000196,-0.008633,0.348430,0.603305,9.650724,0.000000,0.000000,0,0,,38.990217,-76.938745,-9.373000,,,
2026-09-11T19:18:44.227,5.614178,-0.000000,-0.000000,-0.000000,0.000000,26.205826,-9.015766,-0.000000,-0.004619,-0.009724,-0.012238,-0.000036,-0.005813,0.003999,0.000062,-0.008240,0.244774,0.619094,9.623168,0.000000,0.000000,0,0,,38.990217,-76.938745,-9.373000,,,
2026-09-11T19:18:44.260,5.647597,-0.000000,-0.000000,-0.000000,0.000000,27.257767,-9.377672,-0.000000,-0.004102,-0.008635,-0.012545,-0.000037,-0.005959,0.007527,-0.000529,-0.007151,0.259778,0.615465,9.631994,0.000000,0.000000,0,0,,38.990217,-76.938745,-9.373000,,,
2026-09-11T19:18:44.295,5.681007,-0.000000,-0.000000,-0.000000,0.000000,28.486862,-9.800526,-0.000000,-0.004330,-0.009116,-0.012841,-0.000039,-0.006100,0.007415,-0.001080,-0.007632,0.257817,0.724810,9.667788,0.000000,0.000000,0,0,,38.990217,-76.938745,-9.373000,,,
2026-09-11T19:18:44.327,5.714431,-0.000000,-0.000000,-0.000000,0.000000,29.344482,-10.095579,-0.000000,-0.002145,-0.004516,-0.013069,-0.000041,-0.006208,0.012027,-0.000369,-0.003032,0.222611,0.664106,9.681027,0.000000,0.000000,0,0,,38.990217,-76.938745,-9.373000,,,
2026-09-11T19:18:44.360,5.747856,-0.000000,-0.000000,-0.000000,0.000000,30.242615,-10.404569,-0.000000,-0.001739,-0.003660,-0.013206,-0.000041,-0.006273,0.010304,-0.000266,-0.002177,0.263407,0.698724,9.678771,0.000000,0.000000,0,0,,38.990217,-76.938745,-9.373000,,,
2026-09-11T19:18:44.394,5.781263,-0.000000,-0.000000,-0.000000,0.000000,30.742493,-10.576546,-0.000000,-0.001902,-0.004004,-0.013334,-0.000042,-0.006333,0.003597,0.000583,-0.002521,0.286256,0.697155,9.656314,0.000000,0.000000,0,0,,38.990217,-76.938745,-9.373000,,,
2026-09-11T19:18:44.427,5.814688,-0.000000,-0.000000,-0.000000,0.000000,31.170959,-10.723954,-0.000000,-0.000685,-0.001443,-0.013425,-0.000043,-0.006377,-0.001403,-0.000188,0.000041,0.301358,0.662243,9.676418,0.000000,0.000000,0,0,,38.990217,-76.938745,-9.373000,,,
2026-09-11T19:18:44.460,5.848111,-0.000000,-0.000000,-0.000000,0.000000,31.741562,-10.920262,-0.000000,-0.001291,-0.002719,-0.013495,-0.000043,-0.006410,-0.007326,-0.000118,-0.001235,0.334701,0.663518,9.661119,0.000000,0.000000,0,0,,38.990217,-76.938745,-9.373000,,,
2026-09-11T19:18:44.494,5.881523,-0.000000,-0.000000,-0.000000,0.000000,32.452240,-11.164761,-0.000000,-0.001951,-0.004108,-0.013609,-0.000044,-0.006464,-0.014593,-0.000067,-0.002624,0.330778,0.658320,9.671613,0.000000,0.000000,0,0,,38.990217,-76.938745,-9.373000,,,
2026-09-11T19:18:44.527,5.914944,-0.000000,-0.000000,-0.000000,0.000000,33.614044,-11.564465,-0.000000,-0.001408,-0.002964,-0.013727,-0.000045,-0.006520,-0.016779,-0.001142,-0.001481,0.310675,0.642041,9.655334,0.000000,0.000000,0,0,,38.990217,-76.938745,-9.373000,,,
2026-09-11T19:18:44.561,5.948370,-0.000000,-0.000000,-0.000000,0.000000,35.357437,-12.164256,-0.000000,-0.002074,-0.004366,-0.013849,-0.000046,-0.006578,-0.018202,-0.000386,-0.002882,0.329209,0.608208,9.641604,0.000000,0.000000,0,0,,38.990217,-76.938745,-9.373000,,,
2026-09-11T19:18:44.594,5.981783,-0.000000,-0.000000,-0.000000,0.000000,38.290100,-13.173200,-0.000000,-0.003015,-0.006347,-0.014028,-0.000047,-0.006663,-0.015671,-0.000096,-0.004864,0.303124,0.618603,9.645331,0.000000,0.000000,0,0,,38.990217,-76.938745,-9.373000,,,
2026-09-11T19:18:44.628,6.015206,-0.000000,-0.000000,-0.000000,0.000000,39.585800,-13.618968,-0.000000,-0.003260,-0.006862,-0.014249,-0.000048,-0.006768,-0.000694,-0.001875,-0.005379,0.241146,0.650475,9.678870,0.000000,0.000000,0,0,,38.990217,-76.938745,-9.373000,,,
2026-09-11T19:18:44.661,6.048630,-0.000000,-0.000000,-0.000000,0.000000,40.284119,-13.859215,-0.000000,-0.002416,-0.005087,-0.014449,-0.000050,-0.006863,0.011991,-0.001713,-0.003603,0.162202,0.697547,9.670142,0.000000,0.000000,0,0,,38.990217,-76.938745,-9.373000,,,
2026-09-11T19:18:44.694,6.082042,-0.000000,-0.000000,-0.000000,0.000000,40.361023,-13.885673,-0.000000,-0.001115,-0.002347,-0.014573,-0.000050,-0.006922,0.013887,0.001945,-0.000864,0.176520,0.662537,9.649450,0.000000,0.000000,0,0,,38.990217,-76.938745,-9.373000,,,
2026-09-11T19:18:44.728,6.115463,-0.000000,-0.000000,-0.000000,0.000000,40.396729,-13.897957,-0.000000,-0.000625,-0.001316,-0.014634,-0.000051,-0.006951,0.015052,0.000281,0.000167,0.254090,0.698135,9.650332,0.000000,0.000000,0,0,,38.990217,-76.938745,-9.373000,,,
2026-09-11T19:18:44.761,6.148883,-0.000000,-0.000000,-0.000000,0.000000,40.396729,-13.897957,-0.000000,-0.000431,-0.000908,-0.014671,-0.000051,-0.006969,0.007579,0.000210,0.000575,0.311459,0.628312,9.633269,0.000000,0.000000,0,1,6.149858,38.990217,-76.938745,-9.343000,-0.060211,0.056524,3.605787
2026-09-11T19:18:44.795,6.182293,-0.000000,-0.000000,-0.000000,0.000000,40.396729,-13.897957,-0.000000,-0.000685,-0.001443,-0.014711,-0.000051,-0.006987,0.000444,0.001495,0.000041,0.331955,0.672442,9.683381,0.000000,0.000000,0,0,,38.990217,-76.938745,-9.343000,,,
2026-09-11T19:18:44.828,6.215713,-0.000000,-0.000000,-0.000000,0.000000,40.396729,-13.897957,-0.000000,-0.000974,-0.002050,-0.014769,-0.000052,-0.007015,-0.006812,-0.001349,-0.000566,0.330778,0.669500,9.703582,0.000000,0.000000,0,0,,38.990217,-76.938745,-9.343000,,,
2026-09-11T19:18:44.862,6.249135,-0.000000,-0.000000,-0.000000,0.000000,40.396729,-13.897957,-0.000000,-0.000831,-0.001749,-0.014832,-0.000052,-0.007045,-0.011187,-0.001173,-0.000266,0.327052,0.646847,9.675928,0.000000,0.000000,0,0,,38.990217,-76.938745,-9.343000,,,
2026-09-11T19:18:44.895,6.282541,-0.000000,-0.000000,-0.000000,0.000000,40.396729,-13.897957,-0.000000,-0.000592,-0.001247,-0.014882,-0.000053,-0.007069,-0.009099,0.001284,0.000236,0.299789,0.640570,9.648371,0.000000,0.000000,0,0,,38.990217,-76.938745,-9.343000,,,
2026-09-11T19:18:44.928,6.315962,-0.000000,-0.000000,-0.000000,0.000000,40.396729,-13.897957,-0.000000,-0.000672,-0.001415,-0.014927,-0.000053,-0.007090,-0.000459,-0.001608,0.000069,0.256640,0.641943,9.641800,0.000000,0.000000,0,0,,38.990217,-76.938745,-9.343000,,,
2026-09-11T19:18:44.962,6.349382,-0.000000,-0.000000,-0.000000,0.000000,40.361710,-13.885909,-0.000000,0.000314,0.000660,-0.014939,-0.000053,-0.007096,0.004540,-0.002204,0.002144,0.217512,0.655673,9.657393,0.000000,0.000000,0,0,,38.990217,-76.938745,-9.343000,,,
2026-09-11T19:18:44.995,6.382793,-0.000000,-0.000000,-0.000000,0.000000,40.242233,-13.844805,-0.000000,-0.000417,-0.000879,-0.014943,-0.000053,-0.007098,0.005545,0.000996,0.000605,0.231143,0.668323,9.665238,0.000000,0.000000,0,0,,38.990217,-76.938745,-9.343000,,,
2026-09-11T19:18:45.029,6.416213,-0.000000,-0.000000,-0.000000,0.000000,40.111084,-13.799685,-0.000000,0.000889,0.001871,-0.014927,-0.000053,-0.007090,-0.002106,-0.000368,0.003355,0.278607,0.679209,9.669553,0.000000,0.000000,0,0,,38.990217,-76.938745,-9.343000,,,
2026-09-11T19:18:45.062,6.449632,-0.000000,-0.000000,-0.000000,0.000000,39.978561,-13.754092,-0.000000,0.000832,0.001751,-0.014866,-0.000052,-0.007061,-0.007742,-0.000320,0.003235,0.293611,0.620369,9.656903,0.000000,0.000000,0,0,,38.990217,-76.938745,-9.343000,,,
2026-09-11T19:18:45.097,6.483044,-0.000000,-0.000000,-0.000000,0.000000,39.786301,-13.687947,-0.000000,0.002931,0.006171,-0.014734,-0.000052,-0.006998,-0.004362,0.000153,0.007654,0.365592,0.731478,9.647390,0.000000,0.000000,0,0,,38.990217,-76.938745,-9.343000,,,
2026-09-11T19:18:45.129,6.516469,-0.000000,-0.000000,-0.000000,0.000000,38.051834,-13.091227,-0.000000,0.003233,0.006807,-0.014517,-0.000050,-0.006895,-0.011185,-0.002005,0.008290,0.297828,0.624095,9.666905,0.000000,0.000000,0,0,,38.990217,-76.938745,-9.343000,,,
2026-09-11T19:18:45.162,6.549890,-0.000000,-0.000000,-0.000000,0.000000,34.980469,-12.034565,-0.000000,0.004903,0.010322,-0.014231,-0.000048,-0.006759,-0.010184,0.000643,0.011806,0.286354,0.791299,9.661806,0.000000,0.000000,0,0,,38.990217,-76.938745,-9.343000,,,
2026-09-11T19:18:45.196,6.583303,-0.000000,-0.000000,-0.000000,0.000000,27.414322,-9.431533,-0.000000,0.006569,0.013831,-0.013827,-0.000045,-0.006568,-0.007270,0.001687,0.015314,0.295867,0.638021,9.693874,0.000000,0.000000,0,0,,38.990217,-76.938745,-9.343000,,,
2026-09-11T19:18:45.229,6.616730,-0.000000,-0.000000,-0.000000,0.000000,26.378174,-9.075060,-0.000000,0.007459,0.015703,-0.013333,-0.000042,-0.006333,-0.000612,-0.001398,0.017186,0.209568,0.619780,9.652980,0.000000,0.000000,0,0,,38.990217,-76.938745,-9.343000,,,
2026-09-11T19:18:45.262,6.650152,-0.000000,-0.000000,-0.000000,0.000000,25.136719,-8.647954,-0.000000,0.004659,0.009808,-0.012907,-0.000040,-0.006131,-0.011089,0.000124,0.011292,0.268114,0.487587,9.615420,0.000000,0.000000,0,0,,38.990217,-76.938745,-9.343000,,,
2026-09-11T19:18:45.296,6.683564,-0.000000,-0.000000,-0.000000,0.000000,23.727722,-8.163207,-0.000000,0.001873,0.003944,-0.012677,-0.000038,-0.006022,-0.007866,0.000596,0.005427,0.331367,0.600167,9.631896,0.000000,0.000000,0,0,,38.990217,-76.938745,-9.343000,,,
2026-09-11T19:18:45.329,6.716985,-0.000000,-0.000000,-0.000000,0.000000,22.180710,-7.630978,-0.000000,0.002020,0.004254,-0.012540,-0.000037,-0.005957,-0.000337,-0.000837,0.005737,0.258111,0.620369,9.676026,0.000000,0.000000,0,0,,38.990217,-76.938745,-9.343000,,,
2026-09-11T19:18:45.363,6.750405,-0.000000,-0.000000,-0.000000,0.000000,20.549927,-7.069929,-0.000000,0.001470,0.003095,-0.012418,-0.000037,-0.005898,0.007440,-0.001596,0.004579,0.252914,0.657438,9.670828,0.000000,0.000000,0,0,,38.990217,-76.938745,-9.343000,,,
2026-09-11T19:18:45.396,6.783822,-0.000000,-0.000000,-0.000000,0.000000,17.935867,-6.170597,-0.000000,0.002407,0.005067,-0.012281,-0.000036,-0.005833,0.013727,-0.001532,0.006551,0.165144,0.682053,9.693285,0.000000,0.000000,0,0,,38.990217,-76.938745,-9.343000,,,
2026-09-11T19:18:45.430,6.817244,-0.000000,-0.000000,-0.000000,0.000000,14.490280,-4.985188,-0.000000,0.002893,0.006091,-0.012095,-0.000035,-0.005745,0.007833,-0.000280,0.007575,0.166125,0.716768,9.649057,0.000000,0.000000,0,0,,38.990217,-76.938745,-9.343000,,,
2026-09-11T19:18:45.463,6.850663,-0.000000,-0.000000,-0.000000,0.000000,14.044647,-4.831874,-0.000000,0.002499,0.005261,-0.011905,-0.000034,-0.005655,0.003111,0.001109,0.006745,0.243499,0.607228,9.679850,0.000000,0.000000,0,0,,38.990217,-76.938745,-9.343000,,,
2026-09-11T19:18:45.496,6.884076,-0.000000,-0.000000,-0.000000,0.000000,12.283401,-4.225941,-0.000000,0.003994,0.008408,-0.011677,-0.000032,-0.005546,0.001530,-0.001091,0.009891,0.378733,0.655476,9.653764,0.000000,0.000000,0,0,,38.990217,-76.938745,-9.343000,,,
2026-09-11T19:18:45.530,6.917502,-0.000000,-0.000000,-0.000000,0.000000,10.816040,-3.721115,-0.000000,0.003330,0.007011,-0.011419,-0.000031,-0.005424,-0.003152,0.001360,0.008494,0.390697,0.559371,9.688088,0.000000,0.000000,0,0,,38.990217,-76.938745,-9.343000,,,
2026-09-11T19:18:45.563,6.950925,-0.000000,-0.000000,-0.000000,0.000000,9.442062,-3.248416,-0.000000,0.002327,0.004899,-0.011220,-0.000030,-0.005329,-0.007298,0.000666,0.006382,0.355099,0.656947,9.638662,0.000000,0.000000,0,0,,38.990217,-76.938745,-9.343000,,,
2026-09-11T19:18:45.597,6.984337,-0.000000,-0.000000,-0.000000,0.000000,6.994171,-2.406252,-0.000000,0.002739,0.005767,-0.011042,-0.000029,-0.005245,-0.000773,-0.002174,0.007250,0.268898,0.640570,9.648665,0.000000,0.000000,0,0,,38.990217,-76.938745,-9.343000,,,
2026-09-11T19:18:45.630,7.017762,-0.000000,-0.000000,-0.000000,0.000000,0.907745,-0.312298,-0.000000,0.004138,0.008711,-0.010800,-0.000028,-0.005130,0.003542,0.000218,0.010195,0.188876,0.763840,9.656118,0.000000,0.000000,0,0,,38.990217,-76.938745,-9.343000,,,
2026-09-11T19:18:45.663,7.051181,-0.000000,-0.000000,-0.000000,0.000000,0.830154,-0.285604,-0.000000,0.005642,0.011878,-0.010456,-0.000026,-0.004966,0.002662,0.001559,0.013362,0.131311,0.539954,9.666121,0.000000,0.000000,0,0,,38.990217,-76.938745,-9.343000,,,
2026-09-11T19:18:45.698,7.084594,-0.000000,-0.000000,-0.000000,0.000000,0.188828,-0.064964,-0.000000,0.004833,0.010175,-0.010087,-0.000024,-0.004791,0.000537,-0.000010,0.011658,0.298220,0.763840,9.721136,0.000000,0.000000,0,0,,38.990217,-76.938745,-9.343000,,,
2026-09-11T19:18:45.730,7.118066,-0.000000,-0.000000,-0.000000,0.000000,-1.167297,0.401593,-0.000000,0.004146,0.008728,-0.009771,-0.000023,-0.004641,-0.002322,0.001078,0.010211,0.345390,0.561137,9.645527,0.000000,0.000000,0,0,,38.990217,-76.938745,-9.343000,,,
2026-09-11T19:18:45.764,7.151489,-0.000000,-0.000000,-0.000000,0.000000,-2.101135,0.722868,-0.000000,0.000950,0.002000,-0.009592,-0.000022,-0.004556,-0.003354,0.000959,0.003484,0.325385,0.582221,9.649155,0.000000,0.000000,0,1,7.154515,38.990217,-76.938745,-9.345000,-0.068997,0.061713,3.229076
2026-09-11T19:18:45.797,7.184901,-0.000000,-0.000000,-0.000000,0.000000,-2.478104,0.852559,-0.000000,0.000518,0.001090,-0.009540,-0.000022,-0.004531,-0.005840,-0.000376,0.002574,0.309008,0.585849,9.651019,0.000000,0.000000,0,0,,38.990217,-76.938745,-9.345000,,,
2026-09-11T19:18:45.831,7.218326,-0.000000,-0.000000,-0.000000,0.000000,-2.696457,0.927680,-0.000000,-0.000798,-0.001680,-0.009550,-0.000022,-0.004536,-0.004902,-0.000505,-0.000197,0.249775,0.619486,9.677300,0.000000,0.000000,0,0,,38.990217,-76.938745,-9.345000,,,
2026-09-11T19:18:45.864,7.251751,-0.000000,-0.000000,-0.000000,0.000000,-2.930603,1.008235,-0.000000,-0.000164,-0.000346,-0.009584,-0.000022,-0.004552,-0.003066,0.000687,0.001138,0.203880,0.679503,9.691226,0.000000,0.000000,0,0,,38.990217,-76.938745,-9.345000,,,
2026-09-11T19:18:45.898,7.285160,-0.000000,-0.000000,-0.000000,0.000000,-3.115997,1.072017,-0.000000,-0.000030,-0.000062,-0.009591,-0.000022,-0.004555,-0.001713,-0.001302,0.001421,0.248893,0.606737,9.675339,0.000000,0.000000,0,0,,38.990217,-76.938745,-9.345000,,,
2026-09-11T19:18:45.931,7.318581,-0.000000,-0.000000,-0.000000,0.000000,-3.680420,1.266200,-0.000000,-0.000288,-0.000605,-0.009602,-0.000022,-0.004561,0.001689,0.001775,0.000878,0.244872,0.692644,9.671613,0.000000,0.000000,0,0,,38.990217,-76.938745,-9.345000,,,
2026-09-11T19:18:45.964,7.352004,-0.000000,-0.000000,-0.000000,0.000000,-4.144592,1.425892,-0.000000,0.000545,0.001148,-0.009593,-0.000022,-0.004556,0.001526,0.001677,0.002631,0.264191,0.591635,9.660237,0.000000,0.000000,0,0,,38.990217,-76.938745,-9.345000,,,
2026-09-11T19:18:45.998,7.385417,-0.000000,-0.000000,-0.000000,0.000000,-4.230423,1.455421,-0.000000,-0.001312,-0.002763,-0.009620,-0.000022,-0.004569,0.000582,-0.000836,-0.001279,0.334603,0.618015,9.670828,0.000000,0.000000,0,0,,38.990217,-76.938745,-9.345000,,,
2026-09-11T19:18:46.031,7.418845,-0.000000,-0.000000,-0.000000,0.000000,-4.230423,1.455421,-0.000000,-0.000654,-0.001376,-0.009689,-0.000022,-0.004602,0.001866,0.000612,0.000107,0.294298,0.647337,9.657687,0.000000,0.000000,0,0,,38.990217,-76.938745,-9.345000,,,
2026-09-11T19:18:46.065,7.452270,-0.000000,-0.000000,-0.000000,0.000000,-4.339600,1.492982,-0.000000,0.000154,0.000324,-0.009706,-0.000022,-0.004610,0.002441,0.001209,0.001808,0.252815,0.641159,9.671318,0.000000,0.000000,0,0,,38.990217,-76.938745,-9.345000,,,
2026-09-11T19:18:46.098,7.485680,-0.000000,-0.000000,-0.000000,0.000000,-4.985733,1.715275,-0.000000,0.001222,0.002573,-0.009658,-0.000022,-0.004588,-0.002368,-0.001147,0.004057,0.255954,0.723829,9.642291,0.000000,0.000000,0,0,,38.990217,-76.938745,-9.345000,,,
2026-09-11T19:18:46.131,7.519101,-0.000000,-0.000000,-0.000000,0.000000,-6.190796,2.129861,-0.000000,0.002511,0.005287,-0.009527,-0.000022,-0.004525,-0.001914,0.001695,0.006771,0.276646,0.649494,9.669063,0.000000,0.000000,0,0,,38.990217,-76.938745,-9.345000,,,
2026-09-11T19:18:46.165,7.552523,-0.000000,-0.000000,-0.000000,0.000000,-9.214096,3.169987,-0.000000,0.003389,0.007135,-0.009319,-0.000021,-0.004427,0.000631,0.001659,0.008618,0.289590,0.754720,9.691716,0.000000,0.000000,0,0,,38.990217,-76.938745,-9.345000,,,
2026-09-11T19:18:46.198,7.585937,-0.000000,-0.000000,-0.000000,0.000000,-12.192078,4.194522,-0.000000,0.004958,0.010437,-0.009026,-0.000019,-0.004287,0.000585,0.000143,0.011921,0.301358,0.602521,9.676124,0.000000,0.000000,0,0,,38.990217,-76.938745,-9.345000,,,
2026-09-11T19:18:46.232,7.619359,-0.000000,-0.000000,-0.000000,0.000000,-13.152008,4.524773,-0.000000,0.004372,0.009204,-0.008697,-0.000018,-0.004131,0.001413,0.002192,0.010688,0.320089,0.614681,9.667690,0.000000,0.000000,0,0,,38.990217,-76.938745,-9.345000,,,
2026-09-11T19:18:46.265,7.652783,-0.000000,-0.000000,-0.000000,0.000000,-14.375610,4.945738,-0.000000,0.003600,0.007580,-0.008417,-0.000017,-0.003998,0.000212,0.002379,0.009063,0.356472,0.574768,9.633661,0.000000,0.000000,0,0,,38.990217,-76.938745,-9.345000,,,
2026-09-11T19:18:46.299,7.686193,-0.000000,-0.000000,-0.000000,0.000000,-14.928360,5.135904,-0.000000,0.001069,0.002250,-0.008253,-0.000016,-0.003920,-0.007242,0.000789,0.003734,0.345488,0.526323,9.682400,0.000000,0.000000,0,0,,38.990217,-76.938745,-9.345000,,,
2026-09-11T19:18:46.332,7.719615,-0.000000,-0.000000,-0.000000,0.000000,-14.997025,5.159527,-0.000000,-0.000371,-0.000781,-0.008228,-0.000016,-0.003908,-0.004959,0.000108,0.000703,0.274978,0.621545,9.660139,0.000000,0.000000,0,0,,38.990217,-76.938745,-9.345000,,,
2026-09-11T19:18:46.365,7.753038,-0.000000,-0.000000,-0.000000,0.000000,-14.997025,5.159527,-0.000000,-0.001218,-0.002564,-0.008284,-0.000016,-0.003935,-0.002698,-0.000423,-0.001080,0.194760,0.627429,9.669847,0.000000,0.000000,0,0,,38.990217,-76.938745,-9.345000,,,
2026-09-11T19:18:46.400,7.786454,-0.000000,-0.000000,-0.000000,0.000000,-14.997025,5.159527,-0.000000,-0.000143,-0.000301,-0.008332,-0.000016,-0.003958,-0.004817,0.000042,0.001182,0.163477,0.693526,9.680635,0.000000,0.000000,0,0,,38.990217,-76.938745,-9.345000,,,
2026-09-11T19:18:46.432,7.819879,-0.000000,-0.000000,-0.000000,0.000000,-15.571060,5.357016,-0.000000,0.000827,0.001741,-0.008308,-0.000016,-0.003946,-0.003581,0.001133,0.003225,0.217413,0.632235,9.665631,0.000000,0.000000,0,0,,38.990217,-76.938745,-9.345000,,,
2026-09-11T19:18:46.465,7.853304,-0.000000,-0.000000,-0.000000,0.000000,-17.258148,5.937436,-0.000000,0.002203,0.004637,-0.008201,-0.000016,-0.003895,0.002388,0.001564,0.006121,0.272331,0.725202,9.675437,0.000000,0.000000,0,0,,38.990217,-76.938745,-9.345000,,,
2026-09-11T19:18:46.500,7.886717,-0.000000,-0.000000,-0.000000,0.000000,-21.183701,7.287970,-0.000000,0.004626,0.009739,-0.007961,-0.000015,-0.003781,0.010071,0.000511,0.011223,0.273802,0.687152,9.673378,0.000000,0.000000,0,0,,38.990217,-76.938745,-9.345000,,,
2026-09-11T19:18:46.532,7.920136,-0.000000,-0.000000,-0.000000,0.000000,-24.005814,8.258881,-0.000000,0.005238,0.011027,-0.007614,-0.000014,-0.003617,0.013693,0.001421,0.012510,0.267623,0.647827,9.669945,0.000000,0.000000,0,0,,38.990217,-76.938745,-9.345000,,,
2026-09-11T19:18:46.566,7.953560,-0.000000,-0.000000,-0.000000,0.000000,-24.502945,8.429912,-0.000000,0.004173,0.008784,-0.007283,-0.000013,-0.003459,0.008097,0.001898,0.010268,0.349313,0.550741,9.664944,0.000000,0.000000,0,0,,38.990217,-76.938745,-9.345000,,,
2026-09-11T19:18:46.599,7.986969,-0.000000,-0.000000,-0.000000,0.000000,-25.433350,8.750006,-0.000000,0.003541,0.007455,-0.007012,-0.000012,-0.003330,-0.000540,0.000868,0.008939,0.384911,0.646454,9.622481,0.000000,0.000000,0,0,,38.990217,-76.938745,-9.345000,,,
2026-09-11T19:18:46.633,8.020395,-0.000000,-0.000000,-0.000000,0.000000,-25.939407,8.924108,-0.000000,0.002459,0.005176,-0.006800,-0.000011,-0.003230,-0.002006,0.000216,0.006659,0.343331,0.509750,9.699169,0.000000,0.000000,0,0,,38.990217,-76.938745,-9.345000,,,
2026-09-11T19:18:46.666,8.053816,-0.000000,-0.000000,-0.000000,0.000000,-25.939407,8.924108,-0.000000,-0.001351,-0.002844,-0.006762,-0.000011,-0.003212,-0.015779,-0.000024,-0.001360,0.289100,0.634784,9.624541,0.000000,0.000000,0,0,,38.990217,-76.938745,-9.345000,,,
2026-09-11T19:18:46.700,8.087230,0.184656,0.005978,1.709781,0.000000,-25.939407,8.924108,0.182421,0.000021,0.000045,-0.006808,0.003037,-0.003255,-0.007593,0.000815,0.001528,0.225945,0.661851,9.662787,0.000000,0.000000,0,0,,38.990217,-76.938745,-9.345000,,,
2026-09-11T19:18:46.733,8.120653,0.155198,0.011538,1.437015,0.000000,-25.939407,8.924108,0.153319,0.000545,0.001148,-0.006788,0.008647,-0.003283,-0.003478,0.000762,0.002632,0.206430,0.574866,9.673672,0.000000,0.000000,0,0,,38.990217,-76.938745,-9.345000,,,
2026-09-11T19:18:46.766,8.154081,0.027543,0.011560,0.255027,0.000000,-26.060257,8.965685,0.027206,-0.000130,-0.000273,-0.006774,0.011665,-0.003297,-0.006704,0.001360,0.001211,0.231927,0.668814,9.664748,0.000000,0.000000,0,1,8.153594,38.990217,-76.938745,-9.364000,-0.083546,0.076724,3.228546
2026-09-11T19:18:46.800,8.187494,0.007904,0.011649,0.073183,0.000000,-26.457138,9.102226,0.007804,-0.000129,-0.000271,-0.006783,0.012249,-0.003305,-0.000435,0.001477,0.001213,0.255071,0.610366,9.684459,0.000000,0.000000,0,0,,38.990217,-76.938745,-9.364000,,,
2026-09-11T19:18:46.833,8.220915,-0.000000,0.011515,-0.000000,0.000000,-26.950150,9.271840,-0.000000,0.001085,0.002285,-0.006749,0.012380,-0.003290,0.004479,-0.000204,0.003769,0.263897,0.624389,9.655726,0.000000,0.000000,0,0,,38.990217,-76.938745,-9.364000,,,
2026-09-11T19:18:46.867,8.254336,-0.000000,0.011515,-0.000000,0.000000,-27.257767,9.377672,-0.000000,-0.000576,-0.001213,-0.006731,0.012380,-0.003282,-0.003637,0.000991,0.000271,0.301849,0.597323,9.677889,0.000000,0.000000,0,0,,38.990217,-76.938745,-9.364000,,,
2026-09-11T19:18:46.900,8.287751,-0.000000,0.011515,-0.000000,0.000000,-27.339478,9.405784,-0.000000,-0.001430,-0.003011,-0.006802,0.012380,-0.003315,-0.001762,0.001248,-0.001527,0.326267,0.602423,9.638172,0.000000,0.000000,0,0,,38.990217,-76.938745,-9.364000,,,
2026-09-11T19:18:46.934,8.321179,-0.000000,0.011515,-0.000000,0.000000,-27.422562,9.434368,-0.000000,-0.000651,-0.001370,-0.006875,0.012380,-0.003350,0.002603,-0.001805,0.000114,0.272331,0.675188,9.696129,0.000000,0.000000,0,0,,38.990217,-76.938745,-9.364000,,,
2026-09-11T19:18:46.967,8.354598,-0.000000,0.011515,-0.000000,0.000000,-27.433548,9.438147,-0.000000,-0.002946,-0.006202,-0.007002,0.012379,-0.003410,-0.005155,0.001894,-0.004719,0.262720,0.571237,9.650921,0.000000,0.000000,0,0,,38.990217,-76.938745,-9.364000,,,
2026-09-11T19:18:47.000,8.388009,-0.000000,0.011515,-0.000000,0.000000,-27.433548,9.438147,-0.000000,-0.001966,-0.004139,-0.007174,0.012379,-0.003492,0.002109,-0.000189,-0.002656,0.252031,0.645964,9.661316,0.000000,0.000000,0,0,,38.990217,-76.938745,-9.364000,,,
2026-09-11T19:18:47.034,8.421432,-0.000000,0.011515,-0.000000,0.000000,-27.333298,9.403657,-0.000000,-0.001431,-0.003013,-0.007294,0.012378,-0.003549,0.009049,-0.002450,-0.001529,0.237125,0.565451,9.647390,0.000000,0.000000,0,0,,38.990217,-76.938745,-9.364000,,,
2026-09-11T19:18:47.067,8.454853,-0.000000,0.011515,-0.000000,0.000000,-27.201462,9.358301,-0.000000,-0.004450,-0.009368,-0.007501,0.012377,-0.003647,0.010153,0.001037,-0.007884,0.256052,0.598010,9.650528,0.000000,0.000000,0,0,,38.990217,-76.938745,-9.364000,,,
2026-09-11T19:18:47.100,8.488264,-0.000000,0.011515,-0.000000,0.000000,-27.103271,9.324520,-0.000000,-0.002801,-0.005897,-0.007756,0.012376,-0.003768,0.013990,0.000550,-0.004414,0.234281,0.675580,9.648273,0.000000,0.000000,0,0,,38.990217,-76.938745,-9.364000,,,
2026-09-11T19:18:47.134,8.521685,-0.000000,0.011515,-0.000000,0.000000,-27.015381,9.294282,-0.000000,-0.002506,-0.005276,-0.007942,0.012376,-0.003857,0.009971,-0.000705,-0.003793,0.267427,0.626351,9.675633,0.000000,0.000000,0,0,,38.990217,-76.938745,-9.364000,,,
2026-09-11T19:18:47.168,8.555108,-0.000000,0.011515,-0.000000,0.000000,-26.871872,9.244910,-0.000000,-0.002832,-0.005963,-0.008130,0.012375,-0.003946,0.004452,0.001244,-0.004479,0.312832,0.654790,9.636309,0.000000,0.000000,0,0,,38.990217,-76.938745,-9.364000,,,
2026-09-11T19:18:47.201,8.588521,-0.000000,0.011515,-0.000000,0.000000,-26.656265,9.170733,-0.000000,-0.001776,-0.003739,-0.008292,0.012374,-0.004023,0.001859,0.000953,-0.002256,0.329896,0.584280,9.618853,0.000000,0.000000,0,0,,38.990217,-76.938745,-9.364000,,,
2026-09-11T19:18:47.234,8.621944,-0.292144,-0.003783,-2.705037,0.000000,-26.242218,9.028286,-0.288525,-0.003230,-0.006800,-0.008468,0.007552,-0.004066,-0.001976,-0.001365,-0.005316,0.316461,0.594675,9.699463,0.000000,0.000000,0,0,,38.990217,-76.938745,-9.364000,,,
2026-09-11T19:18:47.268,8.655370,-0.051597,-0.003807,-0.477752,0.000000,-25.783539,8.870484,-0.050980,-0.005661,-0.011919,-0.008781,0.001877,-0.004166,-0.006758,-0.000069,-0.010435,0.288316,0.646847,9.693481,0.000000,0.000000,0,0,,38.990217,-76.938745,-9.364000,,,
2026-09-11T19:18:47.301,8.688783,-0.013110,-0.003780,-0.121386,0.000000,-24.968491,8.590077,-0.012963,-0.004545,-0.009568,-0.009140,0.000807,-0.004327,-0.001096,-0.000501,-0.008084,0.274488,0.652142,9.708093,0.000000,0.000000,0,0,,38.990217,-76.938745,-9.364000,,,
2026-09-11T19:18:47.334,8.722205,-0.000000,-0.003647,-0.000000,0.000000,-24.386902,8.389989,-0.000000,-0.004634,-0.009756,-0.009463,0.000589,-0.004479,0.009241,-0.002021,-0.008272,0.239478,0.630764,9.659648,0.000000,0.000000,0,0,,38.990217,-76.938745,-9.364000,,,
2026-09-11T19:18:47.368,8.755627,-0.000000,-0.003647,-0.000000,0.000000,-23.223724,7.989813,-0.000000,-0.005397,-0.011362,-0.009816,0.000588,-0.004646,0.007125,0.000801,-0.009879,0.166517,0.639099,9.652588,0.000000,0.000000,0,0,,38.990217,-76.938745,-9.364000,,,
2026-09-11T19:18:47.402,8.789038,-0.000000,-0.003647,-0.000000,0.000000,-21.502991,7.397818,-0.000000,-0.005841,-0.012296,-0.010211,0.000586,-0.004834,0.008126,0.000268,-0.010813,0.287041,0.629685,9.655039,0.000000,0.000000,0,0,,38.990217,-76.938745,-9.364000,,,
2026-09-11T19:18:47.435,8.822458,-0.000000,-0.003647,-0.000000,0.000000,-19.560471,6.729520,-0.000000,-0.005753,-0.012111,-0.010619,0.000584,-0.005028,0.008725,-0.001401,-0.010627,0.323129,0.615073,9.689657,0.000000,0.000000,0,0,,38.990217,-76.938745,-9.364000,,,
2026-09-11T19:18:47.468,8.855883,-0.000000,-0.003647,-0.000000,0.000000,-17.284241,5.946413,-0.000000,-0.006079,-0.012798,-0.011035,0.000582,-0.005225,0.009452,-0.000857,-0.011315,0.266152,0.642630,9.640231,0.000000,0.000000,0,0,,38.990217,-76.938745,-9.364000,,,
2026-09-11T19:18:47.502,8.889295,-0.000000,-0.003647,-0.000000,0.000000,-12.861557,4.424848,-0.000000,-0.007913,-0.016660,-0.011528,0.000579,-0.005459,0.000693,0.000219,-0.015176,0.289100,0.581240,9.646704,0.000000,0.000000,0,0,,38.990217,-76.938745,-9.364000,,,
2026-09-11T19:18:47.535,8.922722,-0.000000,-0.003647,-0.000000,0.000000,-11.721725,4.032704,-0.000000,-0.008062,-0.016974,-0.012090,0.000576,-0.005726,-0.007016,-0.001309,-0.015490,0.353726,0.667931,9.633661,0.000000,0.000000,0,0,,38.990217,-76.938745,-9.364000,,,
2026-09-11T19:18:47.569,8.956150,-0.000000,-0.003647,-0.000000,0.000000,-9.833450,3.383068,-0.000000,-0.003925,-0.008264,-0.012512,0.000573,-0.005926,-0.000449,-0.000872,-0.006780,0.261151,0.688721,9.690736,0.000000,0.000000,0,0,,38.990217,-76.938745,-9.364000,,,
2026-09-11T19:18:47.602,8.989565,-0.000000,-0.003647,-0.000000,0.000000,-8.038559,2.765559,-0.000000,-0.003900,-0.008210,-0.012787,0.000572,-0.006057,-0.000830,0.001351,-0.006727,0.306458,0.636255,9.658570,0.000000,0.000000,0,0,,38.990217,-76.938745,-9.364000,,,
2026-09-11T19:18:47.635,9.022988,-0.000000,-0.003647,-0.000000,0.000000,-4.747467,1.633303,-0.000000,-0.004211,-0.008865,-0.013072,0.000570,-0.006193,-0.006280,-0.001752,-0.007381,0.286648,0.667441,9.626306,0.000000,0.000000,0,0,,38.990217,-76.938745,-9.364000,,,
2026-09-11T19:18:47.669,9.056413,-0.000000,-0.003647,-0.000000,0.000000,-0.199814,0.068743,-0.000000,-0.003484,-0.007335,-0.013343,0.000568,-0.006321,-0.012158,0.000712,-0.005851,0.258699,0.483762,9.571487,0.000000,0.000000,0,0,,38.990217,-76.938745,-9.364000,,,
2026-09-11T19:18:47.702,9.089825,-0.000000,-0.003647,-0.000000,0.000000,-0.200500,0.068980,-0.000000,-0.004273,-0.008996,-0.013616,0.000566,-0.006451,-0.007827,-0.001378,-0.007513,0.342154,0.665773,9.641506,0.000000,0.000000,0,0,,38.990217,-76.938745,-9.364000,,,
2026-09-11T19:18:47.736,9.123247,-0.000000,-0.003647,-0.000000,0.000000,-0.141449,0.048664,-0.000000,-0.003031,-0.006380,-0.013873,0.000565,-0.006573,0.004150,-0.001385,-0.004897,0.222611,0.637923,9.763501,0.000000,0.000000,0,0,,38.990217,-76.938745,-9.364000,,,
2026-09-11T19:18:47.769,9.156668,-0.000000,-0.003647,-0.000000,0.000000,0.409927,-0.141030,-0.000000,-0.003791,-0.007982,-0.014113,0.000563,-0.006687,0.006195,-0.000376,-0.006498,0.233398,0.648220,9.695737,0.000000,0.000000,0,1,9.161945,38.990217,-76.938745,-9.387000,-0.075479,0.095442,3.228017
2026-09-11T19:18:47.802,9.190079,-0.000000,-0.003647,-0.000000,0.000000,1.104126,-0.379860,-0.000000,-0.004787,-0.010078,-0.014414,0.000561,-0.006830,0.005601,-0.001788,-0.008594,0.234379,0.642041,9.671416,0.000000,0.000000,0,0,,38.990217,-76.938745,-9.387000,,,
2026-09-11T19:18:47.836,9.223502,-0.000000,-0.003647,-0.000000,0.000000,2.075730,-0.714127,-0.000000,-0.002577,-0.005425,-0.014673,0.000559,-0.006953,0.003172,-0.000940,-0.003941,0.222807,0.631941,9.670044,0.000000,0.000000,0,0,,38.990217,-76.938745,-9.387000,,,
2026-09-11T19:18:47.869,9.256928,-0.000000,-0.003647,-0.000000,0.000000,3.325425,-1.144068,-0.000000,-0.002785,-0.005864,-0.014862,0.000558,-0.007043,0.003600,0.000922,-0.004381,0.308223,0.675188,9.661610,0.000000,0.000000,0,0,,38.990217,-76.938745,-9.387000,,,
2026-09-11T19:18:47.903,9.290337,-0.000000,-0.003647,-0.000000,0.000000,4.636231,-1.595034,-0.000000,-0.003753,-0.007902,-0.015092,0.000556,-0.007152,0.005021,-0.001321,-0.006418,0.304889,0.596342,9.639349,0.000000,0.000000,0,0,,38.990217,-76.938745,-9.387000,,,
2026-09-11T19:18:47.936,9.323759,-0.000000,-0.003647,-0.000000,0.000000,6.143418,-2.113561,-0.000000,-0.003725,-0.007843,-0.015355,0.000554,-0.007277,-0.000574,0.000867,-0.006359,0.315970,0.658222,9.651803,0.000000,0.000000,0,0,,38.990217,-76.938745,-9.387000,,,
2026-09-11T19:18:47.970,9.357180,-0.000000,-0.003647,-0.000000,0.000000,7.950669,-2.735322,-0.000000,-0.004379,-0.009220,-0.015640,0.000552,-0.007412,-0.000935,-0.000478,-0.007736,0.317245,0.661164,9.656216,0.000000,0.000000,0,0,,38.990217,-76.938745,-9.387000,,,
2026-09-11T19:18:48.003,9.390589,-0.000000,-0.003647,-0.000000,0.000000,10.884019,-3.744502,-0.000000,-0.004470,-0.009412,-0.015951,0.000550,-0.007560,-0.006272,-0.001507,-0.007928,0.290081,0.611445,9.649940,0.000000,0.000000,0,0,,38.990217,-76.938745,-9.387000,,,
2026-09-11T19:18:48.036,9.424014,-0.000000,-0.003647,-0.000000,0.000000,12.974855,-4.463826,-0.000000,-0.003689,-0.007766,-0.016239,0.000548,-0.007697,-0.009437,0.000601,-0.006283,0.322345,0.657732,9.614538,0.000000,0.000000,0,0,,38.990217,-76.938745,-9.387000,,,
2026-09-11T19:18:48.070,9.457434,-0.000000,-0.003647,-0.000000,0.000000,13.833848,-4.759352,-0.000000,-0.003328,-0.007007,-0.016485,0.000546,-0.007814,-0.004343,-0.000694,-0.005523,0.260268,0.671756,9.697012,0.000000,0.000000,0,0,,38.990217,-76.938745,-9.387000,,,
2026-09-11T19:18:48.103,9.490847,-0.000000,-0.003647,-0.000000,0.000000,14.869310,-5.115588,-0.000000,-0.001943,-0.004091,-0.016671,0.000544,-0.007902,-0.003181,-0.001064,-0.002607,0.210941,0.642924,9.689657,0.000000,0.000000,0,0,,38.990217,-76.938745,-9.387000,,,
2026-09-11T19:18:48.136,9.524270,-0.000000,-0.003647,-0.000000,0.000000,15.698091,-5.400719,-0.000000,-0.001539,-0.003239,-0.016793,0.000544,-0.007960,0.000524,0.001151,-0.001756,0.268898,0.681268,9.681713,0.000000,0.000000,0,0,,38.990217,-76.938745,-9.387000,,,
2026-09-11T19:18:48.170,9.557689,-0.000000,-0.003647,-0.000000,0.000000,16.072999,-5.529702,-0.000000,-0.001670,-0.003516,-0.016906,0.000543,-0.008014,0.004238,-0.002124,-0.002032,0.235163,0.620369,9.664944,0.000000,0.000000,0,0,,38.990217,-76.938745,-9.387000,,,
2026-09-11T19:18:48.205,9.591101,-0.000000,-0.003647,-0.000000,0.000000,16.656648,-5.730498,-0.000000,-0.001440,-0.003031,-0.017016,0.000542,-0.008066,0.004165,-0.000935,-0.001547,0.277528,0.637040,9.651313,0.000000,0.000000,0,0,,38.990217,-76.938745,-9.387000,,,
2026-09-11T19:18:48.238,9.624518,-0.000000,-0.003647,-0.000000,0.000000,16.901094,-5.814597,-0.000000,-0.002163,-0.004554,-0.017142,0.000541,-0.008126,0.002154,0.000740,-0.003070,0.303908,0.661066,9.651607,0.000000,0.000000,0,0,,38.990217,-76.938745,-9.387000,,,
2026-09-11T19:18:48.270,9.657930,-0.000000,-0.003647,-0.000000,0.000000,17.240297,-5.931295,-0.000000,-0.001474,-0.003103,-0.017270,0.000540,-0.008187,0.001415,-0.001087,-0.001619,0.276351,0.599481,9.683577,0.000000,0.000000,0,0,,38.990217,-76.938745,-9.387000,,,
2026-09-11T19:18:48.304,9.691349,-0.000000,-0.003647,-0.000000,0.000000,17.740175,-6.103271,-0.000000,-0.001766,-0.003717,-0.017384,0.000539,-0.008241,0.001414,-0.001879,-0.002234,0.320187,0.664891,9.649940,0.000000,0.000000,0,0,,38.990217,-76.938745,-9.387000,,,
2026-09-11T19:18:48.337,9.724769,-0.000000,-0.003647,-0.000000,0.000000,18.028566,-6.202488,-0.000000,-0.002283,-0.004806,-0.017527,0.000538,-0.008308,-0.000162,0.000772,-0.003323,0.258797,0.632627,9.692991,0.000000,0.000000,0,0,,38.990217,-76.938745,-9.387000,,,
2026-09-11T19:18:48.370,9.758190,-0.000000,-0.003647,-0.000000,0.000000,18.594362,-6.397143,-0.000000,-0.000854,-0.001797,-0.017637,0.000537,-0.008361,-0.001305,-0.001465,-0.000313,0.262328,0.632627,9.662492,0.000000,0.000000,0,0,,38.990217,-76.938745,-9.387000,,,
2026-09-11T19:18:48.404,9.791608,-0.000000,-0.003647,-0.000000,0.000000,19.320833,-6.647075,-0.000000,-0.000306,-0.000644,-0.017678,0.000536,-0.008380,-0.003872,-0.000339,0.000840,0.288708,0.664204,9.647979,0.000000,0.000000,0,0,,38.990217,-76.938745,-9.387000,,,
2026-09-11T19:18:48.437,9.825022,-0.000000,-0.003647,-0.000000,0.000000,20.704423,-7.123081,-0.000000,-0.001389,-0.002924,-0.017737,0.000536,-0.008408,-0.003359,0.000760,-0.001441,0.281647,0.640668,9.691520,0.000000,0.000000,0,0,,38.990217,-76.938745,-9.387000,,,
2026-09-11T19:18:48.471,9.858435,-0.000000,-0.003647,-0.000000,0.000000,23.847201,-8.204312,-0.000000,-0.000422,-0.000889,-0.017801,0.000535,-0.008439,-0.006899,-0.001421,0.000595,0.291748,0.634392,9.670730,0.000000,0.000000,0,0,,38.990217,-76.938745,-9.387000,,,
2026-09-11T19:18:48.504,9.891855,-0.000000,-0.003647,-0.000000,0.000000,23.978350,-8.249432,-0.000000,-0.001272,-0.002678,-0.017861,0.000535,-0.008467,-0.005540,-0.000334,-0.001195,0.300672,0.684798,9.653666,0.000000,0.000000,0,0,,38.990217,-76.938745,-9.387000,,,
2026-09-11T19:18:48.538,9.925270,-0.000000,-0.003647,-0.000000,0.000000,24.005130,-8.258646,-0.000000,0.000232,0.000488,-0.017897,0.000534,-0.008484,0.002893,-0.001036,0.001972,0.225259,0.631646,9.661512,0.000000,0.000000,0,0,,38.990217,-76.938745,-9.387000,,,
2026-09-11T19:18:48.571,9.958684,-0.000000,-0.003647,-0.000000,0.000000,24.005130,-8.258646,-0.000000,0.000204,0.000428,-0.017882,0.000535,-0.008477,0.000949,-0.000558,0.001912,0.232614,0.656261,9.677693,0.000000,0.000000,0,0,,38.990217,-76.938745,-9.387000,,,
2026-09-11T19:18:48.604,9.992106,-0.000000,-0.003647,-0.000000,0.000000,23.888400,-8.218486,-0.000000,0.000686,0.001445,-0.017851,0.000535,-0.008462,0.003453,-0.000392,0.002929,0.288021,0.672932,9.649744,0.000000,0.000000,0,0,,38.990217,-76.938745,-9.387000,,,
2026-09-11T19:18:48.638,10.025521,-0.000000,-0.003647,-0.000000,0.000000,22.829593,-7.854218,-0.000000,0.002121,0.004465,-0.017752,0.000536,-0.008415,0.003553,-0.000161,0.005948,0.291846,0.658811,9.687499,0.000000,0.000000,0,0,,38.990217,-76.938745,-9.387000,,,
2026-09-11T19:18:48.671,10.058934,-0.000000,-0.003647,-0.000000,0.000000,21.298373,-7.327422,-0.000000,0.002701,0.005686,-0.017582,0.000537,-0.008335,-0.002584,-0.000171,0.007170,0.327836,0.704314,9.656706,0.000000,0.000000,0,0,,38.990217,-76.938745,-9.387000,,,
2026-09-11T19:18:48.704,10.092357,-0.000000,-0.003647,-0.000000,0.000000,18.132937,-6.238396,-0.000000,0.003365,0.007085,-0.017369,0.000539,-0.008233,-0.002629,-0.001369,0.008569,0.309596,0.685387,9.674849,0.000000,0.000000,0,0,,38.990217,-76.938745,-9.387000,,,
2026-09-11T19:18:48.738,10.125769,-0.000000,-0.003647,-0.000000,0.000000,13.207629,-4.543909,-0.000000,0.007269,0.015302,-0.016995,0.000542,-0.008056,0.004784,-0.000741,0.016786,0.207901,0.684700,9.660433,0.000000,0.000000,0,0,,38.990217,-76.938745,-9.387000,,,
2026-09-11T19:18:48.771,10.159182,-0.000000,-0.003647,-0.000000,0.000000,11.940081,-4.107826,-0.000000,0.006451,0.013581,-0.016512,0.000546,-0.007827,-0.005276,0.000328,0.015065,0.229966,0.606443,9.666513,0.000000,0.000000,0,1,10.147022,38.990217,-76.938745,-9.377000,-0.071734,0.097110,3.227487
2026-09-11T19:18:48.805,10.192601,-0.000000,-0.003647,-0.000000,0.000000,9.528582,-3.278182,-0.000000,0.005062,0.010656,-0.016107,0.000549,-0.007634,-0.010456,0.001653,0.012140,0.363336,0.674894,9.720548,0.000000,0.000000,0,0,,38.990217,-76.938745,-9.377000,,,
2026-09-11T19:18:48.839,10.226015,-0.000000,-0.003647,-0.000000,0.000000,4.315570,-1.484714,-0.000000,0.005000,0.010526,-0.015753,0.000552,-0.007466,0.001982,-0.000586,0.012009,0.310380,0.598990,9.662492,0.000000,0.000000,0,0,,38.990217,-76.938745,-9.377000,,,
2026-09-11T19:18:48.871,10.259430,-0.000000,-0.003647,-0.000000,0.000000,0.138702,-0.047719,-0.000000,0.007636,0.016076,-0.015309,0.000555,-0.007255,0.010528,-0.001275,0.017560,0.231339,0.757466,9.664061,0.000000,0.000000,0,0,,38.990217,-76.938745,-9.377000,,,
2026-09-11T19:18:48.905,10.292851,-0.000000,-0.003647,-0.000000,0.000000,-0.177155,0.060948,-0.000000,0.005880,0.012379,-0.014833,0.000558,-0.007029,0.002728,0.000609,0.013862,0.205645,0.380596,9.658374,0.000000,0.000000,0,0,,38.990217,-76.938745,-9.377000,,,
2026-09-11T19:18:48.939,10.326260,-0.000000,-0.003647,-0.000000,0.000000,-0.846634,0.291273,-0.000000,0.002853,0.006006,-0.014526,0.000560,-0.006883,-0.008242,0.000471,0.007489,0.318814,0.619486,9.653764,0.000000,0.000000,0,0,,38.990217,-76.938745,-9.377000,,,
2026-09-11T19:18:48.972,10.359674,-0.000000,-0.003647,-0.000000,0.000000,-1.512680,0.520417,-0.000000,0.002128,0.004480,-0.014351,0.000562,-0.006800,-0.008815,-0.000017,0.005964,0.324012,0.518870,9.714075,0.000000,0.000000,0,0,,38.990217,-76.938745,-9.377000,,,
2026-09-11T19:18:49.005,10.393094,-0.000000,-0.003647,-0.000000,0.000000,-2.596893,0.893427,-0.000000,0.001467,0.003087,-0.014225,0.000562,-0.006740,-0.003049,-0.000519,0.004571,0.305085,0.697547,9.637093,0.000000,0.000000,0,0,,38.990217,-76.938745,-9.377000,,,
2026-09-11T19:18:49.039,10.426507,-0.000000,-0.003647,-0.000000,0.000000,-3.909760,1.345101,-0.000000,0.002831,0.005959,-0.014073,0.000563,-0.006668,0.002914,-0.001214,0.007443,0.289296,0.583692,9.684655,0.000000,0.000000,0,0,,38.990217,-76.938745,-9.377000,,,
2026-09-11T19:18:49.072,10.459921,-0.000000,-0.003647,-0.000000,0.000000,-5.042038,1.734646,-0.000000,0.001246,0.002624,-0.013930,0.000564,-0.006600,-0.001144,-0.000489,0.004107,0.242715,0.543681,9.656608,0.000000,0.000000,0,0,,38.990217,-76.938745,-9.377000,,,
2026-09-11T19:18:49.106,10.493346,-0.000000,-0.003647,-0.000000,0.000000,-6.875381,2.365384,-0.000000,0.003767,0.007930,-0.013754,0.000566,-0.006516,0.002886,-0.001179,0.009413,0.241538,0.708138,9.678183,0.000000,0.000000,0,0,,38.990217,-76.938745,-9.377000,,,
2026-09-11T19:18:49.139,10.526758,-0.000000,-0.003647,-0.000000,0.000000,-11.107864,3.821513,-0.000000,0.004021,0.008466,-0.013480,0.000567,-0.006386,0.008607,-0.000411,0.009949,0.209274,0.654986,9.673966,0.000000,0.000000,0,0,,38.990217,-76.938745,-9.377000,,,
2026-09-11T19:18:49.172,10.560172,-0.000000,-0.003647,-0.000000,0.000000,-12.465363,4.288542,-0.000000,0.005763,0.012133,-0.013136,0.000569,-0.006223,0.006389,0.001305,0.013617,0.217904,0.657732,9.642585,0.000000,0.000000,0,0,,38.990217,-76.938745,-9.377000,,,
2026-09-11T19:18:49.206,10.593590,-0.000000,-0.003647,-0.000000,0.000000,-14.732666,5.068578,-0.000000,0.005043,0.010616,-0.012756,0.000572,-0.006042,0.000684,0.002770,0.012100,0.355785,0.554272,9.638662,0.000000,0.000000,0,0,,38.990217,-76.938745,-9.377000,,,
2026-09-11T19:18:49.239,10.627002,-0.000000,-0.003647,-0.000000,0.000000,-17.642670,6.069726,-0.000000,0.005129,0.010799,-0.012398,0.000574,-0.005872,0.005996,-0.000835,0.012282,0.385205,0.655673,9.627188,0.000000,0.000000,0,0,,38.990217,-76.938745,-9.377000,,,
2026-09-11T19:18:49.273,10.660418,-0.000000,-0.003647,-0.000000,0.000000,-23.326721,8.025248,-0.000000,0.006698,0.014102,-0.011982,0.000576,-0.005675,0.012551,-0.000795,0.015585,0.283804,0.786199,9.717017,0.000000,0.000000,0,0,,38.990217,-76.938745,-9.377000,,,
2026-09-11T19:18:49.306,10.693839,-0.000000,-0.003647,-0.000000,0.000000,-24.928665,8.576376,-0.000000,0.008895,0.018726,-0.011433,0.000579,-0.005414,0.010847,0.001653,0.020210,0.219669,0.601736,9.680341,0.000000,0.000000,0,0,,38.990217,-76.938745,-9.377000,,,
2026-09-11T19:18:49.340,10.727251,-0.000000,-0.003647,-0.000000,0.000000,-27.084045,9.317906,-0.000000,0.005990,0.012610,-0.010910,0.000582,-0.005166,-0.004617,0.000673,0.014094,0.349215,0.681660,9.637485,0.000000,0.000000,0,0,,38.990217,-76.938745,-9.377000,,,
2026-09-11T19:18:49.373,10.760662,0.029156,-0.003647,0.269965,0.000000,-29.169388,10.035340,0.028710,0.006151,0.012950,-0.010483,0.001064,-0.004968,-0.010146,0.001559,0.014434,0.405309,0.604384,9.634249,0.000000,0.000000,0,0,,38.990217,-76.938745,-9.377000,,,
2026-09-11T19:18:49.407,10.794084,0.241961,0.011616,2.240377,0.000000,-30.753479,10.580325,0.237847,0.003685,0.007759,-0.010137,0.005520,-0.004849,-0.008708,-0.001552,0.009242,0.312734,0.633510,9.643075,0.000000,0.000000,0,0,,38.990217,-76.938745,-9.377000,,,
2026-09-11T19:18:49.440,10.827497,0.045569,0.011578,0.421935,0.000000,-32.575836,11.207283,0.044700,0.004022,0.008468,-0.009865,0.010241,-0.004768,-0.006062,-0.000942,0.009952,0.245068,0.652731,9.666905,0.000000,0.000000,0,0,,38.990217,-76.938745,-9.377000,,,
2026-09-11T19:18:49.473,10.860910,0.006291,0.011549,0.058246,0.000000,-34.898758,12.006453,0.006153,0.003833,0.008070,-0.009589,0.011092,-0.004645,-0.002346,0.000286,0.009553,0.198487,0.599382,9.673966,0.000000,0.000000,0,0,,38.990217,-76.938745,-9.377000,,,
2026-09-11T19:18:49.507,10.894329,-0.000000,0.011515,-0.000000,0.000000,-36.967621,12.718218,-0.000000,0.004817,0.010142,-0.009285,0.011196,-0.004501,0.011006,0.000347,0.011625,0.173480,0.686171,9.683773,0.000000,0.000000,0,0,,38.990217,-76.938745,-9.377000,,,
2026-09-11T19:18:49.540,10.927741,-0.000000,0.011515,-0.000000,0.000000,-39.228058,13.495891,-0.000000,0.006512,0.013709,-0.008886,0.011198,-0.004312,0.009406,0.000108,0.015192,0.206038,0.583300,9.676222,0.000000,0.000000,0,0,,38.990217,-76.938745,-9.377000,,,
2026-09-11T19:18:49.574,10.961158,-0.000000,0.011515,-0.000000,0.000000,-41.864090,14.402783,-0.000000,0.004515,0.009505,-0.008499,0.011200,-0.004128,0.008142,0.001299,0.010988,0.237517,0.653515,9.678673,0.000000,0.000000,0,0,,38.990217,-76.938745,-9.377000,,,
2026-09-11T19:18:49.607,10.994582,-0.000000,0.011515,-0.000000,0.000000,-45.987396,15.821352,-0.000000,0.005940,0.012505,-0.008131,0.011201,-0.003953,0.014142,-0.000344,0.013989,0.223592,0.696076,9.685048,0.000000,0.000000,0,0,,38.990217,-76.938745,-9.377000,,,
2026-09-11T19:18:49.641,11.027995,-0.000000,0.011515,-0.000000,0.000000,-49.502335,17.030620,-0.000000,0.006389,0.013450,-0.007697,0.011203,-0.003747,0.012533,0.001216,0.014933,0.270860,0.624586,9.664356,0.000000,0.000000,0,0,,38.990217,-76.938745,-9.377000,,,
2026-09-11T19:18:49.674,11.061409,-0.000000,0.011515,-0.000000,0.000000,-50.071564,17.226455,-0.000000,0.005547,0.011677,-0.007277,0.011204,-0.003548,0.008084,0.003782,0.013161,0.335878,0.689506,9.666611,0.000000,0.000000,0,0,,38.990217,-76.938745,-9.377000,,,
2026-09-11T19:18:49.707,11.094828,-0.000000,0.011515,-0.000000,0.000000,-51.357651,17.668917,-0.000000,0.005253,0.011060,-0.006897,0.011205,-0.003367,-0.003343,0.000236,0.012543,0.408545,0.571041,9.656706,0.000000,0.000000,0,0,,38.990217,-76.938745,-9.377000,,,
2026-09-11T19:18:49.741,11.128243,-0.000000,0.011515,-0.000000,0.000000,-51.864395,17.843255,-0.000000,0.002362,0.004972,-0.006630,0.011206,-0.003240,-0.014333,0.000295,0.006456,0.385794,0.577023,9.658374,0.000000,0.000000,0,0,,38.990217,-76.938745,-9.377000,,,
2026-09-11T19:18:49.774,11.161657,-0.000000,0.011515,-0.000000,0.000000,-51.867142,17.844200,-0.000000,0.000698,0.001470,-0.006522,0.011207,-0.003189,-0.015717,0.001569,0.002954,0.356570,0.611935,9.647390,0.000000,0.000000,0,1,11.149589,38.990217,-76.938745,-9.365000,-0.071014,0.085805,3.226958
2026-09-11T19:18:49.807,11.195077,-0.000000,0.011515,-0.000000,0.000000,-51.867142,17.844200,-0.000000,0.001274,0.002683,-0.006453,0.011207,-0.003156,-0.007323,-0.002282,0.004166,0.248795,0.613798,9.642879,0.000000,0.000000,0,0,,38.990217,-76.938745,-9.365000,,,
2026-09-11T19:18:49.841,11.228494,-0.000000,0.011515,-0.000000,0.000000,-51.867142,17.844200,-0.000000,0.000560,0.001178,-0.006388,0.011207,-0.003125,0.000483,-0.000811,0.002662,0.149355,0.646945,9.689166,0.000000,0.000000,0,0,,38.990217,-76.938745,-9.365000,,,
2026-09-11T19:18:49.874,11.261907,-0.000000,0.011515,-0.000000,0.000000,-51.867142,17.844200,-0.000000,0.000093,0.000195,-0.006365,0.011207,-0.003114,0.002184,0.000521,0.001678,0.161516,0.582221,9.663865,0.000000,0.000000,0,0,,38.990217,-76.938745,-9.365000,,,
2026-09-11T19:18:49.908,11.295330,-0.000000,0.011515,-0.000000,0.000000,-51.867142,17.844200,-0.000000,-0.001925,-0.004052,-0.006430,0.011207,-0.003145,0.005347,-0.000317,-0.002569,0.189464,0.655084,9.685342,0.000000,0.000000,0,0,,38.990217,-76.938745,-9.365000,,,
2026-09-11T19:18:49.941,11.328742,-0.000000,0.011515,-0.000000,0.000000,-51.867142,17.844200,-0.000000,-0.001424,-0.002998,-0.006547,0.011207,-0.003201,0.003454,-0.000395,-0.001514,0.234379,0.608405,9.658177,0.000000,0.000000,0,0,,38.990217,-76.938745,-9.365000,,,
2026-09-11T19:18:49.974,11.362153,-0.000000,0.011515,-0.000000,0.000000,-51.867142,17.844200,-0.000000,-0.002909,-0.006125,-0.006700,0.011206,-0.003273,0.000249,0.001049,-0.004641,0.284197,0.649887,9.701523,0.000000,0.000000,0,0,,38.990217,-76.938745,-9.365000,,,
2026-09-11T19:18:50.008,11.395572,-0.000000,0.011515,-0.000000,0.000000,-51.867142,17.844200,-0.000000,-0.000995,-0.002094,-0.006837,0.011206,-0.003339,0.002969,-0.000649,-0.000611,0.336368,0.675776,9.646900,0.000000,0.000000,0,0,,38.990217,-76.938745,-9.365000,,,
2026-09-11T19:18:50.041,11.428981,-0.000000,0.011515,-0.000000,0.000000,-51.867142,17.844200,-0.000000,-0.000190,-0.000400,-0.006879,0.011206,-0.003358,-0.000791,-0.000029,0.001083,0.351568,0.627233,9.653470,0.000000,0.000000,0,0,,38.990217,-76.938745,-9.365000,,,
2026-09-11T19:18:50.075,11.462393,-0.000000,0.011515,-0.000000,0.000000,-51.867142,17.844200,-0.000000,-0.001778,-0.003743,-0.006948,0.011205,-0.003391,0.000579,0.001220,-0.002260,0.326561,0.665381,9.659452,0.000000,0.000000,0,0,,38.990217,-76.938745,-9.365000,,,
2026-09-11T19:18:50.108,11.495814,-0.000000,0.011515,-0.000000,0.000000,-51.867142,17.844200,-0.000000,-0.000059,-0.000124,-0.007013,0.011205,-0.003422,-0.001940,-0.000864,0.001360,0.280961,0.622526,9.635034,0.000000,0.000000,0,0,,38.990217,-76.938745,-9.365000,,,
2026-09-11T19:18:50.141,11.529226,-0.000000,0.011515,-0.000000,0.000000,-51.867142,17.844200,-0.000000,-0.000991,-0.002086,-0.007049,0.011205,-0.003439,-0.005494,0.000327,-0.000603,0.245068,0.618211,9.674653,0.000000,0.000000,0,0,,38.990217,-76.938745,-9.365000,,,
2026-09-11T19:18:50.175,11.562638,-0.000000,0.011515,-0.000000,0.000000,-51.756592,17.806167,-0.000000,-0.002322,-0.004889,-0.007166,0.011205,-0.003495,-0.003827,-0.000011,-0.003406,0.253110,0.599284,9.646311,0.000000,0.000000,0,0,,38.990217,-76.938745,-9.365000,,,
2026-09-11T19:18:50.209,11.596061,-0.000000,0.011515,-0.000000,0.000000,-51.756592,17.806167,-0.000000,-0.001466,-0.003086,-0.007299,0.011204,-0.003558,-0.001324,-0.000312,-0.001602,0.257719,0.614877,9.668278,0.000000,0.000000,0,0,,38.990217,-76.938745,-9.365000,,,
2026-09-11T19:18:50.242,11.629474,-0.000000,0.011515,-0.000000,0.000000,-51.626129,17.761283,-0.000000,-0.003333,-0.007017,-0.007468,0.011204,-0.003638,0.001362,0.000430,-0.005533,0.270860,0.599579,9.660923,0.000000,0.000000,0,0,,38.990217,-76.938745,-9.365000,,,
2026-09-11T19:18:50.275,11.662885,-0.000000,0.011515,-0.000000,0.000000,-51.282806,17.643167,-0.000000,-0.007702,-0.016215,-0.007856,0.011202,-0.003823,0.006478,-0.000645,-0.014732,0.278999,0.516810,9.702209,0.000000,0.000000,0,0,,38.990217,-76.938745,-9.365000,,,
2026-09-11T19:18:50.309,11.696303,-0.000000,0.011515,-0.000000,0.000000,-51.123505,17.588362,-0.000000,-0.005751,-0.012108,-0.008329,0.011200,-0.004047,0.008483,-0.001404,-0.010624,0.219963,0.719416,9.651607,0.000000,0.000000,0,0,,38.990217,-76.938745,-9.365000,,,
2026-09-11T19:18:50.342,11.729717,-0.000000,0.011515,-0.000000,0.000000,-50.036545,17.214408,-0.000000,-0.006636,-0.013970,-0.008765,0.011199,-0.004254,0.007176,-0.000246,-0.012486,0.237027,0.592027,9.685146,0.000000,0.000000,0,0,,38.990217,-76.938745,-9.365000,,,
2026-09-11T19:18:50.375,11.763130,-0.000000,0.011515,-0.000000,0.000000,-49.105453,16.894078,-0.000000,-0.007810,-0.016441,-0.009273,0.011196,-0.004496,0.010091,-0.001295,-0.014958,0.223886,0.682347,9.656118,0.000000,0.000000,0,0,,38.990217,-76.938745,-9.365000,,,
2026-09-11T19:18:50.410,11.796551,-0.000000,0.011515,-0.000000,0.000000,-48.573990,16.711235,-0.000000,-0.003922,-0.008258,-0.009686,0.011194,-0.004692,0.012017,-0.000110,-0.006774,0.249579,0.715984,9.602672,0.000000,0.000000,0,0,,38.990217,-76.938745,-9.365000,,,
2026-09-11T19:18:50.442,11.829967,-0.000000,0.011515,-0.000000,0.000000,-48.337097,16.629735,-0.000000,-0.004084,-0.008598,-0.009967,0.011193,-0.004825,0.008277,0.000961,-0.007115,0.270173,0.689211,9.685146,0.000000,0.000000,0,0,,38.990217,-76.938745,-9.365000,,,
2026-09-11T19:18:50.476,11.863380,-0.000000,0.011515,-0.000000,0.000000,-47.689590,16.406969,-0.000000,-0.003633,-0.007649,-0.010239,0.011192,-0.004954,-0.000389,0.000450,-0.006166,0.314597,0.633902,9.670534,0.000000,0.000000,0,0,,38.990217,-76.938745,-9.365000,,,
2026-09-11T19:18:50.509,11.896800,-0.000000,0.011515,-0.000000,0.000000,-46.389771,15.959783,-0.000000,-0.003718,-0.007828,-0.010498,0.011191,-0.005077,-0.011208,0.001302,-0.006344,0.394718,0.639099,9.672789,0.000000,0.000000,0,0,,38.990217,-76.938745,-9.365000,,,
2026-09-11T19:18:50.543,11.930212,-0.000000,0.011515,-0.000000,0.000000,-44.477463,15.301879,-0.000000,-0.005868,-0.012354,-0.010835,0.011189,-0.005237,-0.010178,-0.000053,-0.010870,0.398836,0.574866,9.658276,0.000000,0.000000,0,0,,38.990217,-76.938745,-9.365000,,,
2026-09-11T19:18:50.576,11.963632,-0.000000,0.011515,-0.000000,0.000000,-41.069641,14.129464,-0.000000,-0.006347,-0.013362,-0.011264,0.011187,-0.005441,-0.011791,-0.001000,-0.011879,0.379027,0.586732,9.668965,0.000000,0.000000,0,0,,38.990217,-76.938745,-9.365000,,,
2026-09-11T19:18:50.609,11.997053,-0.000000,0.011515,-0.000000,0.000000,-37.043839,12.744440,-0.000000,-0.009249,-0.019472,-0.011813,0.011184,-0.005702,-0.014728,-0.000841,-0.017988,0.334211,0.580358,9.686813,0.000000,0.000000,0,0,,38.990217,-76.938745,-9.365000,,,
2026-09-11T19:18:50.643,12.030465,-0.000000,0.011515,-0.000000,0.000000,-33.046875,11.369338,-0.000000,-0.010407,-0.021909,-0.012504,0.011180,-0.006030,-0.010844,-0.000352,-0.020426,0.255561,0.685681,9.652293,0.000000,0.000000,0,0,,38.990217,-76.938745,-9.365000,,,
2026-09-11T19:18:50.676,12.063878,-0.000000,0.011515,-0.000000,0.000000,-25.114059,8.640158,-0.000000,-0.009948,-0.020944,-0.013220,0.011175,-0.006370,-0.009964,-0.003786,-0.019460,0.146806,0.570551,9.678477,0.000000,0.000000,0,0,,38.990217,-76.938745,-9.365000,,,
2026-09-11T19:18:50.710,12.097300,-0.000000,0.011515,-0.000000,0.000000,-24.277725,8.352428,-0.000000,-0.011459,-0.024124,-0.013973,0.011170,-0.006728,-0.012081,0.000036,-0.022641,0.162790,0.652142,9.658374,0.000000,0.000000,0,0,,38.990217,-76.938745,-9.365000,,,
2026-09-11T19:18:50.743,12.130710,-0.000000,0.011515,-0.000000,0.000000,-21.412354,7.366635,-0.000000,-0.009708,-0.020438,-0.014718,0.011165,-0.007082,0.003102,-0.001163,-0.018955,0.098263,0.711080,9.673182,0.000000,0.000000,0,0,,38.990217,-76.938745,-9.365000,,,
2026-09-11T19:18:50.776,12.164124,-0.349875,0.002921,-3.239586,0.000000,-18.031311,6.203433,-0.347827,-0.008665,-0.018242,-0.015364,0.005350,-0.007299,0.004339,0.000016,-0.016758,0.154553,0.666754,9.718390,0.000000,0.000000,0,1,12.146051,38.990217,-76.938745,-9.361000,-0.060355,0.094701,3.226897
2026-09-11T19:18:50.810,12.197540,-0.167060,-0.003673,-1.546849,0.000000,-13.430786,4.620683,-0.166517,-0.009231,-0.019434,-0.015994,-0.003247,-0.007465,0.008601,0.002006,-0.017951,0.211235,0.706471,9.649940,0.000000,0.000000,0,0,,38.990217,-76.938745,-9.361000,,,
2026-09-11T19:18:50.843,12.230954,-0.032353,-0.003751,-0.299569,0.000000,-12.006683,4.130740,-0.032269,-0.008489,-0.017871,-0.016617,-0.006573,-0.007707,0.009515,0.001792,-0.016388,0.285864,0.621938,9.685734,0.000000,0.000000,0,0,,38.990217,-76.938745,-9.361000,,,
2026-09-11T19:18:50.877,12.264366,-0.000000,-0.003647,-0.000000,0.000000,-9.718094,3.343381,-0.000000,-0.007138,-0.015028,-0.017167,-0.007116,-0.007959,0.009376,-0.000120,-0.013545,0.295082,0.655378,9.653176,0.000000,0.000000,0,0,,38.990217,-76.938745,-9.361000,,,
2026-09-11T19:18:50.910,12.297788,-0.000000,-0.003647,-0.000000,0.000000,-6.860275,2.360186,-0.000000,-0.007152,-0.015056,-0.017669,-0.007120,-0.008198,0.010222,0.002342,-0.013573,0.382557,0.630764,9.627188,0.000000,0.000000,0,0,,38.990217,-76.938745,-9.361000,,,
2026-09-11T19:18:50.943,12.331201,-0.000000,-0.003647,-0.000000,0.000000,-0.518417,0.178355,-0.000000,-0.005862,-0.012342,-0.018127,-0.007124,-0.008415,0.005144,0.001040,-0.010858,0.417273,0.747659,9.609242,0.000000,0.000000,0,0,,38.990217,-76.938745,-9.361000,,,
2026-09-11T19:18:50.977,12.364612,-0.000000,-0.003647,-0.000000,0.000000,-0.451126,0.155204,-0.000000,-0.005277,-0.011109,-0.018519,-0.007127,-0.008601,-0.005058,0.000681,-0.009625,0.430022,0.740892,9.579136,0.000000,0.000000,0,0,,38.990217,-76.938745,-9.361000,,,
2026-09-11T19:18:51.011,12.398036,-0.000000,-0.003647,-0.000000,0.000000,0.230713,-0.079374,-0.000000,-0.004527,-0.009529,-0.018864,-0.007130,-0.008765,-0.007021,0.000005,-0.008046,0.366180,0.663224,9.574625,0.000000,0.000000,0,0,,38.990217,-76.938745,-9.361000,,,
2026-09-11T19:18:51.044,12.431454,-0.000000,-0.003647,-0.000000,0.000000,0.274658,-0.094493,-0.000000,-0.002376,-0.005003,-0.019106,-0.007133,-0.008881,-0.008421,-0.000544,-0.003519,0.298318,0.660576,9.655628,0.000000,0.000000,0,0,,38.990217,-76.938745,-9.361000,,,
2026-09-11T19:18:51.077,12.464868,-0.000000,-0.003647,-0.000000,0.000000,0.720291,-0.247807,-0.000000,-0.001151,-0.002422,-0.019230,-0.007134,-0.008939,-0.011353,0.000306,-0.000939,0.224376,0.725104,9.650136,0.000000,0.000000,0,0,,38.990217,-76.938745,-9.361000,,,
2026-09-11T19:18:51.111,12.498304,-0.000000,-0.003647,-0.000000,0.000000,0.773163,-0.265996,-0.000000,-0.000175,-0.000368,-0.019277,-0.007134,-0.008962,-0.006216,0.000904,0.001115,0.194956,0.608405,9.673084,0.000000,0.000000,0,0,,38.990217,-76.938745,-9.361000,,,
2026-09-11T19:18:51.144,12.531719,-0.000000,-0.003647,-0.000000,0.000000,0.802002,-0.275918,-0.000000,0.000085,0.000178,-0.019280,-0.007134,-0.008963,0.000325,0.001288,0.001662,0.221728,0.670088,9.683773,0.000000,0.000000,0,0,,38.990217,-76.938745,-9.361000,,,
2026-09-11T19:18:51.177,12.565132,-0.000000,-0.003647,-0.000000,0.000000,0.802002,-0.275918,-0.000000,0.000256,0.000539,-0.019268,-0.007134,-0.008957,0.000985,0.000193,0.002022,0.278117,0.613700,9.673770,0.000000,0.000000,0,0,,38.990217,-76.938745,-9.361000,,,
2026-09-11T19:18:51.211,12.598652,-0.000000,-0.003647,-0.000000,0.000000,0.802002,-0.275918,-0.000000,-0.000992,-0.002089,-0.019294,-0.007134,-0.008970,0.005904,0.000367,-0.000605,0.312048,0.624193,9.665042,0.000000,0.000000,0,0,,38.990217,-76.938745,-9.361000,,,
2026-09-11T19:18:51.245,12.632066,-0.000000,-0.003647,-0.000000,0.000000,0.802002,-0.275918,-0.000000,-0.000071,-0.000150,-0.019332,-0.007135,-0.008987,0.006561,0.000103,0.001333,0.305771,0.667539,9.664650,0.000000,0.000000,0,0,,38.990217,-76.938745,-9.361000,,,
2026-09-11T19:18:51.278,12.665479,-0.000000,-0.003647,-0.000000,0.000000,0.802002,-0.275918,-0.000000,-0.001597,-0.003362,-0.019390,-0.007135,-0.009015,0.003038,0.000528,-0.001879,0.288708,0.623213,9.654255,0.000000,0.000000,0,0,,38.990217,-76.938745,-9.361000,,,
2026-09-11T19:18:51.312,12.698903,-0.000000,-0.003647,-0.000000,0.000000,0.802002,-0.275918,-0.000000,-0.000288,-0.000607,-0.019457,-0.007136,-0.009047,0.006497,0.000943,0.000876,0.268506,0.682445,9.697404,0.000000,0.000000,0,0,,38.990217,-76.938745,-9.361000,,,
2026-09-11T19:18:51.345,12.732327,-0.000000,-0.003647,-0.000000,0.000000,0.802002,-0.275918,-0.000000,-0.000193,-0.000406,-0.019474,-0.007136,-0.009055,0.002943,0.000469,0.001077,0.268604,0.626351,9.658374,0.000000,0.000000,0,0,,38.990217,-76.938745,-9.361000,,,
2026-09-11T19:18:51.378,12.765740,-0.000000,-0.003647,-0.000000,0.000000,0.802002,-0.275918,-0.000000,-0.000625,-0.001316,-0.019502,-0.007136,-0.009069,-0.000850,0.001409,0.000168,0.276057,0.650671,9.697600,0.000000,0.000000,0,0,,38.990217,-76.938745,-9.361000,,,
2026-09-11T19:18:51.412,12.799165,-0.000000,-0.003647,-0.000000,0.000000,0.802002,-0.275918,-0.000000,-0.000153,-0.000323,-0.019530,-0.007137,-0.009082,0.004735,-0.000144,0.001161,0.280470,0.638021,9.652293,0.000000,0.000000,0,0,,38.990217,-76.938745,-9.361000,,,
2026-09-11T19:18:51.445,12.832582,-0.000000,-0.003647,-0.000000,0.000000,0.735397,-0.253004,-0.000000,-0.000452,-0.000951,-0.019551,-0.007137,-0.009092,0.002696,0.000049,0.000532,0.283804,0.651162,9.664748,0.000000,0.000000,0,0,,38.990217,-76.938745,-9.361000,,,
2026-09-11T19:18:51.478,12.865994,-0.000000,-0.003647,-0.000000,0.000000,0.735397,-0.253004,-0.000000,-0.000195,-0.000410,-0.019574,-0.007137,-0.009102,0.000115,0.001265,0.001074,0.289394,0.641649,9.670436,0.000000,0.000000,0,0,,38.990217,-76.938745,-9.361000,,,
2026-09-11T19:18:51.512,12.899417,-0.000000,-0.003647,-0.000000,0.000000,0.735397,-0.253004,-0.000000,-0.000093,-0.000195,-0.019584,-0.007137,-0.009107,0.001587,-0.001450,0.001289,0.281647,0.647925,9.673084,0.000000,0.000000,0,0,,38.990217,-76.938745,-9.361000,,,
2026-09-11T19:18:51.545,12.932834,-0.000000,-0.003647,-0.000000,0.000000,0.735397,-0.253004,-0.000000,-0.000654,-0.001377,-0.019610,-0.007137,-0.009120,0.001586,-0.001467,0.000107,0.268114,0.647533,9.670926,0.000000,0.000000,0,0,,38.990217,-76.938745,-9.361000,,,
2026-09-11T19:18:51.579,12.966247,-0.000000,-0.003647,-0.000000,0.000000,0.735397,-0.253004,-0.000000,-0.000988,-0.002079,-0.019668,-0.007138,-0.009147,-0.001021,0.001542,-0.000596,0.274096,0.626057,9.636897,0.000000,0.000000,0,0,,38.990217,-76.938745,-9.361000,,,
2026-09-11T19:18:51.612,12.999674,-0.000000,-0.003647,-0.000000,0.000000,0.735397,-0.253004,-0.000000,-0.000595,-0.001252,-0.019724,-0.007138,-0.009174,0.003882,-0.000263,0.000231,0.265564,0.660968,9.693972,0.000000,0.000000,0,0,,38.990217,-76.938745,-9.361000,,,
2026-09-11T19:18:51.645,13.033087,-0.000000,-0.003647,-0.000000,0.000000,0.735397,-0.253004,-0.000000,-0.000982,-0.002067,-0.019779,-0.007139,-0.009200,0.002453,-0.001451,-0.000584,0.273998,0.634588,9.649646,0.000000,0.000000,0,0,,38.990217,-76.938745,-9.361000,,,
2026-09-11T19:18:51.679,13.066502,-0.000000,-0.003647,-0.000000,0.000000,0.735397,-0.253004,-0.000000,-0.001414,-0.002978,-0.019863,-0.007140,-0.009240,0.000474,0.000355,-0.001494,0.284295,0.645180,9.669749,0.000000,0.000000,0,0,,38.990217,-76.938745,-9.361000,,,
2026-09-11T19:18:51.712,13.099926,-0.000000,-0.003647,-0.000000,0.000000,0.735397,-0.253004,-0.000000,-0.001237,-0.002604,-0.019957,-0.007141,-0.009284,0.001673,-0.001571,-0.001121,0.281941,0.642728,9.648861,0.000000,0.000000,0,0,,38.990217,-76.938745,-9.361000,,,
2026-09-11T19:18:51.746,13.133340,-0.000000,-0.003647,-0.000000,0.000000,0.735397,-0.253004,-0.000000,-0.000409,-0.000861,-0.020015,-0.007141,-0.009312,0.000671,-0.001395,0.000623,0.282628,0.632431,9.658766,0.000000,0.000000,0,0,,38.990217,-76.938745,-9.361000,,,
2026-09-11T19:18:51.779,13.166756,-0.000000,-0.003647,-0.000000,0.000000,0.735397,-0.253004,-0.000000,-0.001097,-0.002310,-0.020068,-0.007142,-0.009337,0.001419,0.001381,-0.000826,0.273606,0.665675,9.706328,0.000000,0.000000,0,1,13.149765,38.990218,-76.938744,-9.375000,-0.041485,0.109712,3.226897
2026-09-11T19:18:51.813,13.200174,-0.000000,-0.003647,-0.000000,0.000000,0.735397,-0.253004,-0.000000,-0.000819,-0.001723,-0.020135,-0.007142,-0.009369,0.001275,-0.001713,-0.000240,0.277626,0.648023,9.655334,0.000000,0.000000,0,0,,38.990218,-76.938744,-9.375000,,,
2026-09-11T19:18:51.846,13.233598,-0.000000,-0.003647,-0.000000,0.000000,0.735397,-0.253004,-0.000000,-0.000673,-0.001417,-0.020187,-0.007143,-0.009394,0.001338,-0.001118,0.000067,0.275077,0.666166,9.709368,0.000000,0.000000,0,0,,38.990218,-76.938744,-9.375000,,,
2026-09-11T19:18:51.879,13.267014,-0.000000,-0.003647,-0.000000,0.000000,0.735397,-0.253004,-0.000000,-0.000768,-0.001618,-0.020238,-0.007143,-0.009418,0.001885,0.000436,-0.000134,0.288217,0.632235,9.645723,0.000000,0.000000,0,0,,38.990218,-76.938744,-9.375000,,,
2026-09-11T19:18:51.913,13.300437,-0.000000,-0.003647,-0.000000,0.000000,0.735397,-0.253004,-0.000000,-0.000838,-0.001764,-0.020295,-0.007144,-0.009445,0.002843,-0.000608,-0.000281,0.272919,0.656163,9.688382,0.000000,0.000000,0,0,,38.990218,-76.938744,-9.375000,,,
2026-09-11T19:18:51.946,13.333852,-0.000000,-0.003647,-0.000000,0.000000,0.735397,-0.253004,-0.000000,-0.000642,-0.001351,-0.020347,-0.007144,-0.009469,0.001317,-0.001052,0.000133,0.272429,0.632137,9.636407,0.000000,0.000000,0,0,,38.990218,-76.938744,-9.375000,,,
2026-09-11T19:18:51.980,13.367265,-0.000000,-0.003647,-0.000000,0.000000,0.735397,-0.253004,-0.000000,-0.001520,-0.003200,-0.020423,-0.007145,-0.009506,0.002338,0.000494,-0.001716,0.276744,0.646160,9.680046,0.000000,0.000000,0,0,,38.990218,-76.938744,-9.375000,,,
2026-09-11T19:18:52.013,13.400691,-0.000000,-0.003647,-0.000000,0.000000,0.735397,-0.253004,-0.000000,-0.001352,-0.002847,-0.020524,-0.007146,-0.009554,0.001945,-0.000882,-0.001363,0.281059,0.644199,9.666807,0.000000,0.000000,0,0,,38.990218,-76.938744,-9.375000,,,
2026-09-11T19:18:52.046,13.434109,-0.000000,-0.003647,-0.000000,0.000000,0.735397,-0.253004,-0.000000,-0.001054,-0.002219,-0.020608,-0.007147,-0.009594,0.002704,0.000871,-0.000735,0.287335,0.633902,9.660531,0.000000,0.000000,0,0,,38.990218,-76.938744,-9.375000,,,
2026-09-11T19:18:52.080,13.467520,-0.000000,-0.003647,-0.000000,0.000000,0.735397,-0.253004,-0.000000,-0.000810,-0.001704,-0.020674,-0.007147,-0.009625,0.003383,0.000239,-0.000221,0.280568,0.656849,9.696816,0.000000,0.000000,0,0,,38.990218,-76.938744,-9.375000,,,
2026-09-11T19:18:52.114,13.500943,-0.000000,-0.003647,-0.000000,0.000000,0.735397,-0.253004,-0.000000,-0.000598,-0.001259,-0.020723,-0.007148,-0.009648,0.002616,-0.000989,0.000225,0.275273,0.654005,9.674653,0.000000,0.000000,0,0,,38.990218,-76.938744,-9.375000,,,
2026-09-11T19:18:52.147,13.534355,-0.000000,-0.003647,-0.000000,0.000000,0.735397,-0.253004,-0.000000,-0.000628,-0.001322,-0.020767,-0.007148,-0.009669,0.002903,0.002083,0.000162,0.280568,0.657634,9.689755,0.000000,0.000000,0,0,,38.990218,-76.938744,-9.375000,,,
2026-09-11T19:18:52.180,13.567772,-0.000000,-0.003647,-0.000000,0.000000,0.735397,-0.253004,-0.000000,-0.001039,-0.002186,-0.020825,-0.007149,-0.009697,0.005004,0.000023,-0.000703,0.281549,0.649691,9.664061,0.000000,0.000000,0,0,,38.990218,-76.938744,-9.375000,,,
2026-09-11T19:18:52.213,13.601196,-0.000000,-0.003647,-0.000000,0.000000,0.735397,-0.253004,-0.000000,-0.000435,-0.000916,-0.020877,-0.007149,-0.009721,0.001566,-0.000940,0.000568,0.273017,0.652044,9.664160,0.000000,0.000000,0,0,,38.990218,-76.938744,-9.375000,,,
2026-09-11T19:18:52.247,13.634609,-0.000000,-0.003647,-0.000000,0.000000,0.735397,-0.253004,-0.000000,-0.000822,-0.001730,-0.020921,-0.007150,-0.009742,0.003748,0.000862,-0.000246,0.278411,0.665872,9.687107,0.000000,0.000000,0,0,,38.990218,-76.938744,-9.375000,,,
2026-09-11T19:18:52.281,13.668152,-0.000000,-0.003647,-0.000000,0.000000,0.735397,-0.253004,-0.000000,-0.001029,-0.002167,-0.020987,-0.007151,-0.009773,0.003492,-0.000376,-0.000683,0.282333,0.639001,9.645037,0.000000,0.000000,0,0,,38.990218,-76.938744,-9.375000,,,
2026-09-11T19:18:52.315,13.701576,-0.000000,-0.003647,-0.000000,0.000000,0.735397,-0.253004,-0.000000,-0.000905,-0.001905,-0.021055,-0.007151,-0.009806,0.000209,-0.001287,-0.000421,0.271154,0.651064,9.642879,0.000000,0.000000,0,0,,38.990218,-76.938744,-9.375000,,,
2026-09-11T19:18:52.347,13.734988,-0.000000,-0.003647,-0.000000,0.000000,0.735397,-0.253004,-0.000000,-0.001658,-0.003490,-0.021145,-0.007152,-0.009848,0.001208,0.000611,-0.002007,0.281843,0.653417,9.661021,0.000000,0.000000,0,0,,38.990218,-76.938744,-9.375000,,,
2026-09-11T19:18:52.381,13.768403,-0.000000,-0.003647,-0.000000,0.000000,0.735397,-0.253004,-0.000000,-0.000720,-0.001516,-0.021228,-0.007153,-0.009888,0.000689,-0.000443,-0.000032,0.281059,0.649396,9.669259,0.000000,0.000000,0,0,,38.990218,-76.938744,-9.375000,,,
2026-09-11T19:18:52.415,13.801828,-0.000000,-0.003647,-0.000000,0.000000,0.735397,-0.253004,-0.000000,-0.000625,-0.001316,-0.021276,-0.007153,-0.009911,-0.001093,-0.000162,0.000168,0.286158,0.663322,9.677791,0.000000,0.000000,0,0,,38.990218,-76.938744,-9.375000,,,
2026-09-11T19:18:52.448,13.835246,-0.000000,-0.003647,-0.000000,0.000000,0.735397,-0.253004,-0.000000,-0.000929,-0.001956,-0.021330,-0.007154,-0.009937,-0.000688,-0.000131,-0.000472,0.276940,0.635569,9.648077,0.000000,0.000000,0,0,,38.990218,-76.938744,-9.375000,,,
2026-09-11T19:18:52.481,13.868659,-0.000000,-0.003647,-0.000000,0.000000,0.735397,-0.253004,-0.000000,-0.000186,-0.000392,-0.021370,-0.007154,-0.009955,0.000058,-0.000987,0.001092,0.269781,0.667735,9.679654,0.000000,0.000000,0,0,,38.990218,-76.938744,-9.375000,,,
2026-09-11T19:18:52.514,13.902082,-0.000000,-0.003647,-0.000000,0.000000,0.735397,-0.253004,-0.000000,-0.000471,-0.000991,-0.021393,-0.007155,-0.009966,-0.004219,-0.001226,0.000493,0.274978,0.637825,9.639643,0.000000,0.000000,0,0,,38.990218,-76.938744,-9.375000,,,
2026-09-11T19:18:52.548,13.935510,-0.000000,-0.003647,-0.000000,0.000000,0.735397,-0.253004,-0.000000,-0.000597,-0.001257,-0.021430,-0.007155,-0.009984,-0.000587,-0.000066,0.000227,0.279784,0.655673,9.687009,0.000000,0.000000,0,0,,38.990218,-76.938744,-9.375000,,,
2026-09-11T19:18:52.581,13.968924,-0.000000,-0.003647,-0.000000,0.000000,0.735397,-0.253004,-0.000000,-0.000691,-0.001455,-0.021476,-0.007156,-0.010006,0.001105,-0.000194,0.000028,0.284099,0.638217,9.655334,0.000000,0.000000,0,0,,38.990218,-76.938744,-9.375000,,,
2026-09-11T19:18:52.615,14.002347,-0.000000,-0.003647,-0.000000,0.000000,0.735397,-0.253004,-0.000000,-0.000885,-0.001862,-0.021531,-0.007156,-0.010032,-0.001188,-0.000470,-0.000379,0.280470,0.650181,9.681517,0.000000,0.000000,0,0,,38.990218,-76.938744,-9.375000,,,
2026-09-11T19:18:52.648,14.035763,-0.000000,-0.003647,-0.000000,0.000000,0.735397,-0.253004,-0.000000,-0.000795,-0.001674,-0.021590,-0.007157,-0.010060,0.002562,-0.000877,-0.000190,0.272919,0.661262,9.679654,0.000000,0.000000,0,0,,38.990218,-76.938744,-9.375000,,,
2026-09-11T19:18:52.682,14.069178,-0.000000,-0.003647,-0.000000,0.000000,0.735397,-0.253004,-0.000000,-0.000849,-0.001787,-0.021648,-0.007157,-0.010087,0.001426,0.000011,-0.000304,0.268898,0.640374,9.650626,0.000000,0.000000,0,0,,38.990218,-76.938744,-9.375000,,,
2026-09-11T19:18:52.715,14.102600,-0.000000,-0.003647,-0.000000,0.000000,0.735397,-0.253004,-0.000000,-0.001201,-0.002528,-0.021720,-0.007158,-0.010122,0.001232,0.000254,-0.001045,0.277038,0.661164,9.668867,0.000000,0.000000,0,0,,38.990218,-76.938744,-9.375000,,,
2026-09-11T19:18:52.749,14.136018,-0.000000,-0.003647,-0.000000,0.000000,0.735397,-0.253004,-0.000000,-0.000723,-0.001523,-0.021788,-0.007159,-0.010154,-0.000349,-0.000194,-0.000039,0.282628,0.638707,9.653568,0.000000,0.000000,0,0,,38.990218,-76.938744,-9.375000,,,
2026-09-11T19:18:52.782,14.169431,-0.000000,-0.003647,-0.000000,0.000000,0.735397,-0.253004,-0.000000,-0.000941,-0.001981,-0.021846,-0.007159,-0.010182,0.000996,-0.001054,-0.000497,0.281745,0.658615,9.686519,0.000000,0.000000,0,1,14.148103,38.990218,-76.938744,-9.403000,-0.025640,0.108971,3.226368
2026-09-11T19:18:52.816,14.202855,-0.000000,-0.003647,-0.000000,0.000000,0.735397,-0.253004,-0.000000,-0.001372,-0.002888,-0.021928,-0.007160,-0.010220,-0.002912,0.000237,-0.001404,0.285570,0.640668,9.647782,0.000000,0.000000,0,0,,38.990218,-76.938744,-9.403000,,,
2026-09-11T19:18:52.849,14.236272,-0.000000,-0.003647,-0.000000,0.000000,0.735397,-0.253004,-0.000000,-0.000659,-0.001388,-0.021999,-0.007161,-0.010254,0.000956,-0.000461,0.000095,0.285275,0.647631,9.669749,0.000000,0.000000,0,0,,38.990218,-76.938744,-9.403000,,,
2026-09-11T19:18:52.882,14.269686,-0.000000,-0.003647,-0.000000,0.000000,0.735397,-0.253004,-0.000000,-0.000268,-0.000564,-0.022032,-0.007161,-0.010270,-0.000247,-0.001432,0.000920,0.275763,0.637236,9.654647,0.000000,0.000000,0,0,,38.990218,-76.938744,-9.403000,,,
2026-09-11T19:18:52.916,14.303109,-0.000000,-0.003647,-0.000000,0.000000,0.735397,-0.253004,-0.000000,-0.001131,-0.002381,-0.022081,-0.007162,-0.010293,-0.001460,0.001051,-0.000897,0.273017,0.650279,9.675829,0.000000,0.000000,0,0,,38.990218,-76.938744,-9.403000,,,
2026-09-11T19:18:52.949,14.336523,-0.000000,-0.003647,-0.000000,0.000000,0.735397,-0.253004,-0.000000,0.000102,0.000214,-0.022117,-0.007162,-0.010310,0.000556,-0.001070,0.001697,0.273311,0.650965,9.685342,0.000000,0.000000,0,0,,38.990218,-76.938744,-9.403000,,,
2026-09-11T19:18:52.982,14.369936,-0.000000,-0.003647,-0.000000,0.000000,0.735397,-0.253004,-0.000000,-0.000277,-0.000583,-0.022123,-0.007162,-0.010313,0.001097,-0.001610,0.000901,0.274684,0.649200,9.671907,0.000000,0.000000,0,0,,38.990218,-76.938744,-9.403000,,,
2026-09-11T19:18:53.016,14.403358,-0.000000,-0.003647,-0.000000,0.000000,0.735397,-0.253004,-0.000000,-0.000253,-0.000534,-0.022142,-0.007162,-0.010322,0.001026,0.000463,0.000950,0.277626,0.649985,9.659845,0.000000,0.000000,0,0,,38.990218,-76.938744,-9.403000,,,
2026-09-11T19:18:53.049,14.436772,-0.000000,-0.003647,-0.000000,0.000000,0.735397,-0.253004,-0.000000,-0.001026,-0.002160,-0.022187,-0.007163,-0.010343,0.002848,-0.001533,-0.000677,0.280078,0.633804,9.637878,0.000000,0.000000,0,0,,38.990218,-76.938744,-9.403000,,,
2026-09-11T19:18:53.083,14.470187,-0.000000,-0.003647,-0.000000,0.000000,0.735397,-0.253004,-0.000000,-0.000867,-0.001826,-0.022253,-0.007164,-0.010375,0.000849,-0.001300,-0.000343,0.282235,0.646945,9.658570,0.000000,0.000000,0,0,,38.990218,-76.938744,-9.403000,,,
2026-09-11T19:18:53.117,14.503612,-0.000000,-0.003647,-0.000000,0.000000,0.735397,-0.253004,-0.000000,-0.001066,-0.002243,-0.022322,-0.007164,-0.010407,0.002880,0.000807,-0.000760,0.283510,0.660674,9.684557,0.000000,0.000000,0,0,,38.990218,-76.938744,-9.403000,,,
2026-09-11T19:18:53.149,14.537031,-0.000000,-0.003647,-0.000000,0.000000,0.735397,-0.253004,-0.000000,-0.000527,-0.001108,-0.022378,-0.007165,-0.010434,0.001233,-0.001032,0.000375,0.283216,0.645474,9.663571,0.000000,0.000000,0,0,,38.990218,-76.938744,-9.403000,,,
2026-09-11T19:18:53.183,14.570447,-0.000000,-0.003647,-0.000000,0.000000,0.735397,-0.253004,-0.000000,-0.000704,-0.001481,-0.022421,-0.007165,-0.010454,-0.000354,-0.001319,0.000002,0.278607,0.652240,9.661610,0.000000,0.000000,0,0,,38.990218,-76.938744,-9.403000,,,
2026-09-11T19:18:53.217,14.603867,-0.000000,-0.003647,-0.000000,0.000000,0.735397,-0.253004,-0.000000,-0.000678,-0.001428,-0.022469,-0.007166,-0.010478,0.002212,-0.000641,0.000056,0.274194,0.643022,9.664160,0.000000,0.000000,0,0,,38.990218,-76.938744,-9.403000,,,
2026-09-11T19:18:53.250,14.637282,-0.000000,-0.003647,-0.000000,0.000000,0.735397,-0.253004,-0.000000,-0.001109,-0.002334,-0.022532,-0.007167,-0.010507,0.001310,-0.000342,-0.000850,0.273802,0.669206,9.697894,0.000000,0.000000,0,0,,38.990218,-76.938744,-9.403000,,,
2026-09-11T19:18:53.283,14.670697,-0.000000,-0.003647,-0.000000,0.000000,0.735397,-0.253004,-0.000000,-0.000555,-0.001168,-0.022591,-0.007167,-0.010535,-0.000938,-0.001639,0.000316,0.276155,0.647043,9.659060,0.000000,0.000000,0,0,,38.990218,-76.938744,-9.403000,,,
2026-09-11T19:18:53.317,14.704117,-0.000000,-0.003647,-0.000000,0.000000,0.735397,-0.253004,-0.000000,-0.000867,-0.001826,-0.022641,-0.007168,-0.010559,0.002533,-0.000568,-0.000342,0.281843,0.653221,9.662590,0.000000,0.000000,0,0,,38.990218,-76.938744,-9.403000,,,
2026-09-11T19:18:53.350,14.737532,-0.000000,-0.003647,-0.000000,0.000000,0.735397,-0.253004,-0.000000,-0.000698,-0.001470,-0.022696,-0.007168,-0.010585,0.002084,-0.000974,0.000013,0.287727,0.630175,9.653764,0.000000,0.000000,0,0,,38.990218,-76.938744,-9.403000,,,
2026-09-11T19:18:53.383,14.770943,-0.000000,-0.003647,-0.000000,0.000000,0.735397,-0.253004,-0.000000,-0.001156,-0.002434,-0.022761,-0.007169,-0.010616,0.000523,-0.000839,-0.000950,0.273311,0.644787,9.649646,0.000000,0.000000,0,0,,38.990218,-76.938744,-9.403000,,,
2026-09-11T19:18:53.417,14.804364,-0.000000,-0.003647,-0.000000,0.000000,0.735397,-0.253004,-0.000000,-0.001194,-0.002513,-0.022844,-0.007170,-0.010655,0.004744,-0.000686,-0.001029,0.272919,0.666950,9.684165,0.000000,0.000000,0,0,,38.990218,-76.938744,-9.403000,,,
2026-09-11T19:18:53.450,14.837780,-0.000000,-0.003647,-0.000000,0.000000,0.735397,-0.253004,-0.000000,-0.000825,-0.001736,-0.022915,-0.007171,-0.010689,0.000795,-0.000440,-0.000253,0.277528,0.636255,9.660825,0.000000,0.000000,0,0,,38.990218,-76.938744,-9.403000,,,
2026-09-11T19:18:53.484,14.871194,-0.000000,-0.003647,-0.000000,0.000000,0.735397,-0.253004,-0.000000,-0.001333,-0.002806,-0.022991,-0.007172,-0.010725,-0.000884,0.000091,-0.001323,0.271448,0.660968,9.677889,0.000000,0.000000,0,0,,38.990218,-76.938744,-9.403000,,,
2026-09-11T19:18:53.518,14.904615,-0.000000,-0.003647,-0.000000,0.000000,0.735397,-0.253004,-0.000000,-0.000855,-0.001800,-0.023068,-0.007172,-0.010762,0.000663,-0.000552,-0.000317,0.282235,0.632431,9.676516,0.000000,0.000000,0,0,,38.990218,-76.938744,-9.403000,,,
2026-09-11T19:18:53.551,14.938029,-0.000000,-0.003647,-0.000000,0.000000,0.735397,-0.253004,-0.000000,-0.000650,-0.001368,-0.023120,-0.007173,-0.010787,-0.002266,-0.001371,0.000116,0.281843,0.655476,9.662296,0.000000,0.000000,0,0,,38.990218,-76.938744,-9.403000,,,
2026-09-11T19:18:53.584,14.971442,-0.000000,-0.003647,-0.000000,0.000000,0.735397,-0.253004,-0.000000,-0.001004,-0.002114,-0.023179,-0.007174,-0.010814,-0.005118,0.000200,-0.000630,0.278999,0.663420,9.668082,0.000000,0.000000,0,0,,38.990218,-76.938744,-9.403000,,,
2026-09-11T19:18:53.618,15.004866,-0.000000,-0.003647,-0.000000,0.000000,0.735397,-0.253004,-0.000000,-0.000454,-0.000956,-0.023230,-0.007174,-0.010839,-0.003622,-0.001393,0.000528,0.285177,0.658320,9.689265,0.000000,0.000000,0,0,,38.990218,-76.938744,-9.403000,,,
2026-09-11T19:18:53.651,15.038286,-0.000000,-0.003647,-0.000000,0.000000,0.735397,-0.253004,-0.000000,-0.000836,-0.001760,-0.023275,-0.007175,-0.010860,0.004079,-0.000876,-0.000276,0.251541,0.468366,9.666023,0.000000,0.000000,0,0,,38.990218,-76.938744,-9.403000,,,
