timestamp,time_s,speed_mps,distance_m,wheel_omega_rad_s,motor_current_A,steer_motor_deg,steer_column_deg,vx_mps,vy_mps,yaw_rate_rad_s,heading_rad,x_m,y_m,gyro_x_rad_s,gyro_y_rad_s,gyro_z_rad_s,accel_x_mps2,accel_y_mps2,accel_z_mps2,grade_deg,bank_deg,moving,gps_new_fix,gps_time_s,gps_latitude_deg,gps_longitude_deg,gps_altitude_m,gps_east_m,gps_north_m,gps_sigma_m
2026-09-11T19:02:19.050,0.000007,-0.000000,-0.000000,-0.000000,0.000000,0.000000,-0.000000,-0.000000,-0.000258,-0.000544,0.000000,0.000000,0.000000,-0.000553,0.000171,0.000939,0.636059,0.617917,9.671907,0.000000,0.000000,0,0,,,,,,,
2026-09-11T19:02:19.084,0.033411,-0.000000,-0.000000,-0.000000,0.000000,0.000000,-0.000000,-0.000000,-0.001360,-0.002864,-0.000057,-0.000000,-0.000027,-0.000415,0.001243,-0.001380,0.637530,0.618898,9.675731,0.000000,0.000000,0,0,,,,,,,
2026-09-11T19:02:19.118,0.066826,-0.000000,-0.000000,-0.000000,0.000000,0.000000,-0.000000,-0.000000,0.000293,0.000616,-0.000094,-0.000000,-0.000045,-0.002384,-0.001053,0.002100,0.635863,0.622624,9.684459,0.000000,0.000000,0,0,,,,,,,
2026-09-11T19:02:19.151,0.100236,-0.000000,-0.000000,-0.000000,0.000000,0.000000,-0.000000,-0.000000,-0.001777,-0.003741,-0.000147,-0.000000,-0.000070,-0.000421,0.000386,-0.002258,0.636550,0.617721,9.675241,0.000000,0.000000,0,0,,,,,,,
2026-09-11T19:02:19.184,0.133643,-0.000000,-0.000000,-0.000000,0.000000,0.000000,-0.000000,-0.000000,-0.000867,-0.001826,-0.000240,-0.000000,-0.000114,0.000505,0.001385,-0.000342,0.636354,0.620663,9.674457,0.000000,0.000000,0,1,0.116164,38.990238,-76.940177,-9.802000,0.000000,0.000000,5.114733
2026-09-11T19:02:19.218,0.167055,-0.000000,-0.000000,-0.000000,0.000000,0.000000,-0.000000,-0.000000,0.000181,0.000381,-0.000264,-0.000000,-0.000125,-0.004453,-0.001370,0.001865,0.637334,0.620957,9.675143,0.000000,0.000000,0,0,,38.990238,-76.940177,-9.802000,,,
2026-09-11T19:02:19.253,0.200463,-0.000000,-0.000000,-0.000000,0.000000,0.000000,-0.000000,-0.000000,-0.001420,-0.002990,-0.000307,-0.000000,-0.000146,0.000734,0.000665,-0.001507,0.635569,0.620467,9.669455,0.000000,0.000000,0,0,,38.990238,-76.940177,-9.802000,,,
2026-09-11T19:02:19.284,0.233869,-0.000000,-0.000000,-0.000000,0.000000,0.000000,-0.000000,-0.000000,-0.001526,-0.003212,-0.000411,-0.000000,-0.000195,0.000887,0.000448,-0.001728,0.635569,0.620173,9.677497,0.000000,0.000000,0,0,,38.990238,-76.940177,-9.802000,,,
2026-09-11T19:02:19.318,0.267277,-0.000000,-0.000000,-0.000000,0.000000,0.000000,-0.000000,-0.000000,-0.001445,-0.003042,-0.000515,-0.000000,-0.000245,-0.001906,0.000559,-0.001558,0.636550,0.619682,9.673476,0.000000,0.000000,0,0,,38.990238,-76.940177,-9.802000,,,
2026-09-11T19:02:19.352,0.300679,-0.000000,-0.000000,-0.000000,0.000000,0.000000,-0.000000,-0.000000,-0.001325,-0.002790,-0.000613,-0.000000,-0.000291,0.002120,0.000972,-0.001306,0.636550,0.623213,9.675731,0.000000,0.000000,0,0,,38.990238,-76.940177,-9.802000,,,
2026-09-11T19:02:19.386,0.334097,-0.000000,-0.000000,-0.000000,0.000000,0.000000,-0.000000,-0.000000,-0.001112,-0.002341,-0.000699,-0.000000,-0.000332,0.002821,0.000252,-0.000857,0.638903,0.617721,9.661904,0.000000,0.000000,0,0,,38.990238,-76.940177,-9.802000,,,
2026-09-11T19:02:19.418,0.367506,-0.000000,-0.000000,-0.000000,0.000000,0.000000,-0.000000,-0.000000,-0.000244,-0.000514,-0.000746,-0.000000,-0.000354,0.000558,0.001005,0.000970,0.635373,0.623899,9.678183,0.000000,0.000000,0,0,,38.990238,-76.940177,-9.802000,,,
2026-09-11T19:02:19.451,0.400911,-0.000000,-0.000000,-0.000000,0.000000,0.000000,-0.000000,-0.000000,-0.002127,-0.004477,-0.000830,-0.000000,-0.000394,0.000598,0.000493,-0.002993,0.637040,0.619976,9.670240,0.000000,0.000000,0,0,,38.990238,-76.940177,-9.802000,,,
2026-09-11T19:02:19.486,0.434318,-0.000000,-0.000000,-0.000000,0.000000,0.000000,-0.000000,-0.000000,-0.001237,-0.002604,-0.000948,-0.000000,-0.000450,0.001215,-0.000124,-0.001121,0.637726,0.619682,9.672397,0.000000,0.000000,0,0,,38.990238,-76.940177,-9.802000,,,
2026-09-11T19:02:19.520,0.467734,-0.000000,-0.000000,-0.000000,0.000000,0.000000,-0.000000,-0.000000,-0.000502,-0.001058,-0.001009,-0.000000,-0.000479,0.000286,0.000804,0.000426,0.638413,0.618211,9.664650,0.000000,0.000000,0,0,,38.990238,-76.940177,-9.802000,,,
2026-09-11T19:02:19.552,0.501151,-0.000000,-0.000000,-0.000000,0.000000,0.000000,-0.000000,-0.000000,0.000352,0.000740,-0.001014,-0.000000,-0.000482,0.001563,0.000132,0.002224,0.635373,0.625468,9.680929,0.000000,0.000000,0,0,,38.990238,-76.940177,-9.802000,,,
2026-09-11T19:02:19.585,0.534556,-0.000000,-0.000000,-0.000000,0.000000,0.000000,-0.000000,-0.000000,0.000544,0.001145,-0.000983,-0.000000,-0.000467,-0.001075,-0.001080,0.002629,0.636648,0.627135,9.677497,0.000000,0.000000,0,0,,38.990238,-76.940177,-9.802000,,,
2026-09-11T19:02:19.619,0.567967,-0.000000,-0.000000,-0.000000,0.000000,0.000000,-0.000000,-0.000000,-0.001413,-0.002974,-0.001013,-0.000000,-0.000481,0.001192,0.001003,-0.001490,0.634883,0.622722,9.679752,0.000000,0.000000,0,0,,38.990238,-76.940177,-9.802000,,,
2026-09-11T19:02:19.653,0.601370,-0.000000,-0.000000,-0.000000,0.000000,0.000000,-0.000000,-0.000000,-0.000464,-0.000977,-0.001079,-0.000000,-0.000513,-0.001115,-0.001181,0.000506,0.636550,0.620663,9.675928,0.000000,0.000000,0,0,,38.990238,-76.940177,-9.802000,,,
2026-09-11T19:02:19.687,0.634782,-0.000000,-0.000000,-0.000000,0.000000,0.000000,-0.000000,-0.000000,-0.001062,-0.002236,-0.001133,-0.000000,-0.000538,0.001729,0.001427,-0.000753,0.638315,0.621153,9.684165,0.000000,0.000000,0,0,,38.990238,-76.940177,-9.802000,,,
2026-09-11T19:02:19.720,0.668193,-0.000000,-0.000000,-0.000000,0.000000,0.000000,-0.000000,-0.000000,-0.001300,-0.002737,-0.001216,-0.000000,-0.000578,0.001362,0.000188,-0.001254,0.636942,0.617917,9.664454,0.000000,0.000000,0,0,,38.990238,-76.940177,-9.802000,,,
2026-09-11T19:02:19.752,0.701592,-0.000000,-0.000000,-0.000000,0.000000,0.000000,-0.000000,-0.000000,-0.001340,-0.002821,-0.001309,-0.000000,-0.000622,-0.000591,-0.000349,-0.001337,0.636942,0.612720,9.659747,0.000000,0.000000,0,0,,38.990238,-76.940177,-9.802000,,,
2026-09-11T19:02:19.786,0.734999,-0.000000,-0.000000,-0.000000,0.000000,0.000000,-0.000000,-0.000000,-0.000398,-0.000838,-0.001370,-0.000000,-0.000651,-0.001607,-0.000461,0.000646,0.637040,0.615465,9.678183,0.000000,0.000000,0,0,,38.990238,-76.940177,-9.802000,,,
2026-09-11T19:02:19.820,0.768409,-0.000000,-0.000000,-0.000000,0.000000,0.000000,-0.000000,-0.000000,-0.000495,-0.001043,-0.001402,-0.000000,-0.000666,0.002258,-0.000159,0.000441,0.633117,0.618211,9.674260,0.000000,0.000000,0,0,,38.990238,-76.940177,-9.802000,,,
2026-09-11T19:02:19.854,0.801813,-0.000000,-0.000000,-0.000000,0.000000,0.000000,-0.000000,-0.000000,-0.000457,-0.000961,-0.001435,-0.000000,-0.000682,-0.000697,-0.001219,0.000522,0.632333,0.621251,9.670534,0.000000,0.000000,0,0,,38.990238,-76.940177,-9.802000,,,
2026-09-11T19:02:19.887,0.835236,-0.000000,-0.000000,-0.000000,0.000000,0.000000,-0.000000,-0.000000,0.000041,0.000087,-0.001450,-0.000000,-0.000689,0.002891,0.000199,0.001571,0.636255,0.615956,9.669455,0.000000,0.000000,0,0,,38.990238,-76.940177,-9.802000,,,
2026-09-11T19:02:19.919,0.868645,-0.000000,-0.000000,-0.000000,0.000000,0.000000,-0.000000,-0.000000,-0.000015,-0.000032,-0.001449,-0.000000,-0.000688,0.000198,-0.000967,0.001452,0.633313,0.620173,9.673476,0.000000,0.000000,0,0,,38.990238,-76.940177,-9.802000,,,
2026-09-11T19:02:19.953,0.902049,-0.000000,-0.000000,-0.000000,0.000000,0.000000,-0.000000,-0.000000,-0.001162,-0.002447,-0.001490,-0.000001,-0.000708,-0.000577,0.000775,-0.000963,0.636550,0.620957,9.680439,0.000000,0.000000,0,0,,38.990238,-76.940177,-9.802000,,,
2026-09-11T19:02:19.987,0.935457,-0.000000,-0.000000,-0.000000,0.000000,0.000000,-0.000000,-0.000000,0.000266,0.000560,-0.001522,-0.000001,-0.000723,0.000122,-0.000949,0.002044,0.634883,0.624389,9.685244,0.000000,0.000000,0,0,,38.990238,-76.940177,-9.802000,,,
2026-09-11T19:02:20.021,0.968878,-0.000000,-0.000000,-0.000000,0.000000,0.000000,-0.000000,-0.000000,-0.001259,-0.002650,-0.001556,-0.000001,-0.000739,0.001162,-0.001140,-0.001166,0.635373,0.619682,9.680733,0.000000,0.000000,0,0,,38.990238,-76.940177,-9.802000,,,
2026-09-11T19:02:20.054,1.002289,-0.000000,-0.000000,-0.000000,0.000000,0.000000,-0.000000,-0.000000,-0.000335,-0.000705,-0.001613,-0.000001,-0.000766,-0.001615,0.000332,0.000779,0.635863,0.621153,9.676418,0.000000,0.000000,0,0,,38.990238,-76.940177,-9.802000,,,
2026-09-11T19:02:20.086,1.035696,-0.000000,-0.000000,-0.000000,0.000000,0.000000,-0.000000,-0.000000,-0.000976,-0.002055,-0.001659,-0.000001,-0.000788,0.001191,0.000778,-0.000572,0.636354,0.612523,9.654451,0.000000,0.000000,0,0,,38.990238,-76.940177,-9.802000,,,
2026-09-11T19:02:20.120,1.069105,-0.000000,-0.000000,-0.000000,0.000000,0.000000,-0.000000,-0.000000,-0.000258,-0.000543,-0.001702,-0.000001,-0.000808,-0.002487,-0.001645,0.000940,0.635961,0.616740,9.662689,0.000000,0.000000,0,0,,38.990238,-76.940177,-9.802000,,,
2026-09-11T19:02:20.153,1.102508,-0.000000,-0.000000,-0.000000,0.000000,0.000000,-0.000000,-0.000000,-0.001016,-0.002139,-0.001747,-0.000001,-0.000830,0.000964,0.001194,-0.000655,0.636452,0.615465,9.668474,0.000000,0.000000,0,0,,38.990238,-76.940177,-9.802000,,,
2026-09-11T19:02:20.188,1.135917,-0.000000,-0.000000,-0.000000,0.000000,0.000000,-0.000000,-0.000000,-0.000944,-0.001988,-0.001816,-0.000001,-0.000862,-0.000607,0.000420,-0.000504,0.637040,0.616446,9.673966,0.000000,0.000000,0,1,1.137047,38.990237,-76.940177,-9.822000,-0.003313,-0.004818,5.113763
2026-09-11T19:02:20.221,1.169342,-0.000000,-0.000000,-0.000000,0.000000,0.000000,-0.000000,-0.000000,-0.000497,-0.001046,-0.001866,-0.000001,-0.000887,-0.002483,-0.001025,0.000438,0.636255,0.616446,9.667984,0.000000,0.000000,0,0,,38.990237,-76.940177,-9.822000,,,
2026-09-11T19:02:20.253,1.202742,-0.000000,-0.000000,-0.000000,0.000000,0.000000,-0.000000,-0.000000,-0.000657,-0.001383,-0.001907,-0.000001,-0.000906,0.001726,0.001269,0.000101,0.637432,0.614190,9.666415,0.000000,0.000000,0,0,,38.990237,-76.940177,-9.822000,,,
2026-09-11T19:02:20.287,1.236145,-0.000000,-0.000000,-0.000000,0.000000,0.000000,-0.000000,-0.000000,-0.001038,-0.002186,-0.001967,-0.000001,-0.000934,0.001287,0.001641,-0.000702,0.634098,0.622232,9.680242,0.000000,0.000000,0,0,,38.990237,-76.940177,-9.822000,,,
2026-09-11T19:02:20.321,1.269556,-0.000000,-0.000000,-0.000000,0.000000,0.000000,-0.000000,-0.000000,-0.000609,-0.001281,-0.002024,-0.000001,-0.000962,-0.001073,0.000145,0.000202,0.637236,0.616936,9.671711,0.000000,0.000000,0,0,,38.990237,-76.940177,-9.822000,,,
2026-09-11T19:02:20.355,1.302966,-0.000000,-0.000000,-0.000000,0.000000,0.000000,-0.000000,-0.000000,-0.001717,-0.003615,-0.002106,-0.000001,-0.001000,0.001686,0.001013,-0.002132,0.635079,0.622428,9.677987,0.000000,0.000000,0,0,,38.990237,-76.940177,-9.822000,,,
2026-09-11T19:02:20.387,1.336381,-0.000000,-0.000000,-0.000000,0.000000,0.000000,-0.000000,-0.000000,0.000075,0.000158,-0.002164,-0.000001,-0.001028,-0.000812,-0.000807,0.001641,0.639982,0.615661,9.674947,0.000000,0.000000,0,0,,38.990237,-76.940177,-9.822000,,,
2026-09-11T19:02:20.420,1.369795,-0.000000,-0.000000,-0.000000,0.000000,0.000000,-0.000000,-0.000000,-0.000888,-0.001870,-0.002193,-0.000001,-0.001042,-0.001159,0.000742,-0.000386,0.637040,0.619976,9.668474,0.000000,0.000000,0,0,,38.990237,-76.940177,-9.822000,,,
2026-09-11T19:02:20.454,1.403197,-0.000000,-0.000000,-0.000000,0.000000,0.000000,-0.000000,-0.000000,-0.001082,-0.002279,-0.002262,-0.000001,-0.001074,0.003065,0.000234,-0.000795,0.636255,0.616642,9.678183,0.000000,0.000000,0,0,,38.990237,-76.940177,-9.822000,,,
2026-09-11T19:02:20.488,1.436607,-0.000000,-0.000000,-0.000000,0.000000,0.000000,-0.000000,-0.000000,-0.000940,-0.001979,-0.002333,-0.000001,-0.001108,0.000380,0.000677,-0.000495,0.633313,0.619192,9.672986,0.000000,0.000000,0,0,,38.990237,-76.940177,-9.822000,,,
2026-09-11T19:02:20.522,1.470033,-0.000000,-0.000000,-0.000000,0.000000,0.000000,-0.000000,-0.000000,-0.000651,-0.001370,-0.002389,-0.000001,-0.001135,0.000759,0.001210,0.000114,0.635569,0.619976,9.678673,0.000000,0.000000,0,0,,38.990237,-76.940177,-9.822000,,,
2026-09-11T19:02:20.554,1.503450,-0.000000,-0.000000,-0.000000,0.000000,0.000000,-0.000000,-0.000000,-0.000050,-0.000105,-0.002414,-0.000001,-0.001146,0.000830,-0.000626,0.001378,0.636746,0.620467,9.669455,0.000000,0.000000,0,0,,38.990237,-76.940177,-9.822000,,,
2026-09-11T19:02:20.587,1.536862,-0.000000,-0.000000,-0.000000,0.000000,0.000000,-0.000000,-0.000000,-0.000287,-0.000604,-0.002426,-0.000001,-0.001152,-0.001279,-0.001583,0.000880,0.636550,0.617427,9.667690,0.000000,0.000000,0,0,,38.990237,-76.940177,-9.822000,,,
2026-09-11T19:02:20.621,1.570273,-0.000000,-0.000000,-0.000000,0.000000,0.000000,-0.000000,-0.000000,-0.001466,-0.003085,-0.002487,-0.000001,-0.001181,0.001344,0.001006,-0.001602,0.635373,0.621447,9.677497,0.000000,0.000000,0,0,,38.990237,-76.940177,-9.822000,,,
2026-09-11T19:02:20.655,1.603680,-0.000000,-0.000000,-0.000000,0.000000,0.000000,-0.000000,-0.000000,-0.000084,-0.000177,-0.002542,-0.000002,-0.001207,-0.000399,-0.000953,0.001307,0.633804,0.616740,9.678183,0.000000,0.000000,0,0,,38.990237,-76.940177,-9.822000,,,
2026-09-11T19:02:20.689,1.637101,-0.000000,-0.000000,-0.000000,0.000000,0.000000,-0.000000,-0.000000,-0.001351,-0.002844,-0.002592,-0.000002,-0.001231,0.001202,0.000451,-0.001360,0.635079,0.620957,9.670926,0.000000,0.000000,0,0,,38.990237,-76.940177,-9.822000,,,
2026-09-11T19:02:20.722,1.670523,-0.000000,-0.000000,-0.000000,0.000000,0.000000,-0.000000,-0.000000,-0.001291,-0.002718,-0.002685,-0.000002,-0.001275,0.001581,0.000279,-0.001234,0.634784,0.617427,9.670240,0.000000,0.000000,0,0,,38.990237,-76.940177,-9.822000,,,
2026-09-11T19:02:20.754,1.703923,-0.000000,-0.000000,-0.000000,0.000000,0.000000,-0.000000,-0.000000,-0.000108,-0.000227,-0.002734,-0.000002,-0.001299,-0.001644,-0.001722,0.001257,0.638119,0.626155,9.679654,0.000000,0.000000,0,0,,38.990237,-76.940177,-9.822000,,,
2026-09-11T19:02:20.788,1.737329,-0.000000,-0.000000,-0.000000,0.000000,0.000000,-0.000000,-0.000000,-0.001349,-0.002839,-0.002785,-0.000002,-0.001323,0.002519,0.000691,-0.001356,0.635079,0.619976,9.679752,0.000000,0.000000,0,0,,38.990237,-76.940177,-9.822000,,,
2026-09-11T19:02:20.822,1.770737,-0.000000,-0.000000,-0.000000,0.000000,0.000000,-0.000000,-0.000000,-0.000498,-0.001049,-0.002850,-0.000002,-0.001354,0.001014,-0.000950,0.000434,0.638119,0.624193,9.683381,0.000000,0.000000,0,0,,38.990237,-76.940177,-9.822000,,,
2026-09-11T19:02:20.856,1.804153,-0.000000,-0.000000,-0.000000,0.000000,0.000000,-0.000000,-0.000000,-0.000153,-0.000321,-0.002873,-0.000002,-0.001365,-0.001017,-0.001006,0.001162,0.636550,0.618407,9.669455,0.000000,0.000000,0,0,,38.990237,-76.940177,-9.822000,,,
2026-09-11T19:02:20.889,1.837572,-0.000000,-0.000000,-0.000000,0.000000,0.000000,-0.000000,-0.000000,-0.000991,-0.002087,-0.002914,-0.000002,-0.001384,0.001878,0.000391,-0.000604,0.634392,0.619976,9.675437,0.000000,0.000000,0,0,,38.990237,-76.940177,-9.822000,,,
2026-09-11T19:02:20.922,1.870981,-0.000000,-0.000000,-0.000000,0.000000,0.000000,-0.000000,-0.000000,-0.000969,-0.002040,-0.002983,-0.000002,-0.001417,-0.000190,-0.001185,-0.000557,0.637825,0.619682,9.676418,0.000000,0.000000,0,0,,38.990237,-76.940177,-9.822000,,,
2026-09-11T19:02:20.955,1.904382,-0.000000,-0.000000,-0.000000,0.000000,0.000000,-0.000000,-0.000000,-0.000285,-0.000600,-0.003027,-0.000002,-0.001438,-0.002969,-0.000284,0.000884,0.638119,0.620173,9.682890,0.000000,0.000000,0,0,,38.990237,-76.940177,-9.822000,,,
2026-09-11T19:02:20.989,1.937790,-0.000000,-0.000000,-0.000000,0.000000,0.000000,-0.000000,-0.000000,-0.000157,-0.000331,-0.003042,-0.000002,-0.001445,-0.000394,-0.001504,0.001152,0.633706,0.623409,9.681713,0.000000,0.000000,0,0,,38.990237,-76.940177,-9.822000,,,
2026-09-11T19:02:21.023,1.971216,-0.000000,-0.000000,-0.000000,0.000000,0.000000,-0.000000,-0.000000,0.000162,0.000342,-0.003042,-0.000002,-0.001445,-0.000028,-0.001612,0.001826,0.636746,0.617917,9.668965,0.000000,0.000000,0,0,,38.990237,-76.940177,-9.822000,,,
2026-09-11T19:02:21.056,2.004627,-0.000000,-0.000000,-0.000000,0.000000,0.000000,-0.000000,-0.000000,-0.000771,-0.001623,-0.003063,-0.000002,-0.001455,-0.001634,0.000424,-0.000140,0.633608,0.618996,9.676222,0.000000,0.000000,0,0,,38.990237,-76.940177,-9.822000,,,
2026-09-11T19:02:21.089,2.038050,-0.000000,-0.000000,-0.000000,0.000000,0.000000,-0.000000,-0.000000,-0.001053,-0.002217,-0.003128,-0.000002,-0.001486,0.001482,-0.001423,-0.000733,0.637334,0.619976,9.676908,0.000000,0.000000,0,0,,38.990237,-76.940177,-9.822000,,,
2026-09-11T19:02:21.122,2.071459,-0.000000,-0.000000,-0.000000,0.000000,0.000000,-0.000000,-0.000000,-0.000958,-0.002017,-0.003198,-0.000002,-0.001519,-0.001844,-0.000879,-0.000534,0.636354,0.623213,9.678673,0.000000,0.000000,0,0,,38.990237,-76.940177,-9.822000,,,
2026-09-11T19:02:21.157,2.104870,-0.000000,-0.000000,-0.000000,0.000000,0.000000,-0.000000,-0.000000,-0.000286,-0.000601,-0.003242,-0.000002,-0.001540,0.002122,0.000720,0.000882,0.634883,0.620467,9.678183,0.000000,0.000000,0,0,,38.990237,-76.940177,-9.822000,,,
2026-09-11T19:02:21.191,2.138293,-0.000000,-0.000000,-0.000000,0.000000,0.000000,-0.000000,-0.000000,0.000393,0.000827,-0.003238,-0.000002,-0.001538,-0.001870,-0.001355,0.002311,0.638217,0.619486,9.661904,0.000000,0.000000,0,1,2.125564,38.990237,-76.940177,-9.831000,-0.003745,-0.010193,5.112187
2026-09-11T19:02:21.223,2.171706,-0.000000,-0.000000,-0.000000,0.000000,0.000000,-0.000000,-0.000000,-0.000511,-0.001076,-0.003242,-0.000002,-0.001540,-0.001764,-0.000529,0.000407,0.635863,0.624193,9.673476,0.000000,0.000000,0,0,,38.990237,-76.940177,-9.831000,,,
2026-09-11T19:02:21.256,2.205126,-0.000000,-0.000000,-0.000000,0.000000,0.000000,-0.000000,-0.000000,-0.000488,-0.001027,-0.003278,-0.000003,-0.001557,0.001312,0.001415,0.000457,0.633313,0.618505,9.671220,0.000000,0.000000,0,0,,38.990237,-76.940177,-9.831000,,,
2026-09-11T19:02:21.289,2.238532,-0.000000,-0.000000,-0.000000,0.000000,0.000000,-0.000000,-0.000000,-0.000403,-0.000848,-0.003309,-0.000003,-0.001572,-0.002386,0.000167,0.000636,0.635079,0.619192,9.678477,0.000000,0.000000,0,0,,38.990237,-76.940177,-9.831000,,,
2026-09-11T19:02:21.322,2.271940,-0.000000,-0.000000,-0.000000,0.000000,0.000000,-0.000000,-0.000000,-0.001041,-0.002192,-0.003360,-0.000003,-0.001596,-0.003212,0.000778,-0.000708,0.637236,0.618211,9.675928,0.000000,0.000000,0,0,,38.990237,-76.940177,-9.831000,,,
2026-09-11T19:02:21.357,2.305349,-0.000000,-0.000000,-0.000000,0.000000,0.000000,-0.000000,-0.000000,-0.000462,-0.000972,-0.003412,-0.000003,-0.001621,0.000135,-0.000876,0.000512,0.636354,0.620173,9.675928,0.000000,0.000000,0,0,,38.990237,-76.940177,-9.831000,,,
2026-09-11T19:02:21.390,2.338772,-0.000000,-0.000000,-0.000000,0.000000,0.000000,-0.000000,-0.000000,-0.000228,-0.000481,-0.003437,-0.000003,-0.001632,-0.001883,0.000967,0.001003,0.636844,0.621644,9.680929,0.000000,0.000000,0,0,,38.990237,-76.940177,-9.831000,,,
2026-09-11T19:02:21.423,2.372180,-0.000000,-0.000000,-0.000000,0.000000,0.000000,-0.000000,-0.000000,-0.000312,-0.000656,-0.003456,-0.000003,-0.001641,-0.001802,0.001190,0.000827,0.635373,0.620663,9.680439,0.000000,0.000000,0,0,,38.990237,-76.940177,-9.831000,,,
2026-09-11T19:02:21.456,2.405583,-0.000000,-0.000000,-0.000000,0.000000,0.000000,-0.000000,-0.000000,-0.000652,-0.001372,-0.003490,-0.000003,-0.001658,0.002336,0.000130,0.000112,0.634588,0.617917,9.672201,0.000000,0.000000,0,0,,38.990237,-76.940177,-9.831000,,,
2026-09-11T19:02:21.490,2.439089,-0.000000,-0.000000,-0.000000,0.000000,0.000000,-0.000000,-0.000000,-0.000556,-0.001171,-0.003532,-0.000003,-0.001678,-0.000955,0.001315,0.000312,0.634392,0.622722,9.674260,0.000000,0.000000,0,0,,38.990237,-76.940177,-9.831000,,,
2026-09-11T19:02:21.524,2.472512,-0.000000,-0.000000,-0.000000,0.000000,0.000000,-0.000000,-0.000000,-0.001319,-0.002777,-0.003598,-0.000003,-0.001709,-0.000411,0.001022,-0.001293,0.637040,0.620467,9.676908,0.000000,0.000000,0,0,,38.990237,-76.940177,-9.831000,,,
2026-09-11T19:02:21.557,2.505925,-0.000000,-0.000000,-0.000000,0.000000,0.000000,-0.000000,-0.000000,-0.000938,-0.001974,-0.003678,-0.000003,-0.001747,-0.001756,-0.000790,-0.000491,0.638315,0.619192,9.677889,0.000000,0.000000,0,0,,38.990237,-76.940177,-9.831000,,,
2026-09-11T19:02:21.590,2.539331,-0.000000,-0.000000,-0.000000,0.000000,0.000000,-0.000000,-0.000000,-0.001403,-0.002954,-0.003760,-0.000003,-0.001786,-0.000241,0.001224,-0.001470,0.635275,0.617231,9.673182,0.000000,0.000000,0,0,,38.990237,-76.940177,-9.831000,,,
2026-09-11T19:02:21.623,2.572742,-0.000000,-0.000000,-0.000000,0.000000,0.000000,-0.000000,-0.000000,-0.000325,-0.000685,-0.003821,-0.000003,-0.001815,0.001933,0.001622,0.000799,0.637334,0.621153,9.675437,0.000000,0.000000,0,0,,38.990237,-76.940177,-9.831000,,,
2026-09-11T19:02:21.657,2.606146,-0.000000,-0.000000,-0.000000,0.000000,0.000000,-0.000000,-0.000000,-0.000308,-0.000648,-0.003843,-0.000004,-0.001825,-0.001037,-0.000034,0.000836,0.635765,0.614485,9.668671,0.000000,0.000000,0,0,,38.990237,-76.940177,-9.831000,,,
2026-09-11T19:02:21.692,2.639568,-0.000000,-0.000000,-0.000000,0.000000,0.000000,-0.000000,-0.000000,-0.000677,-0.001426,-0.003878,-0.000004,-0.001842,0.001579,0.000649,0.000058,0.637040,0.619486,9.671907,0.000000,0.000000,0,0,,38.990237,-76.940177,-9.831000,,,
2026-09-11T19:02:21.724,2.672996,-0.000000,-0.000000,-0.000000,0.000000,0.000000,-0.000000,-0.000000,-0.001220,-0.002568,-0.003944,-0.000004,-0.001874,0.001903,0.001100,-0.001084,0.632137,0.620467,9.673966,0.000000,0.000000,0,0,,38.990237,-76.940177,-9.831000,,,
2026-09-11T19:02:21.757,2.706398,-0.000000,-0.000000,-0.000000,0.000000,0.000000,-0.000000,-0.000000,-0.000528,-0.001112,-0.004006,-0.000004,-0.001903,-0.000469,0.001212,0.000371,0.636550,0.621153,9.670240,0.000000,0.000000,0,0,,38.990237,-76.940177,-9.831000,,,
2026-09-11T19:02:21.790,2.739804,-0.000000,-0.000000,-0.000000,0.000000,0.000000,-0.000000,-0.000000,-0.001064,-0.002239,-0.004062,-0.000004,-0.001929,0.001911,0.001011,-0.000756,0.633019,0.617231,9.667003,0.000000,0.000000,0,0,,38.990237,-76.940177,-9.831000,,,
2026-09-11T19:02:21.825,2.773214,-0.000000,-0.000000,-0.000000,0.000000,0.000000,-0.000000,-0.000000,-0.000821,-0.001728,-0.004128,-0.000004,-0.001961,0.001101,-0.000196,-0.000244,0.637530,0.620173,9.676418,0.000000,0.000000,0,0,,38.990237,-76.940177,-9.831000,,,
2026-09-11T19:02:21.859,2.806631,-0.000000,-0.000000,-0.000000,0.000000,0.000000,-0.000000,-0.000000,-0.000859,-0.001808,-0.004187,-0.000004,-0.001989,-0.000976,0.000325,-0.000324,0.636844,0.620957,9.672691,0.000000,0.000000,0,0,,38.990237,-76.940177,-9.831000,,,
2026-09-11T19:02:21.892,2.840052,-0.000000,-0.000000,-0.000000,0.000000,0.000000,-0.000000,-0.000000,-0.000701,-0.001475,-0.004242,-0.000004,-0.002015,0.001852,-0.000075,0.000009,0.636550,0.618702,9.675241,0.000000,0.000000,0,0,,38.990237,-76.940177,-9.831000,,,
2026-09-11T19:02:21.924,2.873459,-0.000000,-0.000000,-0.000000,0.000000,0.000000,-0.000000,-0.000000,-0.000746,-0.001571,-0.004293,-0.000004,-0.002039,0.000841,-0.000311,-0.000088,0.637530,0.617917,9.677399,0.000000,0.000000,0,0,,38.990237,-76.940177,-9.831000,,,
2026-09-11T19:02:21.957,2.906862,-0.000000,-0.000000,-0.000000,0.000000,0.000000,-0.000000,-0.000000,-0.000789,-0.001661,-0.004347,-0.000004,-0.002065,0.001300,0.001462,-0.000178,0.635275,0.618996,9.673966,0.000000,0.000000,0,0,,38.990237,-76.940177,-9.831000,,,
2026-09-11T19:02:21.992,2.940270,-0.000000,-0.000000,-0.000000,0.000000,0.000000,-0.000000,-0.000000,-0.001112,-0.002342,-0.004414,-0.000005,-0.002096,-0.000408,-0.000128,-0.000858,0.638707,0.620467,9.668671,0.000000,0.000000,0,0,,38.990237,-76.940177,-9.831000,,,
2026-09-11T19:02:22.026,2.973697,-0.000000,-0.000000,-0.000000,0.000000,0.000000,-0.000000,-0.000000,0.000086,0.000181,-0.004450,-0.000005,-0.002114,-0.001024,-0.001384,0.001665,0.638021,0.617917,9.667200,0.000000,0.000000,0,0,,38.990237,-76.940177,-9.831000,,,
2026-09-11T19:02:22.058,3.007108,-0.000000,-0.000000,-0.000000,0.000000,0.000000,-0.000000,-0.000000,-0.000780,-0.001643,-0.004474,-0.000005,-0.002125,0.001602,0.001886,-0.000159,0.635765,0.614485,9.669749,0.000000,0.000000,0,0,,38.990237,-76.940177,-9.831000,,,
2026-09-11T19:02:22.091,3.040516,-0.000000,-0.000000,-0.000000,0.000000,0.000000,-0.000000,-0.000000,-0.000792,-0.001666,-0.004529,-0.000005,-0.002151,-0.000417,-0.001742,-0.000183,0.636844,0.621938,9.676222,0.000000,0.000000,0,0,,38.990237,-76.940177,-9.831000,,,
2026-09-11T19:02:22.124,3.073923,-0.000000,-0.000000,-0.000000,0.000000,0.000000,-0.000000,-0.000000,-0.000205,-0.000431,-0.004564,-0.000005,-0.002168,-0.000998,-0.000917,0.001052,0.634294,0.616250,9.675928,0.000000,0.000000,0,0,,38.990237,-76.940177,-9.831000,,,
2026-09-11T19:02:22.158,3.107326,-0.000000,-0.000000,-0.000000,0.000000,0.000000,-0.000000,-0.000000,-0.000949,-0.001998,-0.004605,-0.000005,-0.002187,0.001810,0.000633,-0.000515,0.636746,0.616250,9.662492,0.000000,0.000000,0,0,,38.990237,-76.940177,-9.831000,,,
2026-09-11T19:02:22.194,3.140753,-0.000000,-0.000000,-0.000000,0.000000,0.000000,-0.000000,-0.000000,0.000151,0.000319,-0.004633,-0.000005,-0.002201,-0.001625,-0.002320,0.001802,0.636354,0.622918,9.681223,0.000000,0.000000,0,1,3.122522,38.990237,-76.940177,-9.844000,-0.000864,-0.019088,5.111217
2026-09-11T19:02:22.227,3.174173,-0.000000,-0.000000,-0.000000,0.000000,0.000000,-0.000000,-0.000000,-0.001190,-0.002505,-0.004670,-0.000005,-0.002218,0.002022,0.000550,-0.001021,0.637236,0.618996,9.666905,0.000000,0.000000,0,0,,38.990237,-76.940177,-9.844000,,,
2026-09-11T19:02:22.260,3.207583,-0.000000,-0.000000,-0.000000,0.000000,0.000000,-0.000000,-0.000000,-0.000287,-0.000603,-0.004722,-0.000005,-0.002243,0.000487,-0.000342,0.000880,0.634392,0.624684,9.674457,0.000000,0.000000,0,0,,38.990237,-76.940177,-9.844000,,,
2026-09-11T19:02:22.293,3.240989,-0.000000,-0.000000,-0.000000,0.000000,0.000000,-0.000000,-0.000000,-0.000603,-0.001270,-0.004753,-0.000005,-0.002258,-0.002114,-0.000975,0.000214,0.634294,0.615269,9.667003,0.000000,0.000000,0,0,,38.990237,-76.940177,-9.844000,,,
2026-09-11T19:02:22.326,3.274394,-0.000000,-0.000000,-0.000000,0.000000,0.000000,-0.000000,-0.000000,-0.001112,-0.002340,-0.004813,-0.000006,-0.002286,-0.002000,0.000422,-0.000857,0.633902,0.621251,9.672986,0.000000,0.000000,0,0,,38.990237,-76.940177,-9.844000,,,
2026-09-11T19:02:22.360,3.307810,-0.000000,-0.000000,-0.000000,0.000000,0.000000,-0.000000,-0.000000,-0.000171,-0.000359,-0.004858,-0.000006,-0.002308,0.000187,-0.000591,0.001125,0.635079,0.620467,9.681223,0.000000,0.000000,0,0,,38.990237,-76.940177,-9.844000,,,
2026-09-11T19:02:22.393,3.341235,-0.000000,-0.000000,-0.000000,0.000000,0.000000,-0.000000,-0.000000,-0.001230,-0.002588,-0.004908,-0.000006,-0.002331,-0.001416,0.000807,-0.001105,0.634098,0.619682,9.672691,0.000000,0.000000,0,0,,38.990237,-76.940177,-9.844000,,,
2026-09-11T19:02:22.427,3.374655,-0.000000,-0.000000,-0.000000,0.000000,0.000000,-0.000000,-0.000000,-0.000475,-0.001000,-0.004967,-0.000006,-0.002360,0.000659,-0.000669,0.000483,0.636550,0.615956,9.672691,0.000000,0.000000,0,0,,38.990237,-76.940177,-9.844000,,,
2026-09-11T19:02:22.460,3.408062,-0.000000,-0.000000,-0.000000,0.000000,0.000000,-0.000000,-0.000000,-0.000987,-0.002078,-0.005019,-0.000006,-0.002384,-0.000613,-0.000882,-0.000594,0.636255,0.617427,9.672986,0.000000,0.000000,0,0,,38.990237,-76.940177,-9.844000,,,
2026-09-11T19:02:22.494,3.441469,-0.000000,-0.000000,-0.000000,0.000000,0.000000,-0.000000,-0.000000,-0.000032,-0.000067,-0.005055,-0.000006,-0.002401,-0.001803,0.000548,0.001417,0.639001,0.614877,9.675437,0.000000,0.000000,0,0,,38.990237,-76.940177,-9.844000,,,
2026-09-11T19:02:22.527,3.474879,-0.000000,-0.000000,-0.000000,0.000000,0.000000,-0.000000,-0.000000,-0.000467,-0.000983,-0.005072,-0.000006,-0.002409,-0.000614,-0.000843,0.000500,0.634098,0.620173,9.677987,0.000000,0.000000,0,0,,38.990237,-76.940177,-9.844000,,,
2026-09-11T19:02:22.561,3.508290,-0.000000,-0.000000,-0.000000,0.000000,0.000000,-0.000000,-0.000000,-0.001223,-0.002575,-0.005132,-0.000006,-0.002438,-0.000981,-0.000400,-0.001092,0.637236,0.622428,9.669651,0.000000,0.000000,0,0,,38.990237,-76.940177,-9.844000,,,
2026-09-11T19:02:22.594,3.541714,-0.000000,-0.000000,-0.000000,0.000000,0.000000,-0.000000,-0.000000,-0.000670,-0.001411,-0.005198,-0.000006,-0.002469,0.000540,0.001052,0.000073,0.637530,0.619388,9.679164,0.000000,0.000000,0,0,,38.990237,-76.940177,-9.844000,,,
2026-09-11T19:02:22.627,3.575120,-0.000000,-0.000000,-0.000000,0.000000,0.000000,-0.000000,-0.000000,-0.000138,-0.000290,-0.005227,-0.000006,-0.002483,-0.001724,-0.000774,0.001194,0.638609,0.623899,9.679948,0.000000,0.000000,0,0,,38.990237,-76.940177,-9.844000,,,
2026-09-11T19:02:22.661,3.608526,-0.000000,-0.000000,-0.000000,0.000000,0.000000,-0.000000,-0.000000,-0.001581,-0.003329,-0.005287,-0.000007,-0.002511,-0.000269,-0.000496,-0.001846,0.639296,0.620957,9.674162,0.000000,0.000000,0,0,,38.990237,-76.940177,-9.844000,,,
2026-09-11T19:02:22.694,3.641953,-0.000000,-0.000000,-0.000000,0.000000,0.000000,-0.000000,-0.000000,-0.000773,-0.001628,-0.005370,-0.000007,-0.002551,0.000424,0.001206,-0.000144,0.637628,0.624389,9.679458,0.000000,0.000000,0,0,,38.990237,-76.940177,-9.844000,,,
2026-09-11T19:02:22.728,3.675378,-0.000000,-0.000000,-0.000000,0.000000,0.000000,-0.000000,-0.000000,-0.000392,-0.000824,-0.005411,-0.000007,-0.002570,-0.002594,-0.000653,0.000659,0.636746,0.618898,9.672495,0.000000,0.000000,0,0,,38.990237,-76.940177,-9.844000,,,
2026-09-11T19:02:22.761,3.708790,-0.000000,-0.000000,-0.000000,0.000000,0.000000,-0.000000,-0.000000,-0.001779,-0.003745,-0.005487,-0.000007,-0.002606,-0.000115,0.000545,-0.002261,0.640963,0.620173,9.672691,0.000000,0.000000,0,0,,38.990237,-76.940177,-9.844000,,,
2026-09-11T19:02:22.794,3.742196,-0.000000,-0.000000,-0.000000,0.000000,0.000000,-0.000000,-0.000000,-0.000584,-0.001230,-0.005570,-0.000007,-0.002646,0.001651,0.000517,0.000253,0.637726,0.613504,9.665238,0.000000,0.000000,0,0,,38.990237,-76.940177,-9.844000,,,
2026-09-11T19:02:22.827,3.775604,-0.000000,-0.000000,-0.000000,0.000000,0.000000,-0.000000,-0.000000,-0.000013,-0.000027,-0.005591,-0.000007,-0.002656,-0.001579,0.000264,0.001457,0.635275,0.618211,9.672691,0.000000,0.000000,0,0,,38.990237,-76.940177,-9.844000,,,
2026-09-11T19:02:22.861,3.809024,-0.000000,-0.000000,-0.000000,0.000000,0.000000,-0.000000,-0.000000,-0.001943,-0.004092,-0.005660,-0.000008,-0.002689,-0.001929,0.000806,-0.002608,0.636255,0.618211,9.669161,0.000000,0.000000,0,0,,38.990237,-76.940177,-9.844000,,,
2026-09-11T19:02:22.894,3.842445,-0.000000,-0.000000,-0.000000,0.000000,0.000000,-0.000000,-0.000000,-0.001058,-0.002227,-0.005766,-0.000008,-0.002739,0.002510,0.000600,-0.000743,0.637726,0.615956,9.670730,0.000000,0.000000,0,0,,38.990237,-76.940177,-9.844000,,,
2026-09-11T19:02:22.928,3.875867,-0.000000,-0.000000,-0.000000,0.000000,0.000000,-0.000000,-0.000000,-0.000430,-0.000906,-0.005818,-0.000008,-0.002764,-0.001188,0.000980,0.000578,0.636550,0.617917,9.675241,0.000000,0.000000,0,0,,38.990237,-76.940177,-9.844000,,,
2026-09-11T19:02:22.961,3.909269,-0.000000,-0.000000,-0.000000,0.000000,0.000000,-0.000000,-0.000000,-0.000473,-0.000995,-0.005850,-0.000008,-0.002779,0.002115,0.000699,0.000488,0.637334,0.620957,9.673182,0.000000,0.000000,0,0,,38.990237,-76.940177,-9.844000,,,
2026-09-11T19:02:22.995,3.942673,-0.000000,-0.000000,-0.000000,0.000000,0.000000,-0.000000,-0.000000,-0.000592,-0.001245,-0.005887,-0.000008,-0.002796,0.000944,-0.000906,0.000238,0.632921,0.624193,9.682988,0.000000,0.000000,0,0,,38.990237,-76.940177,-9.844000,,,
2026-09-11T19:02:23.028,3.976081,-0.000000,-0.000000,-0.000000,0.000000,0.000000,-0.000000,-0.000000,-0.001686,-0.003549,-0.005967,-0.000008,-0.002835,0.000038,0.000944,-0.002066,0.636844,0.620663,9.679654,0.000000,0.000000,0,0,,38.990237,-76.940177,-9.844000,,,
2026-09-11T19:02:23.061,4.009495,-0.000000,-0.000000,-0.000000,0.000000,0.000000,-0.000000,-0.000000,-0.000272,-0.000572,-0.006036,-0.000009,-0.002867,0.003318,0.001841,0.000912,0.639001,0.615171,9.673182,0.000000,0.000000,0,0,,38.990237,-76.940177,-9.844000,,,
2026-09-11T19:02:23.095,4.042919,-0.000000,-0.000000,-0.000000,0.000000,0.000000,-0.000000,-0.000000,0.000098,0.000207,-0.006042,-0.000009,-0.002870,0.000296,-0.001364,0.001691,0.635863,0.621447,9.673182,0.000000,0.000000,0,0,,38.990237,-76.940177,-9.844000,,,
2026-09-11T19:02:23.128,4.076327,-0.000000,-0.000000,-0.000000,0.000000,0.000000,-0.000000,-0.000000,-0.001260,-0.002653,-0.006083,-0.000009,-0.002890,0.001604,0.000301,-0.001169,0.635079,0.620173,9.673182,0.000000,0.000000,0,0,,38.990237,-76.940177,-9.844000,,,
2026-09-11T19:02:23.162,4.109728,-0.000000,-0.000000,-0.000000,0.000000,0.000000,-0.000000,-0.000000,-0.000909,-0.001913,-0.006159,-0.000009,-0.002926,0.001889,-0.000161,-0.000430,0.633412,0.620761,9.673182,0.000000,0.000000,0,0,,38.990237,-76.940177,-9.844000,,,
2026-09-11T19:02:23.195,4.143146,-0.000000,-0.000000,-0.000000,0.000000,0.000000,-0.000000,-0.000000,-0.000471,-0.000991,-0.006208,-0.000009,-0.002949,-0.000020,-0.000834,0.000492,0.638511,0.615465,9.672887,0.000000,0.000000,0,1,4.130593,38.990237,-76.940177,-9.853000,0.003889,-0.031876,5.110248
2026-09-11T19:02:23.229,4.176563,-0.000000,-0.000000,-0.000000,0.000000,0.000000,-0.000000,-0.000000,-0.000383,-0.000805,-0.006238,-0.000009,-0.002963,0.002504,-0.000090,0.000678,0.635079,0.618407,9.674947,0.000000,0.000000,0,0,,38.990237,-76.940177,-9.853000,,,
2026-09-11T19:02:23.262,4.209965,-0.000000,-0.000000,-0.000000,0.000000,0.000000,-0.000000,-0.000000,-0.001552,-0.003268,-0.006306,-0.000009,-0.002995,0.000204,0.000437,-0.001784,0.635569,0.621644,9.679948,0.000000,0.000000,0,0,,38.990237,-76.940177,-9.853000,,,
2026-09-11T19:02:23.295,4.243369,-0.000000,-0.000000,-0.000000,0.000000,0.000000,-0.000000,-0.000000,0.000371,0.000781,-0.006348,-0.000010,-0.003015,-0.003094,-0.000424,0.002264,0.638413,0.615465,9.668671,0.000000,0.000000,0,0,,38.990237,-76.940177,-9.853000,,,
2026-09-11T19:02:23.330,4.276771,-0.000000,-0.000000,-0.000000,0.000000,0.000000,-0.000000,-0.000000,-0.001352,-0.002847,-0.006382,-0.000010,-0.003031,0.001280,-0.000409,-0.001363,0.639296,0.623115,9.678968,0.000000,0.000000,0,0,,38.990237,-76.940177,-9.853000,,,
2026-09-11T19:02:23.363,4.310180,-0.000000,-0.000000,-0.000000,0.000000,0.000000,-0.000000,-0.000000,0.000338,0.000711,-0.006418,-0.000010,-0.003048,0.000240,-0.001367,0.002195,0.636942,0.616446,9.668671,0.000000,0.000000,0,0,,38.990237,-76.940177,-9.853000,,,
2026-09-11T19:02:23.396,4.343589,-0.000000,-0.000000,-0.000000,0.000000,0.000000,-0.000000,-0.000000,-0.000862,-0.001814,-0.006436,-0.000010,-0.003057,-0.000553,-0.000044,-0.000331,0.635373,0.618996,9.676222,0.000000,0.000000,0,0,,38.990237,-76.940177,-9.853000,,,
2026-09-11T19:02:23.430,4.377010,-0.000000,-0.000000,-0.000000,0.000000,0.000000,-0.000000,-0.000000,-0.001216,-0.002559,-0.006509,-0.000010,-0.003092,0.001066,-0.000457,-0.001076,0.634784,0.618505,9.672201,0.000000,0.000000,0,0,,38.990237,-76.940177,-9.853000,,,
2026-09-11T19:02:23.462,4.410411,-0.000000,-0.000000,-0.000000,0.000000,0.000000,-0.000000,-0.000000,0.000196,0.000413,-0.006545,-0.000010,-0.003109,-0.000321,-0.000977,0.001897,0.636452,0.617427,9.666905,0.000000,0.000000,0,0,,38.990237,-76.940177,-9.853000,,,
2026-09-11T19:02:23.496,4.443819,-0.000000,-0.000000,-0.000000,0.000000,0.000000,-0.000000,-0.000000,0.000007,0.000015,-0.006538,-0.000010,-0.003106,-0.001384,0.000576,0.001499,0.637040,0.620173,9.674947,0.000000,0.000000,0,0,,38.990237,-76.940177,-9.853000,,,
2026-09-11T19:02:23.530,4.477224,-0.000000,-0.000000,-0.000000,0.000000,0.000000,-0.000000,-0.000000,-0.001506,-0.003171,-0.006591,-0.000010,-0.003131,0.000867,-0.001230,-0.001688,0.638903,0.614485,9.666709,0.000000,0.000000,0,0,,38.990237,-76.940177,-9.853000,,,
2026-09-11T19:02:23.563,4.510634,-0.000000,-0.000000,-0.000000,0.000000,0.000000,-0.000000,-0.000000,-0.000029,-0.000060,-0.006645,-0.000010,-0.003156,-0.002653,-0.001716,0.001423,0.636157,0.623213,9.682400,0.000000,0.000000,0,0,,38.990237,-76.940177,-9.853000,,,
2026-09-11T19:02:23.597,4.544048,-0.000000,-0.000000,-0.000000,0.000000,0.000000,-0.000000,-0.000000,0.000039,0.000081,-0.006644,-0.000010,-0.003156,0.000261,0.001020,0.001565,0.637040,0.619192,9.677693,0.000000,0.000000,0,0,,38.990237,-76.940177,-9.853000,,,
2026-09-11T19:02:23.630,4.577461,-0.000000,-0.000000,-0.000000,0.000000,0.000000,-0.000000,-0.000000,-0.000742,-0.001562,-0.006669,-0.000011,-0.003168,-0.001548,-0.000965,-0.000078,0.634392,0.619682,9.681419,0.000000,0.000000,0,0,,38.990237,-76.940177,-9.853000,,,
2026-09-11T19:02:23.663,4.610866,-0.000000,-0.000000,-0.000000,0.000000,0.000000,-0.000000,-0.000000,-0.000226,-0.000477,-0.006703,-0.000011,-0.003184,-0.002533,-0.001382,0.001007,0.635373,0.621938,9.672691,0.000000,0.000000,0,0,,38.990237,-76.940177,-9.853000,,,
2026-09-11T19:02:23.697,4.644270,-0.000000,-0.000000,-0.000000,0.000000,0.000000,-0.000000,-0.000000,-0.000153,-0.000322,-0.006716,-0.000011,-0.003190,0.002625,0.001388,0.001161,0.635863,0.622428,9.683479,0.000000,0.000000,0,0,,38.990237,-76.940177,-9.853000,,,
2026-09-11T19:02:23.730,4.677692,-0.000000,-0.000000,-0.000000,0.000000,0.000000,-0.000000,-0.000000,-0.000075,-0.000158,-0.006724,-0.000011,-0.003194,-0.001762,-0.001040,0.001325,0.635863,0.618702,9.675928,0.000000,0.000000,0,0,,38.990237,-76.940177,-9.853000,,,
2026-09-11T19:02:23.763,4.711103,-0.000000,-0.000000,-0.000000,0.000000,0.000000,-0.000000,-0.000000,-0.000638,-0.001344,-0.006750,-0.000011,-0.003206,-0.001356,-0.000190,0.000140,0.638217,0.617231,9.666905,0.000000,0.000000,0,0,,38.990237,-76.940177,-9.853000,,,
2026-09-11T19:02:23.797,4.744520,-0.000000,-0.000000,-0.000000,0.000000,0.000000,-0.000000,-0.000000,-0.000359,-0.000755,-0.006785,-0.000011,-0.003223,0.000255,-0.001294,0.000728,0.635079,0.618211,9.674162,0.000000,0.000000,0,0,,38.990237,-76.940177,-9.853000,,,
2026-09-11T19:02:23.830,4.777927,-0.000000,-0.000000,-0.000000,0.000000,0.000000,-0.000000,-0.000000,0.000163,0.000342,-0.006792,-0.000011,-0.003226,-0.002938,0.000462,0.001826,0.636255,0.614681,9.668474,0.000000,0.000000,0,0,,38.990237,-76.940177,-9.853000,,,
