timestamp,time_s,speed_mps,distance_m,wheel_omega_rad_s,motor_current_A,steer_motor_deg,steer_column_deg,vx_mps,vy_mps,yaw_rate_rad_s,heading_rad,x_m,y_m,gyro_x_rad_s,gyro_y_rad_s,gyro_z_rad_s,accel_x_mps2,accel_y_mps2,accel_z_mps2,grade_deg,bank_deg,moving,gps_new_fix,gps_time_s,gps_latitude_deg,gps_longitude_deg,gps_altitude_m,gps_east_m,gps_north_m,gps_sigma_m
2026-09-11T19:03:04.605,0.000007,0.107292,0.000416,0.993444,0.000000,121.671330,-41.859402,0.079909,-0.054005,-0.113695,0.000000,0.000000,0.000000,-0.002688,0.009807,-0.112211,0.238694,0.073452,9.751439,-1.525193,0.105790,0,1,-0.433645,38.990486,-76.939695,-8.961000,0.000000,0.000000,3.427221
2026-09-11T19:03:04.639,0.033409,0.223987,0.008889,2.073949,0.000000,121.671330,-41.859402,0.166822,-0.057026,-0.120054,-0.003904,0.004117,-0.001865,-0.012681,0.012199,-0.118570,0.159554,0.186915,9.534810,-1.530308,0.113836,0,0,,38.990486,-76.939695,-8.961000,,,
2026-09-11T19:03:04.674,0.066868,0.155360,0.013897,1.438520,0.000000,121.671330,-41.859402,0.115710,-0.056397,-0.118731,-0.007898,0.008832,-0.003789,-0.018565,0.009920,-0.117247,0.204959,0.076198,9.636995,-1.532919,0.114226,0,0,,38.990486,-76.939695,-8.961000,,,
2026-09-11T19:03:04.706,0.100286,0.222713,0.020707,2.062160,0.000000,121.604725,-41.836488,0.165933,-0.064650,-0.136106,-0.012157,0.013517,-0.005860,-0.029751,0.011481,-0.134622,0.068941,0.053544,9.848819,-1.544317,0.113718,0,0,,38.990486,-76.939695,-8.961000,,,
2026-09-11T19:03:04.739,0.133690,0.183838,0.027269,1.702205,0.000000,121.604725,-41.836488,0.136969,-0.065681,-0.138275,-0.016739,0.018544,-0.008109,-0.024229,0.014884,-0.136792,0.104539,0.369318,9.579528,-1.550959,0.133402,0,0,,38.990486,-76.939695,-8.961000,,,
2026-09-11T19:03:04.774,0.167091,0.183838,0.033404,1.702205,0.000000,121.604725,-41.836488,0.136969,-0.066563,-0.140133,-0.021389,0.023076,-0.010404,-0.023843,0.008145,-0.138650,0.054329,0.103950,9.518433,-1.560326,0.135723,0,0,,38.990486,-76.939695,-8.961000,,,
2026-09-11T19:03:04.808,0.200510,0.232936,0.041977,2.156816,0.000000,121.604725,-41.836488,0.173549,-0.073190,-0.154084,-0.026305,0.028207,-0.012864,-0.015814,0.014153,-0.152601,0.192406,0.021477,9.711330,-1.561601,0.133170,0,0,,38.990486,-76.939695,-8.961000,,,
2026-09-11T19:03:04.840,0.233917,0.204006,0.048372,1.888941,0.000000,121.534001,-41.812156,0.152052,-0.085529,-0.180060,-0.031886,0.033566,-0.015671,-0.034004,0.032859,-0.178577,0.901623,-1.960447,10.064859,-1.514677,0.002499,0,0,,38.990486,-76.939695,-8.961000,,,
2026-09-11T19:03:04.873,0.267318,0.252628,0.057404,2.339152,0.000000,121.715275,-41.874521,0.188109,-0.084610,-0.178125,-0.037868,0.039144,-0.018711,-0.023822,0.019962,-0.176642,0.532991,0.643610,10.027104,-1.484660,0.042093,0,0,,38.990486,-76.939695,-8.961000,,,
2026-09-11T19:03:04.908,0.300727,0.252810,0.066344,2.340836,0.000000,121.715275,-41.874521,0.188245,-0.076300,-0.160631,-0.043527,0.045317,-0.021652,-0.021165,0.019596,-0.159148,-0.421392,0.327934,9.170395,-1.515798,0.060627,0,0,,38.990486,-76.939695,-8.961000,,,
2026-09-11T19:03:04.940,0.334140,0.262723,0.074214,2.432619,0.000000,121.671330,-41.859402,0.195672,-0.086252,-0.181583,-0.049244,0.051598,-0.024663,-0.021503,0.014385,-0.180099,-0.156024,0.329994,9.665729,-1.529491,0.079435,0,0,,38.990486,-76.939695,-8.961000,,,
2026-09-11T19:03:04.973,0.367545,0.252903,0.082716,2.341697,0.000000,121.671330,-41.859402,0.188358,-0.082072,-0.172783,-0.055163,0.057857,-0.027805,-0.034960,0.021426,-0.171300,-0.184953,0.369907,9.998762,-1.539813,0.100417,0,0,,38.990486,-76.939695,-8.961000,,,
2026-09-11T19:03:05.007,0.400955,0.214329,0.090247,1.984531,0.000000,121.671330,-41.859402,0.159629,-0.077087,-0.162288,-0.060761,0.063506,-0.030794,-0.035138,0.015618,-0.160804,-0.250462,0.193877,9.533143,-1.553839,0.109355,0,0,,38.990486,-76.939695,-8.961000,,,
2026-09-11T19:03:05.042,0.434367,0.243503,0.098102,2.254657,0.000000,121.560780,-41.821369,0.181465,-0.077012,-0.162130,-0.066180,0.069030,-0.033726,-0.036746,0.017579,-0.160647,-0.158083,-0.154062,9.686617,-1.559406,0.095913,0,0,,38.990486,-76.939695,-8.961000,,,
2026-09-11T19:03:05.074,0.467779,0.233699,0.105995,2.163881,0.000000,121.496235,-41.799164,0.174219,-0.072597,-0.152836,-0.071442,0.074786,-0.036628,-0.049402,0.015030,-0.151353,-0.268996,0.058742,9.713879,-1.568747,0.096206,0,0,,38.990486,-76.939695,-8.961000,,,
2026-09-11T19:03:05.107,0.501183,0.195212,0.112930,1.807516,0.000000,121.472889,-41.791132,0.145546,-0.070821,-0.149097,-0.076485,0.079935,-0.039410,-0.044861,0.011772,-0.147613,-0.235360,0.407564,9.734669,-1.572489,0.118737,0,0,,38.990486,-76.939695,-8.961000,,,
2026-09-11T19:03:05.141,0.534586,0.195212,0.119447,1.807516,0.000000,121.472889,-41.791132,0.145546,-0.066702,-0.140425,-0.081320,0.084601,-0.042083,-0.040218,0.012864,-0.138941,-0.297730,0.135724,9.887261,-1.577891,0.123355,0,0,,38.990486,-76.939695,-8.961000,,,
2026-09-11T19:03:05.178,0.568005,0.224368,0.127559,2.077481,0.000000,121.341053,-41.745775,0.167402,-0.065754,-0.138429,-0.085980,0.089627,-0.044726,-0.032701,0.011446,-0.136946,-0.421784,0.335387,9.813417,-1.587506,0.141020,0,1,0.567986,38.990486,-76.939694,-9.004000,0.100975,-0.074315,3.480343
2026-09-11T19:03:05.208,0.601423,0.194909,0.133637,1.804715,0.000000,121.076695,-41.654826,0.145629,-0.058678,-0.123532,-0.090357,0.094654,-0.047257,-0.018424,0.007228,-0.122048,-0.435317,0.224376,9.624639,-1.594605,0.150971,0,0,,38.990486,-76.939694,-9.004000,,,
2026-09-11T19:03:05.240,0.634826,0.146692,0.138274,1.358257,0.000000,120.729252,-41.535293,0.109806,-0.052561,-0.110655,-0.094268,0.098731,-0.049499,-0.003659,0.012692,-0.109172,-0.556527,0.321756,9.692501,-1.611784,0.166728,0,0,,38.990486,-76.939694,-9.004000,,,
2026-09-11T19:03:05.274,0.668232,0.146692,0.143170,1.358257,0.000000,120.149723,-41.335914,0.110144,-0.044852,-0.094426,-0.097694,0.102233,-0.051471,0.009258,0.008448,-0.092942,-0.481801,0.197310,9.800472,-1.624386,0.174149,0,0,,38.990486,-76.939694,-9.004000,,,
2026-09-11T19:03:05.308,0.701640,0.146692,0.148072,1.358257,0.000000,119.846913,-41.231736,0.110320,-0.044192,-0.093035,-0.100825,0.105750,-0.053316,0.002695,0.002848,-0.091551,-0.494451,0.300182,9.763109,-1.636729,0.188133,0,0,,38.990486,-76.939694,-9.004000,,,
2026-09-11T19:03:05.342,0.735055,0.097673,0.151843,0.904378,0.000000,119.759022,-41.201498,0.073489,-0.038460,-0.080968,-0.103732,0.108664,-0.055002,0.004214,0.005532,-0.079485,-0.582417,0.376575,9.718979,-1.656951,0.206630,0,0,,38.990486,-76.939694,-9.004000,,,
2026-09-11T19:03:05.375,0.768479,0.097673,0.155110,0.904378,0.000000,119.759022,-41.201498,0.073489,-0.031876,-0.067107,-0.106207,0.110983,-0.056428,0.003629,0.005331,-0.065623,-0.505239,0.370789,9.711526,-1.661132,0.224485,0,0,,38.990486,-76.939694,-9.004000,,,
2026-09-11T19:03:05.407,0.801887,0.097673,0.158345,0.904378,0.000000,119.759022,-41.201498,0.073489,-0.027787,-0.058499,-0.108305,0.113318,-0.057682,-0.002040,0.002560,-0.057016,-0.480232,0.243891,9.750948,-1.655274,0.233886,0,0,,38.990486,-76.939694,-9.004000,,,
2026-09-11T19:03:05.441,0.835293,0.030320,0.159715,0.280738,0.000000,119.869572,-41.239532,0.022799,-0.019735,-0.041547,-0.109976,0.114830,-0.058646,0.007040,0.004808,-0.040064,-0.592518,0.349509,9.797726,-1.666727,0.249796,0,0,,38.990486,-76.939694,-9.004000,,,
2026-09-11T19:03:05.476,0.868710,0.030320,0.160527,0.280738,0.000000,119.913517,-41.254650,0.022794,-0.012275,-0.025841,-0.111102,0.115529,-0.059261,0.015545,0.003875,-0.024358,-0.552899,0.374810,9.732120,-1.684444,0.267149,0,0,,38.990486,-76.939694,-9.004000,,,
2026-09-11T19:03:05.508,0.902137,0.030320,0.161544,0.280738,0.000000,119.913517,-41.254650,0.022794,-0.005646,-0.011887,-0.111733,0.116253,-0.059644,0.017312,0.000730,-0.010403,-0.519556,0.298122,9.746830,-1.703315,0.279331,0,0,,38.990486,-76.939694,-9.004000,,,
2026-09-11T19:03:05.541,0.935548,0.030320,0.162546,0.280738,0.000000,119.913517,-41.254650,0.022794,-0.001432,-0.003015,-0.111982,0.116996,-0.059846,0.021397,-0.000505,-0.001532,-0.477878,0.258896,9.744182,-1.719496,0.288822,0,0,,38.990486,-76.939694,-9.004000,,,
2026-09-11T19:03:05.574,0.968954,0.030320,0.163558,0.280738,0.000000,119.913517,-41.254650,0.022794,0.003836,0.008077,-0.111897,0.117757,-0.059891,0.016745,-0.001682,0.009560,-0.324894,0.244970,9.728589,-1.727967,0.297290,0,0,,38.990486,-76.939694,-9.004000,,,
2026-09-11T19:03:05.609,1.002374,0.030320,0.164580,0.280738,0.000000,119.957463,-41.269769,0.022789,0.006693,0.014091,-0.111527,0.118534,-0.059801,0.009069,-0.001428,0.015575,-0.223592,0.201429,9.733689,-1.732174,0.302841,0,0,,38.990486,-76.939694,-9.004000,,,
2026-09-11T19:03:05.643,1.035793,-0.230925,0.156608,-2.138194,0.000000,120.011021,-41.288195,-0.173517,0.006975,0.014684,-0.111046,0.116056,-0.059295,-0.005322,-0.000523,0.016167,-0.090025,0.130723,9.755754,-1.727690,0.303940,0,0,,38.990486,-76.939694,-9.004000,,,
2026-09-11T19:03:05.675,1.069199,-0.113280,0.152167,-1.048886,0.000000,120.138737,-41.332134,-0.085061,0.006580,0.013853,-0.110569,0.111789,-0.058592,-0.016749,-0.001155,0.015337,-0.038540,0.041188,9.734277,-1.723197,0.299148,0,0,,38.990486,-76.939694,-9.004000,,,
2026-09-11T19:03:05.708,1.102607,-0.025046,0.152034,-0.231904,0.000000,120.530812,-41.467022,-0.018768,0.004185,0.008811,-0.110190,0.110085,-0.058222,-0.022103,0.001765,0.010295,0.017750,0.022849,9.686617,-1.718385,0.293156,0,0,,38.990486,-76.939694,-9.004000,,,
2026-09-11T19:03:05.743,1.136014,-0.005438,0.152093,-0.050353,0.000000,120.924260,-41.602383,-0.004066,0.002130,0.004483,-0.109968,0.109717,-0.058076,-0.023002,-0.001408,0.005967,0.086593,0.148178,9.716037,-1.709174,0.295328,0,0,,38.990486,-76.939694,-9.004000,,,
2026-09-11T19:03:05.776,1.169434,-0.000000,0.152196,-0.000000,0.000000,121.068455,-41.651991,-0.000000,0.004931,0.010381,-0.109720,0.109663,-0.057951,0.001929,-0.001056,0.011865,0.012356,-0.004021,9.681419,-1.721554,0.287628,0,0,,38.990486,-76.939694,-9.004000,,,
2026-09-11T19:03:05.808,1.202842,-0.000000,0.152196,-0.000000,0.000000,121.100041,-41.662858,-0.000000,-0.001217,-0.002561,-0.109589,0.109669,-0.057889,0.017287,0.001417,-0.001078,-0.019123,-0.098949,9.709368,-1.743614,0.273875,0,0,,38.990486,-76.939694,-9.004000,,,
2026-09-11T19:03:05.843,1.236244,-0.000000,0.152196,-0.000000,0.000000,121.100041,-41.662858,-0.000000,-0.000875,-0.001843,-0.109663,0.109665,-0.057924,0.050809,-0.001521,-0.000359,0.048347,0.155239,9.703582,-1.745624,0.276715,0,0,,38.990486,-76.939694,-9.004000,,,
2026-09-11T19:03:05.877,1.269662,-0.000000,0.152196,-0.000000,0.000000,120.864521,-41.581831,-0.000000,-0.000906,-0.001907,-0.109726,0.109662,-0.057954,0.084646,0.000316,-0.000423,0.029224,-0.016867,9.682008,-1.754031,0.268390,0,0,,38.990486,-76.939694,-9.004000,,,
2026-09-11T19:03:05.909,1.303069,-0.000000,0.152196,-0.000000,0.000000,120.637928,-41.503874,-0.000000,-0.006052,-0.012741,-0.109970,0.109649,-0.058069,0.103784,-0.000274,-0.011257,-0.159064,-0.103166,9.706818,-1.780243,0.254578,0,0,,38.990486,-76.939694,-9.004000,,,
2026-09-11T19:03:05.942,1.336473,-0.000000,0.152196,-0.000000,0.000000,120.637928,-41.503874,-0.000000,-0.009447,-0.019888,-0.110515,0.109621,-0.058326,0.098356,0.000270,-0.018404,-0.050602,0.305085,9.713487,-1.788863,0.267324,0,0,,38.990486,-76.939694,-9.004000,,,
2026-09-11T19:03:05.977,1.369876,-0.000000,0.152196,-0.000000,0.000000,120.804097,-41.561042,-0.000000,-0.010184,-0.021441,-0.111205,0.109585,-0.058652,0.082585,0.002488,-0.019957,-0.132488,0.193289,9.708191,-1.797923,0.272698,0,0,,38.990486,-76.939694,-9.004000,,,
2026-09-11T19:03:06.009,1.403310,-0.000000,0.152196,-0.000000,0.000000,121.319767,-41.738452,-0.000000,-0.014186,-0.029866,-0.112063,0.109539,-0.059057,0.064800,0.002123,-0.028382,0.051093,0.544857,9.676026,-1.794263,0.300777,0,0,,38.990486,-76.939694,-9.004000,,,
2026-09-11T19:03:06.043,1.436814,0.346387,0.160835,3.207291,0.000000,121.319767,-41.738452,0.258471,-0.009630,-0.020274,-0.112903,0.113797,-0.059941,0.030908,0.003422,-0.018790,0.026772,0.161810,9.511960,-1.791950,0.304093,0,0,,38.990486,-76.939694,-9.004000,,,
2026-09-11T19:03:06.076,1.470219,0.161731,0.167220,1.497509,0.000000,121.319767,-41.738452,0.120682,-0.012190,-0.025663,-0.113670,0.120048,-0.061018,-0.007221,0.003530,-0.024179,0.063351,0.146315,9.638270,-1.802424,0.306223,0,0,,38.990486,-76.939694,-9.004000,,,
2026-09-11T19:03:06.111,1.503639,0.025668,0.167397,0.237671,0.000000,121.363713,-41.753571,0.019149,-0.011825,-0.024896,-0.114515,0.122324,-0.061682,-0.034960,0.000856,-0.023412,-0.083062,0.281255,9.737807,-1.826248,0.316892,0,0,,38.990486,-76.939694,-9.004000,,,
2026-09-11T19:03:06.143,1.537059,0.006231,0.167289,0.057694,0.000000,121.363713,-41.753571,0.004648,-0.011983,-0.025228,-0.115353,0.122673,-0.062123,-0.034215,0.003781,-0.023744,0.008924,0.232810,9.659060,-1.828999,0.324284,0,0,,38.990486,-76.939694,-9.004000,,,
2026-09-11T19:03:06.176,1.570460,-0.000000,0.167203,-0.000000,0.000000,121.363713,-41.753571,-0.000000,-0.015031,-0.031644,-0.116303,0.122698,-0.062580,-0.015893,0.006470,-0.030161,0.058938,0.002354,9.695247,-1.825236,0.316680,0,0,,38.990486,-76.939694,-9.004000,,,
2026-09-11T19:03:06.214,1.603868,-0.000000,0.167203,-0.000000,0.000000,121.363713,-41.753571,-0.000000,-0.019586,-0.041233,-0.117520,0.122631,-0.063155,-0.002143,0.000960,-0.039749,0.125917,0.183777,9.715743,-1.817646,0.320893,0,1,1.610432,38.990485,-76.939694,-9.036000,0.123157,-0.126762,3.180142
2026-09-11T19:03:06.248,1.637302,0.009719,0.167599,0.089988,0.000000,121.363713,-41.753571,0.007250,-0.023668,-0.049828,-0.119042,0.122666,-0.063887,0.012242,0.003599,-0.048345,0.012651,0.105323,9.715154,-1.830116,0.320007,0,0,,38.990485,-76.939694,-9.036000,,,
2026-09-11T19:03:06.278,1.670719,0.009719,0.167921,0.089988,0.000000,121.363713,-41.753571,0.007250,-0.024731,-0.052066,-0.120745,0.122809,-0.064719,0.022600,0.005619,-0.050583,0.059134,0.112384,9.719959,-1.824534,0.319590,0,0,,38.990485,-76.939694,-9.036000,,,
2026-09-11T19:03:06.310,1.704126,0.009719,0.168246,0.089988,0.000000,121.363713,-41.753571,0.007250,-0.027067,-0.056982,-0.122566,0.122945,-0.065607,0.017036,0.004828,-0.055499,0.048641,0.178383,9.732904,-1.800133,0.323448,0,0,,38.990485,-76.939694,-9.036000,,,
2026-09-11T19:03:06.343,1.737533,0.323946,0.179821,2.999496,0.000000,121.363713,-41.753571,0.241669,-0.029840,-0.062821,-0.124567,0.126953,-0.067067,0.012023,0.005837,-0.061338,0.127388,0.230456,9.644546,-1.785455,0.331588,0,0,,38.990485,-76.939694,-9.036000,,,
2026-09-11T19:03:06.377,1.770933,0.092502,0.183051,0.856498,0.000000,121.363713,-41.753571,0.069008,-0.030503,-0.064217,-0.126689,0.131975,-0.068713,-0.005836,0.006499,-0.062734,0.117091,0.085024,9.717998,-1.779186,0.329535,0,0,,38.990485,-76.939694,-9.036000,,,
2026-09-11T19:03:06.412,1.804347,0.015354,0.182946,0.142165,0.000000,121.363713,-41.753571,0.011454,-0.034008,-0.071596,-0.128958,0.133171,-0.069953,-0.037851,0.005583,-0.070112,0.041678,0.314695,9.750164,-1.779179,0.342130,0,0,,38.990485,-76.939694,-9.036000,,,
2026-09-11T19:03:06.444,1.837766,0.024997,0.183960,0.231457,0.000000,121.363713,-41.753571,0.018648,-0.036066,-0.075929,-0.131423,0.133517,-0.071179,-0.062266,0.003577,-0.074445,0.013141,0.309890,9.662002,-1.781394,0.354314,0,0,,38.990485,-76.939694,-9.036000,,,
2026-09-11T19:03:06.477,1.871166,0.024997,0.184791,0.231457,0.000000,121.363713,-41.753571,0.018648,-0.032377,-0.068161,-0.133829,0.133984,-0.072394,-0.087972,0.002161,-0.066678,-0.023438,0.242813,9.659354,-1.784567,0.362010,0,0,,38.990485,-76.939694,-9.036000,,,
2026-09-11T19:03:06.511,1.904578,0.287560,0.197272,2.662594,0.000000,121.363713,-41.753571,0.214524,-0.032421,-0.068255,-0.136108,0.137697,-0.073995,-0.099713,0.006221,-0.066771,-0.200350,0.243989,9.752321,-1.796450,0.370564,0,0,,38.990485,-76.939694,-9.036000,,,
2026-09-11T19:03:06.545,1.937984,0.062073,0.198474,0.574754,0.000000,120.992924,-41.626006,0.046400,-0.027720,-0.058359,-0.138223,0.141878,-0.075583,-0.094002,0.003351,-0.056875,-0.275371,0.380988,9.722999,-1.811792,0.387111,0,0,,38.990485,-76.939694,-9.036000,,,
2026-09-11T19:03:06.578,1.971399,0.042466,0.199582,0.393203,0.000000,119.583928,-41.141259,0.031981,-0.021507,-0.045278,-0.139955,0.143061,-0.076579,-0.080796,0.002501,-0.043794,-0.508181,0.266349,9.862842,-1.826898,0.395981,0,0,,38.990485,-76.939694,-9.036000,,,
2026-09-11T19:03:06.611,2.004812,0.042466,0.200989,0.393203,0.000000,116.757695,-40.168932,0.032450,-0.012502,-0.026320,-0.141151,0.144047,-0.077292,-0.050468,0.003275,-0.024837,-0.543288,0.269094,9.767227,-1.840123,0.404892,0,0,,38.990485,-76.939694,-9.036000,,,
2026-09-11T19:03:06.645,2.038218,0.042466,0.202405,0.393203,0.000000,110.810658,-38.122933,0.033407,-0.004947,-0.010414,-0.141764,0.145095,-0.077736,-0.038072,-0.001902,-0.008930,-0.450910,0.507396,9.753106,-1.862077,0.429083,0,0,,38.990485,-76.939694,-9.036000,,,
2026-09-11T19:03:06.679,2.071631,0.042466,0.203835,0.393203,0.000000,108.817326,-37.437153,0.033719,0.008200,0.017263,-0.141650,0.146213,-0.077841,-0.021659,-0.004157,0.018746,-0.579475,0.517203,9.805179,-1.895360,0.453585,0,0,,38.990485,-76.939694,-9.036000,,,
2026-09-11T19:03:06.712,2.105050,0.042466,0.205256,0.393203,0.000000,103.258244,-35.524625,0.034562,0.016314,0.034345,-0.140788,0.147400,-0.077596,-0.032567,-0.007508,0.035828,-0.558391,0.453263,9.843915,-1.926452,0.473644,0,0,,38.990485,-76.939694,-9.036000,,,
2026-09-11T19:03:06.744,2.138451,0.023222,0.206210,0.215020,0.000000,95.110508,-32.721505,0.019537,0.023040,0.048506,-0.139404,0.148387,-0.077071,-0.025244,-0.001435,0.049989,-0.337839,0.526127,9.678673,-1.930282,0.498198,0,0,,38.990485,-76.939694,-9.036000,,,
2026-09-11T19:03:06.779,2.171858,-0.000000,0.206193,-0.000000,0.000000,87.224385,-30.008389,-0.000000,0.034073,0.071732,-0.137395,0.148841,-0.076172,-0.024242,-0.002977,0.073216,-0.287727,-0.083749,9.865294,-1.929038,0.483096,0,0,,38.990485,-76.939694,-9.036000,,,
2026-09-11T19:03:06.813,2.205266,-0.000000,0.206193,-0.000000,0.000000,79.604680,-27.386931,-0.000000,0.039669,0.083514,-0.134802,0.149008,-0.074951,-0.017173,-0.005900,0.084997,-0.076786,0.362944,9.709270,-1.925945,0.497057,0,0,,38.990485,-76.939694,-9.036000,,,
2026-09-11T19:03:06.845,2.238681,-0.000000,0.206193,-0.000000,0.000000,68.386952,-23.527621,-0.000000,0.038218,0.080459,-0.132063,0.149181,-0.073661,-0.027718,0.003023,0.081943,-0.201625,0.144550,9.659354,-1.931862,0.496735,0,0,,38.990485,-76.939694,-9.036000,,,
2026-09-11T19:03:06.878,2.272083,-0.000000,0.206193,-0.000000,0.000000,58.292576,-20.054785,-0.000000,0.044603,0.093900,-0.129151,0.149361,-0.072290,0.001486,-0.003941,0.095384,-0.057271,0.028047,9.971304,-1.928868,0.488882,0,0,,38.990485,-76.939694,-9.036000,,,
2026-09-11T19:03:06.912,2.305487,-0.000000,0.206193,-0.000000,0.000000,47.745701,-16.426273,-0.000000,0.048493,0.102091,-0.125877,0.149559,-0.070748,0.021187,-0.008909,0.103574,0.202703,0.476799,9.762324,-1.909582,0.510140,0,0,,38.990485,-76.939694,-9.036000,,,
2026-09-11T19:03:06.947,2.338913,-0.000000,0.206193,-0.000000,0.000000,29.764515,-10.240086,-0.000000,0.052787,0.111130,-0.122314,0.149768,-0.069068,0.076420,-0.004272,0.112614,0.185738,0.289983,9.591590,-1.891484,0.519086,0,0,,38.990485,-76.939694,-9.036000,,,
2026-09-11T19:03:06.979,2.372326,-0.000000,0.206193,-0.000000,0.000000,15.791966,-5.433016,-0.000000,0.056183,0.118281,-0.118481,0.149987,-0.067261,0.082496,0.000886,0.119764,0.210255,0.030303,9.740357,-1.886684,0.511128,0,0,,38.990485,-76.939694,-9.036000,,,
2026-09-11T19:03:07.012,2.405730,-0.000000,0.206193,-0.000000,0.000000,-0.023540,0.008099,-0.000000,0.052227,0.109952,-0.114669,0.150198,-0.065462,0.076799,0.000108,0.111436,0.206528,0.245755,9.562170,-1.887320,0.517197,0,0,,38.990485,-76.939694,-9.036000,,,
2026-09-11T19:03:07.045,2.439104,-0.000000,0.206193,-0.000000,0.000000,-16.178936,5.566148,-0.000000,0.048407,0.101910,-0.111134,0.150387,-0.063794,0.056210,0.007511,0.103394,0.046385,0.282530,9.711918,-1.888544,0.525569,0,0,,38.990485,-76.939694,-9.036000,,,
2026-09-11T19:03:07.080,2.472513,-0.000000,0.206193,-0.000000,0.000000,-30.609488,10.530787,-0.000000,0.049031,0.103224,-0.107707,0.150565,-0.062176,0.036957,0.007743,0.104708,0.087083,0.043345,9.677791,-1.896036,0.518385,0,0,,38.990485,-76.939694,-9.036000,,,
2026-09-11T19:03:07.113,2.505940,-0.000000,0.206193,-0.000000,0.000000,-46.218314,15.900796,-0.000000,0.047170,0.099305,-0.104322,0.150735,-0.060577,0.017187,0.014214,0.100789,0.158868,-0.053642,9.605908,-1.901795,0.504999,0,0,,38.990485,-76.939694,-9.036000,,,
2026-09-11T19:03:07.145,2.539348,0.009622,0.206555,0.089091,0.000000,-56.836600,19.553876,0.009067,0.045766,0.096348,-0.101054,0.151045,-0.059048,0.012995,0.017208,0.097832,0.037854,0.282530,9.769679,-1.908761,0.513458,0,0,,38.990485,-76.939694,-9.036000,,,
2026-09-11T19:03:07.179,2.572768,0.009622,0.206876,0.089091,0.000000,-69.214072,23.812181,0.008803,0.047149,0.099261,-0.097785,0.151496,-0.057533,0.016329,0.018968,0.100745,0.185346,-0.244872,9.586099,-1.911148,0.487698,0,0,,38.990485,-76.939694,-9.036000,,,
2026-09-11T19:03:07.212,2.606177,0.009622,0.207198,0.089091,0.000000,-81.265387,27.958275,0.008499,0.058257,0.122646,-0.094078,0.151952,-0.055808,0.030054,0.018941,0.124129,0.142589,-0.152788,9.732708,-1.918068,0.468178,0,1,2.584800,38.990485,-76.939693,-9.016000,0.170980,-0.094330,3.139006
2026-09-11T19:03:07.245,2.639585,0.261705,0.221798,2.423191,0.000000,-92.967200,31.984128,0.221977,0.053616,0.112877,-0.090144,0.155958,-0.054294,0.029129,0.019565,0.114360,0.088064,-0.007845,9.794686,-1.928302,0.456698,0,0,,38.990485,-76.939693,-9.016000,,,
2026-09-11T19:03:07.280,2.672988,0.065313,0.222117,0.604749,0.000000,-101.132102,34.793154,0.053636,0.052836,0.111233,-0.086401,0.160700,-0.052934,0.009896,0.018951,0.112717,0.209862,0.184659,9.713487,-1.935380,0.459031,0,0,,38.990485,-76.939693,-9.016000,,,
2026-09-11T19:03:07.313,2.706408,0.065313,0.224331,0.604749,0.000000,-111.834845,38.475291,0.051132,0.052941,0.111454,-0.082680,0.162593,-0.051321,0.008060,0.018326,0.112938,0.181423,0.380204,9.482246,-1.944536,0.474011,0,0,,38.990485,-76.939693,-9.016000,,,
2026-09-11T19:03:07.346,2.739827,0.248539,0.231989,2.301289,0.000000,-114.633612,39.438169,0.191949,0.062195,0.130937,-0.078630,0.166797,-0.049726,-0.015146,0.014977,0.132420,0.082768,0.226828,9.721332,-1.959018,0.477642,0,0,,38.990485,-76.939693,-9.016000,,,
2026-09-11T19:03:07.379,2.773231,0.131845,0.237185,1.220784,0.000000,-123.076606,42.342869,0.097450,0.064762,0.136340,-0.074166,0.171778,-0.047984,-0.040046,0.018880,0.137824,-0.097086,0.389324,9.723686,-1.985690,0.492508,0,0,,38.990485,-76.939693,-9.016000,,,
2026-09-11T19:03:07.413,2.806735,0.122120,0.241087,1.130742,0.000000,-123.020301,42.323498,0.090290,0.061839,0.130188,-0.069701,0.175067,-0.046095,-0.040817,0.023066,0.131671,0.163869,0.261838,9.536281,-1.994672,0.499082,0,0,,38.990485,-76.939693,-9.016000,,,
2026-09-11T19:03:07.446,2.840142,0.239765,0.249640,2.220050,0.000000,-124.837165,42.948566,0.175500,0.071326,0.150160,-0.065018,0.179646,-0.044171,-0.020949,0.032416,0.151643,0.114738,0.165144,9.726236,-2.005453,0.498365,0,0,,38.990485,-76.939693,-9.016000,,,
2026-09-11T19:03:07.481,2.873556,0.162790,0.254915,1.507318,0.000000,-126.459708,43.506780,0.118071,0.072413,0.152449,-0.059963,0.184691,-0.042083,-0.000493,0.036224,0.153933,0.248206,0.187993,9.444098,-1.992825,0.499675,0,0,,38.990485,-76.939693,-9.016000,,,
2026-09-11T19:03:07.514,2.906975,0.240540,0.262471,2.227226,0.000000,-127.552161,43.882624,0.173372,0.077603,0.163374,-0.054685,0.189697,-0.039857,0.009552,0.051026,0.164858,0.075315,0.458853,9.505684,-1.985493,0.517830,0,0,,38.990485,-76.939693,-9.016000,,,
2026-09-11T19:03:07.546,2.940384,0.269999,0.271318,2.499993,0.000000,-128.893180,44.343984,0.193092,0.088055,0.185379,-0.048860,0.195953,-0.037409,0.025498,0.065207,0.186863,0.194368,0.466993,9.160588,-1.980240,0.535821,0,0,,38.990485,-76.939693,-9.016000,,,
2026-09-11T19:03:07.580,2.973802,0.250712,0.279666,2.321409,0.000000,-129.854483,44.674708,0.178284,0.092341,0.194403,-0.042514,0.202289,-0.034682,0.017071,0.086159,0.195886,0.473073,0.073158,10.368375,-1.948482,0.528207,0,0,,38.990485,-76.939693,-9.016000,,,
2026-09-11T19:03:07.613,3.007212,0.250712,0.288031,2.321409,0.000000,-129.938254,44.703528,0.178195,0.087366,0.183929,-0.036194,0.208358,-0.031917,-0.019774,0.018781,0.185413,-0.296161,0.781002,8.517468,-1.962048,0.566593,0,0,,38.990485,-76.939693,-9.016000,,,
2026-09-11T19:03:07.648,3.040632,0.280124,0.297661,2.593736,0.000000,-129.938254,44.703528,0.199100,0.092721,0.195202,-0.029858,0.214758,-0.029117,-0.033781,0.011635,0.196685,-0.314695,0.193877,10.073293,-1.981034,0.566178,0,0,,38.990485,-76.939693,-9.016000,,,
2026-09-11T19:03:07.682,3.074049,0.251258,0.305668,2.326462,0.000000,-129.938254,44.703528,0.178583,0.091349,0.192314,-0.023384,0.221148,-0.026211,-0.062629,0.012403,0.193798,-0.754524,0.104735,9.598161,-2.024564,0.560292,0,0,,38.990485,-76.939693,-9.016000,,,
2026-09-11T19:03:07.714,3.107461,0.251258,0.314110,2.326462,0.000000,-129.938254,44.703528,0.178583,0.084342,0.177562,-0.017204,0.227174,-0.023398,-0.073749,0.012894,0.179046,-0.651652,0.015789,9.829598,-2.059135,0.548888,0,0,,38.990485,-76.939693,-9.016000,,,
2026-09-11T19:03:07.747,3.140864,0.231619,0.321456,2.144618,0.000000,-129.938254,44.703528,0.164624,0.080547,0.169573,-0.011407,0.232944,-0.020727,-0.075716,0.010185,0.171057,-0.879460,-0.046091,10.132819,-2.105941,0.533857,0,0,,38.990485,-76.939693,-9.016000,,,
2026-09-11T19:03:07.780,3.174267,0.183401,0.327064,1.698160,0.000000,-129.982200,44.718647,0.130320,0.074791,0.157455,-0.005945,0.237893,-0.018177,-0.059198,0.006184,0.158938,-0.560058,-0.085514,9.589629,-2.125850,0.516920,0,0,,38.990485,-76.939693,-9.016000,,,
2026-09-11T19:03:07.814,3.207666,0.202850,0.333854,1.878244,0.000000,-130.048804,44.741561,0.144082,0.072187,0.151972,-0.000778,0.242484,-0.015737,-0.042037,0.008189,0.153455,-0.508573,0.183777,9.614832,-2.141013,0.517500,0,0,,38.990485,-76.939693,-9.016000,,,
2026-09-11T19:03:07.848,3.241078,0.193047,0.340405,1.787469,0.000000,-130.779395,44.992911,0.136521,0.070744,0.148934,0.004249,0.247167,-0.013342,-0.016928,0.006861,0.150418,-0.439632,-0.256150,9.772915,-2.152967,0.489712,0,0,,38.990485,-76.939693,-9.016000,,,
2026-09-11T19:03:07.881,3.274482,0.164181,0.346190,1.520195,0.000000,-130.773215,44.990785,0.116112,0.055858,0.117595,0.008701,0.251374,-0.011201,0.012447,0.000756,0.119078,-0.195937,0.106991,9.674260,-2.150870,0.486160,0,0,,38.990485,-76.939693,-9.016000,,,
2026-09-11T19:03:07.914,3.307887,0.144937,0.350699,1.342012,0.000000,-130.773215,44.990785,0.102503,0.057305,0.120641,0.012680,0.255005,-0.009272,0.034253,-0.001377,0.122125,-0.527500,0.165732,9.687695,-2.173055,0.486529,0,0,,38.990485,-76.939693,-9.016000,,,
2026-09-11T19:03:07.949,3.341311,0.193531,0.357381,1.791954,0.000000,-130.806174,45.002124,0.136842,0.058206,0.122540,0.016744,0.258976,-0.007282,0.035475,0.003665,0.124023,-0.387461,-0.281647,9.939530,-2.180219,0.457656,0,0,,38.990485,-76.939693,-9.016000,,,
2026-09-11T19:03:07.983,3.374724,0.144433,0.362482,1.337344,0.000000,-130.817160,45.005904,0.102119,0.052712,0.110973,0.020645,0.262933,-0.005356,0.031361,0.003189,0.112456,-0.628606,0.181423,10.042304,-2.195774,0.459423,0,0,,38.990485,-76.939693,-9.016000,,,
2026-09-11T19:03:08.015,3.408139,0.144433,0.367304,1.337344,0.000000,-130.817160,45.005904,0.102119,0.047915,0.100873,0.024185,0.266307,-0.003598,0.025624,0.002815,0.102357,-0.492294,0.201232,9.754087,-2.204575,0.462519,0,0,,38.990485,-76.939693,-9.016000,,,
2026-09-11T19:03:08.047,3.441545,0.125146,0.371402,1.158760,0.000000,-130.817160,45.005904,0.088483,0.047726,0.100476,0.027548,0.269448,-0.001919,0.020755,0.001088,0.101960,-0.518183,0.154553,9.647096,-2.216281,0.462651,0,0,,38.990485,-76.939693,-9.016000,,,
2026-09-11T19:03:08.082,3.474948,0.125146,0.375564,1.158760,0.000000,-130.817160,45.005904,0.088483,0.045022,0.094784,0.030809,0.272357,-0.000285,0.009504,-0.000050,0.096267,-0.333622,-0.128859,9.739769,-2.227602,0.444485,0,0,,38.990485,-76.939693,-9.016000,,,
2026-09-11T19:03:08.116,3.508365,0.134871,0.380175,1.248802,0.000000,-130.624900,44.939759,0.095468,0.050781,0.106907,0.034179,0.275377,0.001415,0.033285,-0.012984,0.108391,-0.810716,0.585849,11.983530,-2.277939,0.472639,0,0,,38.990485,-76.939693,-9.016000,,,
2026-09-11T19:03:08.149,3.541786,0.193693,0.386051,1.793457,0.000000,-129.649863,44.604311,0.137904,0.052185,0.109864,0.037801,0.279212,0.003276,0.011058,-0.000423,0.111347,-1.960938,-0.312342,8.430385,-2.392617,0.442040,0,0,,38.990485,-76.939693,-9.016000,,,
2026-09-11T19:03:08.182,3.575203,0.193693,0.392539,1.793457,0.000000,-127.736869,43.946170,0.139458,0.015190,0.031978,0.040171,0.283800,0.004582,-0.031987,-0.005040,0.033462,-0.078551,-0.467287,9.147643,-2.375830,0.402452,0,1,3.576766,38.990486,-76.939692,-9.007000,0.336054,-0.000185,3.118242
2026-09-11T19:03:08.214,3.608619,0.039743,0.392924,0.367994,0.000000,-127.310462,43.799471,0.028685,0.028923,0.060892,0.041723,0.286576,0.005432,-0.009517,-0.004296,0.062375,-0.706765,0.885148,9.565112,-2.399047,0.450983,0,0,,38.990486,-76.939692,-9.007000,,,
2026-09-11T19:03:08.248,3.642036,0.020500,0.393303,0.189812,0.000000,-124.268622,42.752966,0.015053,0.030987,0.065237,0.043830,0.287264,0.006463,0.014280,-0.000512,0.066720,0.116013,-0.018142,9.944336,-2.371107,0.440581,0,0,,38.990486,-76.939692,-9.007000,,,
2026-09-11T19:03:08.283,3.675451,0.020500,0.393992,0.189812,0.000000,-123.761191,42.578391,0.015095,0.020957,0.044121,0.045657,0.287728,0.007352,0.026073,-0.004876,0.045604,-0.460913,0.323816,9.801060,-2.381699,0.452440,0,0,,38.990486,-76.939692,-9.007000,,,
2026-09-11T19:03:08.315,3.708865,0.020500,0.394678,0.189812,0.000000,-122.891211,42.279086,0.015167,0.023377,0.049214,0.047217,0.288199,0.008116,0.038213,-0.001933,0.050698,-0.775216,-0.035108,9.913052,-2.413408,0.440941,0,0,,38.990486,-76.939692,-9.007000,,,
2026-09-11T19:03:08.349,3.742285,0.273187,0.402334,2.529513,0.000000,-122.651572,42.196642,0.202389,0.014564,0.030660,0.048551,0.291800,0.008925,0.055593,-0.000861,0.032144,-0.306850,-0.169361,9.705053,-2.414030,0.420526,0,0,,38.990486,-76.939692,-9.007000,,,
2026-09-11T19:03:08.382,3.775689,0.155352,0.408544,1.438447,0.000000,-122.455191,42.129080,0.115215,0.013036,0.027445,0.049522,0.297075,0.009645,0.050646,-0.000922,0.028928,-0.412370,0.528284,9.635818,-2.433306,0.445667,0,0,,38.990486,-76.939692,-9.007000,,,
2026-09-11T19:03:08.415,3.809096,0.027698,0.408438,0.256460,0.000000,-122.089209,42.003168,0.020582,0.017839,0.037557,0.050608,0.299315,0.010273,0.026309,-0.002526,0.039040,-0.258994,0.115620,9.707799,-2.446075,0.443993,0,0,,38.990486,-76.939692,-9.007000,,,
2026-09-11T19:03:08.448,3.842503,0.008059,0.408535,0.074616,0.000000,-121.583838,41.829302,0.006005,0.016518,0.034775,0.051816,0.299729,0.010868,0.013042,-0.006555,0.036258,-0.293121,0.106304,9.672103,-2.454852,0.441772,0,0,,38.990486,-76.939692,-9.007000,,,
2026-09-11T19:03:08.483,3.875922,0.009820,0.408709,0.090922,0.000000,-120.263419,41.375029,0.007369,0.010424,0.021945,0.052764,0.299929,0.011330,-0.008090,-0.000133,0.023428,-0.275567,0.122387,9.773111,-2.465941,0.440618,0,0,,38.990486,-76.939692,-9.007000,,,
2026-09-11T19:03:08.515,3.909323,0.009820,0.409036,0.090922,0.000000,-117.863593,40.549401,0.007461,0.009870,0.020780,0.053477,0.300158,0.011681,-0.028516,0.000291,0.022263,-0.323129,0.168478,9.759284,-2.494212,0.442459,0,0,,38.990486,-76.939692,-9.007000,,,
2026-09-11T19:03:08.548,3.942728,0.009820,0.409364,0.090922,0.000000,-114.003959,39.221545,0.007607,0.009473,0.019943,0.054157,0.300392,0.012017,-0.058873,-0.001489,0.021427,-0.136116,0.175245,9.747908,-2.514631,0.444717,0,0,,38.990486,-76.939692,-9.007000,,,
2026-09-11T19:03:08.582,3.976133,0.009820,0.409691,0.090922,0.000000,-109.193320,37.566509,0.007783,0.008252,0.017374,0.054781,0.300633,0.012327,-0.057715,0.001850,0.018857,-0.094046,0.273802,9.767129,-2.516697,0.453326,0,0,,38.990486,-76.939692,-9.007000,,,
2026-09-11T19:03:08.616,4.009534,0.009820,0.410019,0.090922,0.000000,-107.061286,36.833011,0.007859,0.011361,0.023917,0.055470,0.300875,0.012668,-0.027587,-0.000370,0.025401,0.080709,0.315872,9.761834,-2.507556,0.464556,0,0,,38.990486,-76.939692,-9.007000,,,
2026-09-11T19:03:08.650,4.042940,0.299124,0.418467,2.769670,0.000000,-105.899482,36.433308,0.240660,0.018964,0.039925,0.056537,0.304992,0.013408,0.026205,-0.001148,0.041408,0.432179,0.373241,9.719861,-2.484959,0.478766,0,0,,38.990486,-76.939692,-9.007000,,,
2026-09-11T19:03:08.682,4.076350,0.133807,0.423995,1.238953,0.000000,-105.163398,36.180068,0.108004,0.026982,0.056804,0.058152,0.310762,0.014507,0.054295,-0.003775,0.058288,0.658517,0.555547,9.795863,-2.451330,0.504837,0,0,,38.990486,-76.939692,-9.007000,,,
2026-09-11T19:03:08.716,4.109749,0.046286,0.424422,0.428574,0.000000,-103.698783,35.676187,0.037599,0.035110,0.073916,0.060335,0.313128,0.015685,0.070301,-0.005792,0.075399,0.532697,0.507984,9.742220,-2.433095,0.527753,0,0,,38.990486,-76.939692,-9.007000,,,
2026-09-11T19:03:08.750,4.143153,0.046286,0.425961,0.428574,0.000000,-98.378653,33.845867,0.038442,0.039455,0.083064,0.062957,0.314319,0.017006,0.040214,-0.003441,0.084548,0.482487,0.092869,9.607673,-2.421521,0.523542,0,0,,38.990486,-76.939692,-9.007000,,,
2026-09-11T19:03:08.784,4.176571,0.291744,0.439550,2.701334,0.000000,-96.007666,33.030160,0.244594,0.035547,0.074836,0.065596,0.318958,0.018565,0.031039,-0.010363,0.076319,-0.240753,-0.225553,9.458710,-2.455785,0.497794,0,0,,38.990486,-76.939692,-9.007000,,,
2026-09-11T19:03:08.816,4.209988,0.128172,0.441646,1.186780,0.000000,-91.991477,31.648444,0.109111,0.043038,0.090606,0.068360,0.324767,0.020267,0.026249,-0.004413,0.092090,0.038148,0.785709,9.243062,-2.476552,0.538311,0,0,,38.990486,-76.939692,-9.007000,,,
2026-09-11T19:03:08.849,4.243391,0.225360,0.448277,2.086665,0.000000,-90.090842,30.994556,0.193182,0.034949,0.073576,0.071102,0.329712,0.021920,0.024123,0.001190,0.075059,0.014612,0.245166,9.470086,-2.500791,0.543121,0,0,,38.990486,-76.939692,-9.007000,,,
2026-09-11T19:03:08.884,4.276892,0.244999,0.456354,2.268509,0.000000,-88.777976,30.542882,0.211005,0.050382,0.106067,0.074111,0.336361,0.023837,0.014951,-0.000944,0.107550,0.197702,-0.384323,9.902951,-2.500147,0.506529,0,0,,38.990486,-76.939692,-9.007000,,,
2026-09-11T19:03:08.918,4.310309,0.177495,0.462991,1.643468,0.000000,-87.412238,30.073018,0.153602,0.051859,0.109178,0.077707,0.342306,0.026001,-0.011417,-0.004005,0.110661,0.068647,-0.313126,10.335817,-2.503745,0.475403,0,0,,38.990486,-76.939692,-9.007000,,,
2026-09-11T19:03:08.950,4.343719,0.177495,0.468915,1.643468,0.000000,-86.981025,29.924664,0.153831,0.050693,0.106723,0.081314,0.347289,0.028117,-0.013033,0.004522,0.108206,-0.399817,0.763644,9.868922,-2.552518,0.514309,0,0,,38.990486,-76.939692,-9.007000,,,
2026-09-11T19:03:08.983,4.377142,0.284861,0.478721,2.637599,0.000000,-86.981025,29.924664,0.246884,0.063991,0.134719,0.085349,0.353802,0.030587,-0.016197,-0.004122,0.136202,0.447674,0.255659,9.316514,-2.552326,0.518834,0,0,,38.990486,-76.939692,-9.007000,,,
2026-09-11T19:03:09.016,4.410551,0.236751,0.487050,2.192142,0.000000,-86.981025,29.924664,0.205188,0.064673,0.136153,0.089874,0.361137,0.033387,-0.014655,0.000993,0.137636,0.214864,0.398150,9.384474,-2.555268,0.532869,0,0,,38.990486,-76.939692,-9.007000,,,
2026-09-11T19:03:09.051,4.443967,0.265908,0.495777,2.462107,0.000000,-86.981025,29.924664,0.230457,0.060446,0.127254,0.094275,0.368193,0.036139,-0.020422,0.009352,0.128738,0.305575,0.599088,9.958555,-2.550276,0.559663,0,0,,38.990486,-76.939692,-9.007000,,,
2026-09-11T19:03:09.083,4.477375,0.324825,0.506643,3.007640,0.000000,-86.758551,29.848125,0.281736,0.070778,0.149007,0.098889,0.376497,0.039148,-0.031785,0.007298,0.150490,0.337153,1.148163,9.581588,-2.549158,0.620855,1,0,,38.990486,-76.939692,-9.007000,,,
2026-09-11T19:03:09.116,4.510780,0.305538,0.516643,2.829057,0.000000,-86.470160,29.748908,0.265271,0.073215,0.154138,0.103953,0.385342,0.042465,0.007403,0.016277,0.155621,-0.227907,0.802282,9.742220,-2.582761,0.659062,1,0,,38.990486,-76.939692,-9.007000,,,
2026-09-11T19:03:09.150,4.544184,0.364440,0.528355,3.374444,0.000000,-85.911918,29.556852,0.317014,0.077138,0.162396,0.109239,0.394745,0.045999,-0.021817,0.007060,0.163880,0.268702,1.567887,9.386729,-2.590045,0.745683,1,0,,38.990486,-76.939692,-9.007000,,,
2026-09-11T19:03:09.184,4.577585,0.345196,0.539742,3.196261,0.000000,-85.486884,29.410625,0.300708,0.085070,0.179096,0.114942,0.404693,0.049844,-0.010347,-0.001710,0.180579,0.335289,1.134629,8.658291,-2.596949,0.803161,1,0,,38.990486,-76.939692,-9.007000,,,
2026-09-11T19:03:09.218,4.611003,0.394193,0.553089,3.649938,0.000000,-83.989997,28.895641,0.345117,0.085481,0.179961,0.120942,0.415074,0.053946,-0.017548,0.019296,0.181444,0.222219,-0.145236,9.452434,-2.606640,0.776676,1,0,,38.990486,-76.939692,-9.007000,,,
2026-09-11T19:03:09.251,4.644423,0.374825,0.565616,3.470604,0.000000,-82.030310,28.221437,0.330269,0.089394,0.188198,0.127094,0.425911,0.058241,-0.069337,0.009538,0.189681,0.413448,0.717651,9.870786,-2.602752,0.806323,1,1,4.650758,38.990487,-76.939690,-9.044000,0.447112,0.017235,3.095612
2026-09-11T19:03:09.284,4.677830,0.414404,0.579928,3.837077,0.000000,-80.284858,27.620937,0.367176,0.087852,0.184952,0.133327,0.437077,0.062691,-0.048800,0.004369,0.186435,0.298318,0.091006,9.727609,-2.608534,0.794719,1,0,,38.990487,-76.939690,-9.044000,,,
2026-09-11T19:03:09.318,4.711246,0.414404,0.593859,3.837077,0.000000,-78.304572,26.939646,0.369435,0.092207,0.194120,0.139660,0.448860,0.067346,-0.032944,0.001987,0.195603,0.231241,0.292630,9.274934,-2.615273,0.796042,1,0,,38.990487,-76.939690,-9.044000,,,
2026-09-11T19:03:09.351,4.744665,0.453683,0.609795,4.200765,0.000000,-76.604438,26.354738,0.406528,0.099379,0.209219,0.146400,0.461237,0.072365,0.037341,0.019999,0.210703,-0.131605,-1.221418,9.530789,-2.642893,0.698508,1,0,,38.990487,-76.939690,-9.044000,,,
2026-09-11T19:03:09.384,4.778069,0.492977,0.626033,4.564602,0.000000,-75.795569,26.076457,0.442796,0.098040,0.206399,0.153341,0.474771,0.077745,0.059117,0.006836,0.207883,0.568099,-1.539154,9.448904,-2.619248,0.581138,1,0,,38.990487,-76.939690,-9.044000,,,
2026-09-11T19:03:09.417,4.811553,0.512911,0.642504,4.749174,0.000000,-74.411979,25.600451,0.462558,0.099892,0.210300,0.160318,0.489224,0.083387,0.046843,0.002462,0.211783,0.306556,1.220830,10.957853,-2.605199,0.643358,1,0,,38.990487,-76.939690,-9.044000,,,
2026-09-11T19:03:09.452,4.844956,0.493462,0.659086,4.569089,0.000000,-72.173514,24.830337,0.447844,0.099699,0.209892,0.167336,0.503682,0.089155,0.022707,-0.004720,0.211375,-0.266349,2.729583,10.326305,-2.623111,0.802540,1,0,,38.990487,-76.939690,-9.044000,,,
2026-09-11T19:03:09.485,4.878379,0.532495,0.677250,4.930508,0.000000,-69.347281,23.858010,0.486994,0.092556,0.194856,0.174100,0.518532,0.094977,-0.004649,0.004795,0.196339,0.076884,-0.467777,9.148526,-2.617305,0.753061,1,0,,38.990487,-76.939690,-9.044000,,,
2026-09-11T19:03:09.518,4.911811,0.522877,0.694353,4.841453,0.000000,-66.221671,22.782685,0.482082,0.096990,0.204189,0.180770,0.533917,0.100955,-0.035023,-0.000538,0.205672,0.727850,0.728242,9.420660,-2.570361,0.781316,1,0,,38.990487,-76.939690,-9.044000,,,
2026-09-11T19:03:09.551,4.945210,0.542243,0.712559,5.020770,0.000000,-62.674460,21.562314,0.504296,0.098575,0.207527,0.187646,0.549512,0.107184,-0.057511,-0.026381,0.209010,-0.081199,0.622134,11.037385,-2.576745,0.801967,1,0,,38.990487,-76.939690,-9.044000,,,
2026-09-11T19:03:09.585,4.978631,0.542146,0.730988,5.019873,0.000000,-60.051474,20.659911,0.507281,0.092356,0.194433,0.194362,0.565503,0.113525,-0.042606,-0.005443,0.195916,-0.232516,-1.351356,8.709482,-2.595677,0.695074,1,0,,38.990487,-76.939690,-9.044000,,,
2026-09-11T19:03:09.618,5.012040,0.532503,0.748715,4.930581,0.000000,-58.573127,20.151305,0.499906,0.091973,0.193627,0.200845,0.581395,0.119847,-0.075394,-0.008055,0.195111,-2.481377,1.789321,9.096747,-2.761225,0.792702,1,0,,38.990487,-76.939690,-9.044000,,,
2026-09-11T19:03:09.652,5.045446,0.483563,0.764691,4.477436,0.000000,-57.983298,19.948382,0.454549,0.082247,0.173152,0.206971,0.596419,0.125923,-0.104940,0.023563,0.174635,-1.538860,-1.075103,10.576570,-2.867230,0.705116,1,0,,38.990487,-76.939690,-9.044000,,,
2026-09-11T19:03:09.685,5.078851,0.445269,0.778599,4.122865,0.000000,-58.043723,19.969171,0.418498,0.060245,0.126832,0.211982,0.610189,0.131282,-0.111657,-0.034199,0.128315,0.253698,1.836491,10.239025,-2.861185,0.808504,1,0,,38.990487,-76.939690,-9.044000,,,
2026-09-11T19:03:09.720,5.112253,0.425982,0.792968,3.944282,0.000000,-57.938666,19.933027,0.400463,0.078551,0.165372,0.216862,0.623059,0.136456,-0.013282,0.009890,0.166855,-0.537404,0.603697,9.835580,-2.908605,0.830148,1,0,,38.990487,-76.939690,-9.044000,,,
2026-09-11T19:03:09.753,5.145658,0.455235,0.808352,4.215142,0.000000,-58.141913,20.002952,0.427773,0.075937,0.159867,0.222294,0.635998,0.141989,-0.018443,0.012617,0.161350,0.349509,-1.694197,9.554227,-2.900922,0.702774,1,0,,38.990487,-76.939690,-9.044000,,,
2026-09-11T19:03:09.785,5.179080,0.465051,0.823692,4.306028,0.000000,-58.131614,19.999408,0.437007,0.076141,0.160297,0.227644,0.649518,0.147691,-0.010018,-0.009171,0.161780,0.618211,0.341173,9.007800,-2.879843,0.708365,1,0,,38.990487,-76.939690,-9.044000,,,
2026-09-11T19:03:09.818,5.212483,0.504153,0.840671,4.668086,0.000000,-58.131614,19.999408,0.473751,0.081120,0.170780,0.233174,0.663727,0.153723,0.001820,-0.005462,0.172263,0.801007,-0.675384,9.657785,-2.852272,0.647437,1,0,,38.990487,-76.939690,-9.044000,,,
2026-09-11T19:03:09.853,5.245888,0.553093,0.859252,5.121231,0.000000,-57.839103,19.898774,0.520071,0.088137,0.185552,0.239125,0.679203,0.160357,0.058636,-0.011949,0.187035,1.377932,0.408937,9.875787,-2.796386,0.656309,1,0,,38.990487,-76.939690,-9.044000,,,
2026-09-11T19:03:09.887,5.279306,0.601993,0.879427,5.574011,0.000000,-56.234412,19.346701,0.567999,0.096386,0.202917,0.245616,0.696111,0.167716,0.052124,-0.008151,0.204401,1.201119,0.012160,9.712310,-2.764464,0.638198,1,0,,38.990487,-76.939690,-9.044000,,,
2026-09-11T19:03:09.919,5.312725,0.660576,0.901350,6.116448,0.000000,-53.605933,18.442408,0.626651,0.086406,0.181907,0.252047,0.714706,0.175596,0.015467,-0.026952,0.183391,1.085596,0.084828,9.771052,-2.752776,0.625071,1,0,,38.990487,-76.939690,-9.044000,,,
2026-09-11T19:03:09.952,5.346129,0.680216,0.923668,6.298292,0.000000,-48.303656,16.618230,0.651804,0.084986,0.178918,0.258073,0.734645,0.183754,-0.040833,-0.002767,0.180402,0.283804,-0.355687,9.566485,-2.802896,0.583433,1,0,,38.990487,-76.939690,-9.044000,,,
2026-09-11T19:03:09.986,5.379529,0.709627,0.947030,6.570620,0.000000,-43.485465,14.960596,0.685573,0.077379,0.162904,0.263781,0.755524,0.192137,-0.084038,0.000952,0.164388,0.751974,-0.043640,9.088117,-2.826608,0.562762,1,0,,38.990487,-76.939690,-9.044000,,,
2026-09-11T19:03:10.020,5.412948,0.748804,0.972037,6.933374,0.000000,-37.946982,13.055154,0.729450,0.072596,0.152833,0.269057,0.777674,0.200782,-0.139518,0.003333,0.154316,1.280454,0.454734,9.182653,-2.819079,0.574570,1,0,,38.990487,-76.939690,-9.044000,,,
2026-09-11T19:03:10.052,5.446356,0.778055,0.997839,7.204217,0.000000,-32.332969,11.123728,0.763438,0.068446,0.144097,0.274017,0.801065,0.209741,-0.127604,-0.045372,0.145581,1.632611,-0.386480,9.592963,-2.792014,0.531922,1,0,,38.990487,-76.939690,-9.044000,,,
2026-09-11T19:03:10.085,5.479756,0.846120,1.026413,7.834447,0.000000,-28.987632,9.972809,0.833335,0.063965,0.134663,0.278672,0.826115,0.219147,-0.097349,-0.026601,0.136146,1.634278,-0.126506,9.239335,-2.759113,0.506428,1,0,,38.990487,-76.939690,-9.044000,,,
2026-09-11T19:03:10.119,5.513157,0.904597,1.056827,8.375895,0.000000,-25.499472,8.772754,0.894014,0.060721,0.127833,0.283056,0.853255,0.229146,-0.071382,-0.076890,0.129317,1.581322,0.245853,9.421249,-2.723975,0.505163,1,0,,38.990487,-76.939690,-9.044000,,,
2026-09-11T19:03:10.154,5.546572,0.973270,1.089761,9.011763,0.000000,-21.080222,7.252370,0.965484,0.063266,0.133191,0.287417,0.882483,0.239878,-0.052342,-0.090660,0.134674,0.962719,0.043542,9.562268,-2.726925,0.489895,1,0,,38.990487,-76.939690,-9.044000,,,
2026-09-11T19:03:10.187,5.579991,1.012357,1.123592,9.373675,0.000000,-20.755439,7.140633,1.004505,0.060748,0.127891,0.291780,0.913438,0.251266,-0.034975,-0.093883,0.129374,1.123744,0.069039,9.342011,-2.717960,0.476454,1,1,5.574713,38.990488,-76.939685,-9.027000,0.934989,0.205340,3.420980
2026-09-11T19:03:10.219,5.613394,1.071328,1.159027,9.919701,0.000000,-20.667548,7.110395,1.063089,0.067529,0.142167,0.296290,0.945866,0.263326,0.009986,-0.132060,0.143651,1.257507,0.250070,9.312395,-2.699319,0.473410,1,0,,38.990488,-76.939685,-9.027000,,,
2026-09-11T19:03:10.253,5.646833,1.091099,1.195559,10.102772,0.000000,-20.634589,7.099056,1.082735,0.083305,0.175379,0.301599,0.979408,0.276303,0.092441,-0.133405,0.176862,0.868183,0.845529,8.759986,-2.701393,0.506442,1,0,,38.990488,-76.939685,-9.027000,,,
2026-09-11T19:03:10.287,5.680254,1.159510,1.234916,10.736207,0.000000,-21.913810,7.539155,1.149487,0.085538,0.180080,0.307539,1.014146,0.290184,0.152952,-0.158991,0.181563,1.386170,1.340863,8.247491,-2.664580,0.570038,1,0,,38.990488,-76.939685,-9.027000,,,
2026-09-11T19:03:10.320,5.713662,1.189058,1.274398,11.009797,0.000000,-23.458762,8.070675,1.177281,0.094008,0.197912,0.313853,1.050233,0.304923,0.197207,-0.072665,0.199395,-0.502591,-1.313405,9.390162,-2.743806,0.459525,1,0,,38.990488,-76.939685,-9.027000,,,
2026-09-11T19:03:10.353,5.747069,1.150540,1.312832,10.653144,0.000000,-23.678489,8.146269,1.138930,0.085418,0.179828,0.320163,1.086060,0.319829,0.154575,0.011905,0.181311,0.143373,0.331563,8.306723,-2.768235,0.458468,1,0,,38.990488,-76.939685,-9.027000,,,
2026-09-11T19:03:10.386,5.780471,1.189695,1.352973,11.015695,0.000000,-22.927298,7.887832,1.178439,0.082870,0.174463,0.326080,1.121868,0.334785,0.187996,-0.011664,0.175947,1.158558,-0.469444,9.161667,-2.713870,0.405566,1,0,,38.990488,-76.939685,-9.027000,,,
2026-09-11T19:03:10.421,5.813878,1.219041,1.393637,11.287418,0.000000,-20.271354,6.974090,1.210022,0.068576,0.144370,0.331406,1.158810,0.350061,0.108002,-0.041079,0.145854,1.032934,1.109819,9.902265,-2.658609,0.457395,1,0,,38.990488,-76.939685,-9.027000,,,
2026-09-11T19:03:10.454,5.847290,1.248308,1.435546,11.558408,0.000000,-19.941764,6.860699,1.239370,0.053141,0.111876,0.335686,1.196808,0.365380,0.081779,0.010370,0.113359,2.034390,0.198290,9.972677,-2.528487,0.452019,1,0,,38.990488,-76.939685,-9.027000,,,
2026-09-11T19:03:10.486,5.880692,1.258193,1.477185,11.649933,0.000000,-16.831946,5.790807,1.251772,0.049276,0.103739,0.339287,1.235499,0.380770,-0.042608,-0.014119,0.105222,0.957129,0.492392,8.252492,-2.461385,0.466294,1,0,,38.990488,-76.939685,-9.027000,,,
2026-09-11T19:03:10.520,5.914097,1.248988,1.518988,11.564705,0.000000,-13.476309,4.636345,1.244901,0.036274,0.076366,0.342296,1.274325,0.396055,-0.134447,-0.013338,0.077850,0.070314,-1.063335,7.887881,-2.444985,0.382037,1,0,,38.990488,-76.939685,-9.027000,,,
2026-09-11T19:03:10.555,5.947499,1.249522,1.560875,11.569649,0.000000,-11.752829,4.043404,1.246412,0.039703,0.083586,0.344967,1.313073,0.411268,-0.096362,-0.017228,0.085069,0.408741,3.051535,8.828437,-2.400854,0.564263,1,0,,38.990488,-76.939685,-9.027000,,,
2026-09-11T19:03:10.589,5.980914,1.249862,1.602809,11.572800,0.000000,-11.702704,4.026159,1.246778,0.040081,0.084381,0.347773,1.351800,0.426662,-0.075711,0.057228,0.085864,0.256248,-2.626319,9.253359,-2.369746,0.377120,1,0,,38.990488,-76.939685,-9.027000,,,
2026-09-11T19:03:10.620,6.014318,1.191908,1.642001,11.036186,0.000000,-11.614813,3.995922,1.189011,0.039116,0.082350,0.350558,1.389576,0.441822,0.024584,0.023535,0.083833,-1.431575,0.390893,9.950416,-2.447610,0.387726,1,0,,38.990488,-76.939685,-9.027000,,,
2026-09-11T19:03:10.654,6.047725,1.182573,1.681367,10.949749,0.000000,-11.614813,3.995922,1.179698,0.048363,0.101816,0.353634,1.426210,0.456838,0.028440,0.001000,0.103299,-0.411193,2.404787,9.411638,-2.455453,0.527047,1,0,,38.990488,-76.939685,-9.027000,,,
2026-09-11T19:03:10.688,6.081134,1.153785,1.719778,10.683191,0.000000,-12.506079,4.302550,1.150533,0.049394,0.103988,0.357072,1.462136,0.471912,0.011297,0.017150,0.105472,-0.943400,0.798948,10.352488,-2.495092,0.560987,1,0,,38.990488,-76.939685,-9.027000,,,
2026-09-11T19:03:10.721,6.114544,1.115337,1.756876,10.327194,0.000000,-13.099341,4.506654,1.111889,0.042990,0.090506,0.360321,1.496984,0.486623,0.049400,0.035461,0.091990,-0.468268,0.674992,10.871456,-2.500929,0.587763,1,0,,38.990488,-76.939685,-9.027000,,,
2026-09-11T19:03:10.753,6.147945,1.106231,1.793639,10.242884,0.000000,-13.263449,4.563113,1.102725,0.038405,0.080853,0.363183,1.531093,0.500984,0.040473,0.008291,0.082336,-0.085318,0.227416,10.682090,-2.483493,0.586030,1,0,,38.990488,-76.939685,-9.027000,,,
2026-09-11T19:03:10.787,6.181352,1.087160,1.830281,10.066297,0.000000,-13.279242,4.568546,1.083706,0.037368,0.078670,0.365847,1.564765,0.515186,0.045628,0.033734,0.080153,-0.770705,-2.427538,11.302360,-2.514069,0.412829,1,0,,38.990488,-76.939685,-9.027000,,,
2026-09-11T19:03:10.823,6.214768,1.107349,1.867690,10.253230,0.000000,-13.196844,4.540199,1.103874,0.040713,0.085711,0.368594,1.598409,0.529526,0.044411,0.002371,0.087195,-0.481997,1.782555,7.573774,-2.529920,0.513300,1,0,,38.990488,-76.939685,-9.027000,,,
2026-09-11T19:03:10.855,6.248185,1.117790,1.904623,10.349904,0.000000,-12.380423,4.259320,1.114702,0.025083,0.052806,0.370908,1.632576,0.543948,0.040671,0.035890,0.054290,-0.368338,2.117256,10.141940,-2.543908,0.636635,1,0,,38.990488,-76.939685,-9.027000,,,
2026-09-11T19:03:10.888,6.281596,1.098773,1.941403,10.173828,0.000000,-10.536780,3.625039,1.096575,0.029886,0.062919,0.372841,1.666658,0.558226,-0.018182,0.028931,0.064402,0.074825,-0.748051,12.750999,-2.535381,0.572558,1,0,,38.990488,-76.939685,-9.027000,,,
2026-09-11T19:03:10.921,6.315002,1.138194,1.979321,10.538836,0.000000,-8.248190,2.837680,1.136799,0.022057,0.046436,0.374668,1.701069,0.572654,-0.041231,-0.027685,0.047919,-0.263701,-1.966331,10.693269,-2.555113,0.431448,1,0,,38.990488,-76.939685,-9.027000,,,
2026-09-11T19:03:10.954,6.348405,1.119022,2.016819,10.361316,0.000000,-7.000555,2.408448,1.118034,0.012868,0.027091,0.375896,1.735893,0.587000,-0.013786,-0.025200,0.028575,-0.017750,-2.023014,17.513108,-2.567398,0.289707,1,0,,38.990488,-76.939685,-9.027000,,,
2026-09-11T19:03:10.989,6.381817,1.138740,2.055555,10.543892,0.000000,-6.471837,2.226550,1.137881,0.016701,0.035160,0.376936,1.770760,0.601313,0.084879,0.142694,0.036644,-0.407564,-1.477666,3.058792,-2.613334,0.184151,1,0,,38.990488,-76.939685,-9.027000,,,
2026-09-11T19:03:11.022,6.415208,1.148542,2.093801,10.634651,0.000000,-6.232198,2.144105,1.147738,0.009928,0.020900,0.377872,1.806071,0.615789,0.141945,0.008631,0.022384,1.204649,0.433160,8.067441,-2.560471,0.204401,1,0,,38.990488,-76.939685,-9.027000,,,
2026-09-11T19:03:11.054,6.448636,1.187249,2.133312,10.993048,0.000000,-5.803731,1.996697,1.186528,0.011408,0.024018,0.378623,1.842197,0.630528,0.084413,-0.037404,0.025501,1.294380,2.061848,9.386239,-2.504670,0.329570,1,0,,38.990488,-76.939685,-9.027000,,,
2026-09-11T19:03:11.088,6.482028,1.216599,2.173956,11.264804,0.000000,-5.242742,1.803696,1.215996,0.001608,0.003385,0.379080,1.879385,0.645566,0.111598,0.006460,0.004868,-0.362846,1.395094,13.991344,-2.559125,0.411689,1,0,,38.990488,-76.939685,-9.027000,,,
2026-09-11T19:03:11.123,6.515448,1.217198,2.214521,11.270351,0.000000,-3.653844,1.257057,1.216905,0.010510,0.022126,0.379507,1.917073,0.660806,0.073735,-0.007435,0.023609,1.525719,-1.163167,9.831167,-2.495095,0.325953,1,0,,38.990488,-76.939685,-9.027000,,,
2026-09-11T19:03:11.156,6.548876,1.246720,2.256609,11.543704,0.000000,-0.736288,0.253310,1.246708,-0.009313,-0.019607,0.379549,1.955313,0.676081,0.017312,0.013872,-0.018123,0.268408,-0.438946,8.987991,-2.512419,0.291343,1,0,,38.990488,-76.939685,-9.027000,,,
2026-09-11T19:03:11.190,6.582289,1.276242,2.299285,11.817057,0.000000,5.720928,-1.968209,1.275489,-0.025641,-0.053982,0.378319,1.994677,0.691125,-0.022212,0.021500,-0.052498,1.689392,-0.378733,10.585494,-2.435721,0.263901,1,1,6.571789,38.990489,-76.939672,-9.145000,1.989534,0.317091,4.618835
2026-09-11T19:03:11.222,6.615697,1.315046,2.343071,12.176351,0.000000,8.145473,-2.802342,1.313473,-0.048306,-0.101696,0.375719,2.035339,0.705897,-0.040615,0.005407,-0.100213,0.437671,0.994983,9.732022,-2.439722,0.329810,1,0,,38.990489,-76.939672,-9.145000,,,
2026-09-11T19:03:11.255,6.649099,1.363861,2.388831,12.628342,0.000000,12.205608,-4.199177,1.360200,-0.066529,-0.140061,0.371681,2.077611,0.720411,-0.056854,-0.015592,-0.138578,0.200644,2.267886,10.169202,-2.455388,0.480989,1,0,,38.990489,-76.939672,-9.145000,,,
2026-09-11T19:03:11.290,6.682510,1.383660,2.435599,12.811670,0.000000,14.881466,-5.119770,1.378140,-0.070386,-0.148182,0.366866,2.121098,0.734788,-0.045728,0.004075,-0.146698,0.413645,-0.786984,10.970405,-2.450907,0.433793,1,0,,38.990489,-76.939672,-9.145000,,,
2026-09-11T19:03:11.323,6.715925,1.403444,2.483022,12.994851,0.000000,15.235775,-5.241666,1.397575,-0.068066,-0.143297,0.361996,2.165253,0.749155,-0.050404,-0.013958,-0.141814,0.749130,1.073828,7.606234,-2.415423,0.507254,1,0,,38.990489,-76.939672,-9.145000,,,
2026-09-11T19:03:11.355,6.749334,1.452839,2.530815,13.452209,0.000000,15.285900,-5.258911,1.446723,-0.066310,-0.139600,0.357270,2.210516,0.763773,-0.050668,0.025214,-0.138116,0.731870,-2.620631,9.100081,-2.375216,0.341013,1,0,,38.990489,-76.939672,-9.145000,,,
2026-09-11T19:03:11.389,6.782744,1.463018,2.580079,13.546465,0.000000,15.211056,-5.233161,1.456920,-0.068760,-0.144757,0.352520,2.256783,0.778513,-0.011726,0.042311,-0.143273,0.390109,-3.010445,10.364943,-2.353802,0.151970,1,0,,38.990489,-76.939672,-9.145000,,,
2026-09-11T19:03:11.424,6.816191,1.463539,2.629168,13.551283,0.000000,14.970730,-5.150480,1.457629,-0.055849,-0.117577,0.348133,2.303279,0.793284,-0.079608,0.068375,-0.116094,0.113953,-1.331057,12.041488,-2.344883,0.071017,1,0,,38.990489,-76.939672,-9.145000,,,
2026-09-11T19:03:11.457,6.849622,1.454174,2.677349,13.464576,0.000000,14.240139,-4.899130,1.448862,-0.049346,-0.103887,0.344431,2.349575,0.808119,-0.063379,0.064456,-0.102404,0.387461,1.458837,11.453285,-2.314715,0.170227,1,0,,38.990489,-76.939672,-9.145000,,,
2026-09-11T19:03:11.489,6.883031,1.444826,2.725029,13.378015,0.000000,11.983822,-4.122874,1.441087,-0.039199,-0.082524,0.341317,2.395539,0.822956,-0.033508,0.019996,-0.081041,-3.019075,-2.369189,9.851565,-2.502955,0.018617,1,0,,38.990489,-76.939672,-9.145000,,,
2026-09-11T19:03:11.523,6.916434,1.425381,2.772811,13.197969,0.000000,10.581005,-3.640254,1.422505,-0.026828,-0.056480,0.338996,2.440993,0.837874,0.022834,0.093427,-0.054997,0.096399,-0.651554,10.791826,-2.485303,-0.022697,1,0,,38.990489,-76.939672,-9.145000,,,
2026-09-11T19:03:11.557,6.949849,1.395862,2.819559,12.924653,0.000000,9.054592,-3.115112,1.393800,-0.045633,-0.096070,0.336447,2.485788,0.852322,-0.052611,-0.050674,-0.094586,-0.680876,5.270486,7.032643,-2.518247,0.323021,1,0,,38.990489,-76.939672,-9.145000,,,
2026-09-11T19:03:11.590,6.983287,1.347652,2.866022,12.478260,0.000000,8.321255,-2.862817,1.345970,0.012095,0.025463,0.335267,2.529220,0.866890,0.042473,0.034050,0.026947,-5.577140,-0.463953,11.635590,-2.867883,0.283013,1,0,,38.990489,-76.939672,-9.145000,,,
2026-09-11T19:03:11.622,7.016693,1.328339,2.908889,12.299437,0.000000,6.068371,-2.087742,1.327457,-0.052457,-0.110437,0.333847,2.571619,0.880916,0.086877,-0.013677,-0.108953,0.606051,3.187946,4.891557,-2.814582,0.491392,1,0,,38.990489,-76.939672,-9.145000,,,
2026-09-11T19:03:11.657,7.050100,1.319261,2.952071,12.215380,0.000000,5.616558,-1.932302,1.318511,0.000882,0.001857,0.332034,2.613671,0.894547,-0.023651,-0.160757,0.003341,-1.742348,6.996162,1.412844,-2.918806,0.934208,1,0,,38.990489,-76.939672,-9.145000,,,
2026-09-11T19:03:11.691,7.083515,1.300010,2.996019,12.037126,0.000000,5.224483,-1.797414,1.299370,-0.009344,-0.019672,0.331736,2.655069,0.908664,0.055469,0.042652,-0.018189,1.272021,-3.591588,5.025712,-2.831195,0.688946,1,0,,38.990489,-76.939672,-9.145000,,,
2026-09-11T19:03:11.723,7.116923,1.329334,3.040648,12.308649,0.000000,5.218304,-1.795288,1.328682,-0.006787,-0.014288,0.331169,2.696666,0.922695,0.025769,0.006429,-0.012804,0.367259,-2.009971,8.038609,-2.806126,0.548353,1,0,,38.990489,-76.939672,-9.145000,,,
2026-09-11T19:03:11.757,7.150326,1.348983,3.085659,12.490584,0.000000,5.142773,-1.769303,1.348340,-0.020386,-0.042917,0.330213,2.739101,0.936782,-0.000134,-0.037400,-0.041434,0.253796,1.458837,7.367148,-2.792927,0.636213,1,0,,38.990489,-76.939672,-9.145000,,,
2026-09-11T19:03:11.791,7.183738,1.358822,3.131331,12.581690,0.000000,5.573299,-1.917420,1.358062,0.000223,0.000469,0.329504,2.781986,0.951109,0.065411,0.068468,0.001953,-0.388638,-1.371068,10.301200,-2.828246,0.536255,1,0,,38.990489,-76.939672,-9.145000,,,
2026-09-11T19:03:11.823,7.217149,1.388345,3.178053,12.855043,0.000000,5.686596,-1.956398,1.387535,-0.014633,-0.030807,0.328997,2.825467,0.965711,-0.031075,0.055955,-0.029324,-0.077276,-1.930145,9.669455,-2.851733,0.404046,1,0,,38.990489,-76.939672,-9.145000,,,
2026-09-11T19:03:11.856,7.250554,1.427595,3.225961,13.218475,0.000000,5.830791,-2.006006,1.426720,-0.022058,-0.046437,0.327707,2.870158,0.980289,-0.072889,0.001898,-0.044954,0.319991,2.173350,11.454952,-2.856715,0.540265,1,0,,38.990489,-76.939672,-9.145000,,,
2026-09-11T19:03:11.890,7.283955,1.466953,3.275201,13.582894,0.000000,5.588406,-1.922617,1.466127,-0.018468,-0.038881,0.326282,2.916127,0.995165,-0.083489,-0.032853,-0.037398,1.419709,-0.843274,7.953389,-2.796068,0.479266,1,0,,38.990489,-76.939672,-9.145000,,,
2026-09-11T19:03:11.924,7.317388,1.516167,3.326207,14.038588,0.000000,5.613125,-1.931121,1.515306,-0.012202,-0.025688,0.325203,2.963511,1.010628,-0.065097,0.021720,-0.024204,1.342432,-2.513150,7.242996,-2.747766,0.309616,1,0,,38.990489,-76.939672,-9.145000,,,
2026-09-11T19:03:11.957,7.350818,1.526347,3.376818,14.132847,0.000000,5.856884,-2.014983,1.525404,-0.019049,-0.040102,0.324103,3.011847,1.026345,-0.078474,0.042898,-0.038619,0.719220,-0.368534,10.066330,-2.745827,0.282120,1,0,,38.990489,-76.939672,-9.145000,,,
2026-09-11T19:03:11.990,7.384221,1.546428,3.428197,14.318779,0.000000,5.655697,-1.945767,1.545536,-0.019815,-0.041715,0.322737,3.060683,1.042030,-0.021956,-0.013571,-0.040232,0.680287,0.319010,7.364500,-2.745107,0.299631,1,0,,38.990489,-76.939672,-9.145000,,,
2026-09-11T19:03:12.023,7.417622,1.565874,3.480337,14.498830,0.000000,5.831478,-2.006242,1.564914,-0.014072,-0.029626,0.321545,3.110137,1.057939,-0.001871,0.026667,-0.028143,1.149928,-0.562117,10.045246,-2.712156,0.258793,1,0,,38.990489,-76.939672,-9.145000,,,
2026-09-11T19:03:12.058,7.451032,1.604778,3.534169,14.859058,0.000000,5.895336,-2.028212,1.603773,-0.019668,-0.041406,0.320359,3.160545,1.074103,0.033951,-0.003127,-0.039922,0.731576,-1.527386,9.015057,-2.702277,0.157252,1,0,,38.990489,-76.939672,-9.145000,,,
2026-09-11T19:03:12.091,7.484449,1.624142,3.588744,15.038354,0.000000,5.751141,-1.978603,1.623174,-0.043869,-0.092356,0.318124,3.212071,1.090016,0.047769,0.086877,-0.090872,0.979684,-1.877875,16.818013,-2.667680,0.039546,1,0,,38.990489,-76.939672,-9.145000,,,
2026-09-11T19:03:12.123,7.517854,1.653717,3.643297,15.312198,0.000000,5.304821,-1.825053,1.652878,-0.026111,-0.054970,0.315663,3.264430,1.105956,0.061476,0.156568,-0.053486,2.587190,-2.963864,4.549109,-2.521246,-0.150873,1,0,,38.990489,-76.939672,-9.145000,,,
2026-09-11T19:03:12.158,7.551261,1.683422,3.699570,15.587238,0.000000,6.555202,-2.255230,1.682118,-0.039586,-0.083340,0.313353,3.317742,1.122144,0.005430,0.009798,-0.081856,-0.000098,-2.184137,12.314211,-2.530485,-0.285564,1,0,,38.990489,-76.939672,-9.145000,,,
2026-09-11T19:03:12.192,7.584681,1.731927,3.758024,16.036357,0.000000,9.201534,-3.165665,1.729284,-0.060749,-0.127893,0.309823,3.372516,1.138023,0.013209,-0.019351,-0.126410,2.743999,-0.639786,6.866518,-2.351971,-0.313656,1,1,7.586514,38.990490,-76.939658,-9.455000,3.270227,0.459235,3.018073
2026-09-11T19:03:12.224,7.618101,1.780936,3.817774,16.490144,0.000000,11.403606,-3.923259,1.776762,-0.071624,-0.150786,0.305166,3.429024,1.153645,0.047581,0.026750,-0.149303,0.419136,-1.449913,7.999383,-2.323337,-0.390828,1,0,,38.990490,-76.939658,-9.455000,,,
2026-09-11T19:03:12.257,7.651506,1.761924,3.876699,16.314110,0.000000,11.897991,-4.093346,1.757429,-0.081490,-0.171558,0.299782,3.486135,1.168788,0.074322,0.064253,-0.170074,-0.167105,2.607392,8.755377,-2.330449,-0.202537,1,0,,38.990490,-76.939658,-9.455000,,,
2026-09-11T19:03:12.292,7.684908,1.781952,3.936005,16.499551,0.000000,11.967342,-4.117205,1.777353,-0.071184,-0.149861,0.294414,3.543329,1.183632,0.069815,0.111161,-0.148377,0.267133,-1.291045,10.408680,-2.304621,-0.270725,1,0,,38.990490,-76.939658,-9.455000,,,
2026-09-11T19:03:12.325,7.718320,1.734009,3.994616,16.055636,0.000000,12.136944,-4.175554,1.729406,-0.078664,-0.165608,0.289144,3.600156,1.198088,0.041847,0.029045,-0.164124,-1.654676,0.985863,8.090290,-2.399318,-0.189595,1,0,,38.990490,-76.939658,-9.455000,,,
2026-09-11T19:03:12.357,7.751728,1.715396,4.051442,15.883300,0.000000,13.063229,-4.494230,1.710122,-0.079953,-0.168323,0.283566,3.656018,1.211775,-0.050812,0.072077,-0.166840,-2.702811,0.523577,7.404511,-2.558340,-0.139179,1,0,,38.990490,-76.939658,-9.455000,,,
2026-09-11T19:03:12.392,7.785138,1.686822,4.107549,15.618725,0.000000,14.975536,-5.152134,1.680007,-0.088441,-0.186192,0.277644,3.711214,1.224757,0.001920,0.066597,-0.184708,-1.495318,1.048429,17.067788,-2.634392,-0.053753,1,0,,38.990490,-76.939658,-9.455000,,,
2026-09-11T19:03:12.426,7.818559,1.599603,4.161167,14.811139,0.000000,15.595577,-5.365451,1.592594,-0.081385,-0.171338,0.271670,3.764618,1.236862,0.001345,0.100949,-0.169854,-0.549074,-4.240297,8.230035,-2.644804,-0.314033,1,0,,38.990490,-76.939658,-9.455000,,,
2026-09-11T19:03:12.458,7.851972,1.589983,4.214589,14.722067,0.000000,15.423916,-5.306393,1.583169,-0.076135,-0.160285,0.266129,3.816468,1.248421,0.009425,0.008406,-0.158801,0.659105,-0.862005,7.256333,-2.571502,-0.354070,1,0,,38.990490,-76.939658,-9.455000,,,
2026-09-11T19:03:12.491,7.885378,1.590187,4.267111,14.723953,0.000000,15.355938,-5.283006,1.583432,-0.068685,-0.144601,0.261037,3.868163,1.259866,-0.056845,0.011174,-0.143117,-0.472190,-0.425707,10.277467,-2.570452,-0.367040,1,0,,38.990490,-76.939658,-9.455000,,,
2026-09-11T19:03:12.525,7.918780,1.590086,4.320424,14.723018,0.000000,14.677532,-5.049610,1.583915,-0.055203,-0.116217,0.256681,3.919828,1.271406,-0.101709,0.103254,-0.114733,-1.423729,-7.041273,13.639285,-2.631010,-0.810590,1,0,,38.990490,-76.939658,-9.455000,,,
2026-09-11T19:03:12.559,7.952192,1.570745,4.373185,14.543938,0.000000,10.530880,-3.623009,1.567606,-0.043151,-0.090844,0.253222,3.971190,1.283095,-0.104759,0.096941,-0.089360,-1.684488,5.608227,7.541412,-2.712814,-0.433782,1,0,,38.990490,-76.939658,-9.455000,,,
2026-09-11T19:03:12.591,7.985607,1.580910,4.426233,14.638052,0.000000,8.135860,-2.799035,1.579024,-0.030001,-0.063161,0.250649,4.022408,1.295017,-0.014300,0.047809,-0.061677,-1.926909,0.563784,5.878695,-2.818160,-0.390220,1,0,,38.990490,-76.939658,-9.455000,,,
2026-09-11T19:03:12.625,8.019027,1.581084,4.478561,14.639666,0.000000,8.036983,-2.765017,1.579243,-0.025526,-0.053739,0.248695,4.073776,1.307157,0.036807,-0.041362,-0.052255,1.439616,0.839547,7.780694,-2.710151,-0.330254,1,0,,38.990490,-76.939658,-9.455000,,,
2026-09-11T19:03:12.660,8.052473,1.591364,4.532348,14.734856,0.000000,7.515820,-2.585718,1.589744,-0.032347,-0.068098,0.246658,4.125390,1.319210,-0.002147,-0.066186,-0.066615,-1.177975,3.535494,12.848183,-2.784751,-0.094823,1,0,,38.990490,-76.939658,-9.455000,,,
2026-09-11T19:03:12.692,8.085887,1.601606,4.585524,14.829683,0.000000,7.248714,-2.493824,1.600089,-0.037413,-0.078764,0.244204,4.177369,1.331029,0.067308,0.057984,-0.077281,-0.957325,2.877860,13.340575,-2.857343,0.096391,1,0,,38.990490,-76.939658,-9.455000,,,
2026-09-11T19:03:12.725,8.119298,1.602053,4.638211,14.833825,0.000000,7.642849,-2.629421,1.600366,-0.028655,-0.060326,0.241881,4.229529,1.342824,0.094777,0.074076,-0.058843,0.049426,0.622722,10.661594,-2.872154,0.137684,1,0,,38.990490,-76.939658,-9.455000,,,
2026-09-11T19:03:12.758,8.152700,1.602793,4.691399,14.840677,0.000000,7.677181,-2.641232,1.601090,-0.027599,-0.058104,0.239903,4.281677,1.354667,0.099086,0.066253,-0.056620,0.688917,-0.795614,9.236786,-2.852354,0.086557,1,0,,38.990490,-76.939658,-9.455000,,,
2026-09-11T19:03:12.793,8.186121,1.603442,4.745277,14.846686,0.000000,7.648342,-2.631310,1.601751,-0.048249,-0.101577,0.237234,4.333981,1.366083,0.123340,0.001997,-0.100094,0.154455,3.815964,11.806226,-2.870999,0.338878,1,0,,38.990490,-76.939658,-9.455000,,,
2026-09-11T19:03:12.825,8.219528,1.652784,4.800581,15.303556,0.000000,7.920940,-2.725094,1.650915,-0.051849,-0.109157,0.233714,4.387203,1.377132,0.046186,-0.043627,-0.107673,0.757073,-3.056144,9.758500,-2.851495,0.144939,1,0,,38.990490,-76.939658,-9.455000,,,
2026-09-11T19:03:12.859,8.252936,1.672497,4.856196,15.486079,0.000000,8.961208,-3.082985,1.670076,-0.053842,-0.113351,0.229998,4.441597,1.388160,0.028912,-0.026988,-0.111867,0.274684,-1.711653,8.917089,-2.863983,0.040700,1,0,,38.990490,-76.939658,-9.455000,,,
2026-09-11T19:03:12.894,8.286367,1.691847,4.913873,15.665250,0.000000,9.272259,-3.189997,1.689225,-0.065275,-0.137422,0.225806,4.496747,1.398906,-0.055731,-0.002147,-0.135938,1.601524,-0.990472,8.142167,-2.792344,-0.013005,1,0,,38.990490,-76.939658,-9.455000,,,
2026-09-11T19:03:12.927,8.319773,1.740460,4.971943,16.115374,0.000000,9.321011,-3.206770,1.737735,-0.061837,-0.130182,0.221336,4.553034,1.409525,-0.089377,-0.056114,-0.128699,2.329079,-0.645180,10.233534,-2.676979,-0.044124,1,0,,38.990490,-76.939658,-9.455000,,,
2026-09-11T19:03:12.959,8.353178,1.799091,5.031662,16.658253,0.000000,9.189175,-3.161413,1.796353,-0.061996,-0.130519,0.216982,4.611101,1.420337,-0.125357,-0.012831,-0.129035,1.929164,-0.763742,6.516127,-2.588756,-0.082034,1,0,,38.990490,-76.939658,-9.455000,,,
2026-09-11T19:03:12.993,8.386586,1.857443,5.094283,17.198549,0.000000,8.596600,-2.957546,1.854969,-0.065286,-0.137444,0.212506,4.671145,1.431255,-0.078493,-0.128808,-0.135961,0.123466,2.749981,8.340752,-2.616998,0.109069,1,0,,38.990490,-76.939658,-9.455000,,,
2026-09-11T19:03:13.027,8.420011,1.906281,5.158132,17.650748,0.000000,7.297466,-2.510596,1.904451,-0.039942,-0.084088,0.208803,4.732954,1.442671,0.021888,0.103860,-0.082604,2.606215,2.257981,18.618318,-2.484150,0.260181,1,0,,38.990490,-76.939658,-9.455000,,,
2026-09-11T19:03:13.060,8.453432,1.897019,5.220948,17.564994,0.000000,6.292217,-2.164754,1.895665,-0.042374,-0.089209,0.205907,4.795378,1.454399,-0.104042,-0.025730,-0.087725,2.120394,-0.068058,16.331407,-2.381061,0.259668,1,0,,38.990490,-76.939658,-9.455000,,,
2026-09-11T19:03:13.093,8.486850,1.916979,5.284235,17.749808,0.000000,6.127422,-2.108058,1.915682,-0.032190,-0.067769,0.203284,4.857987,1.466117,-0.047843,-0.049997,-0.066285,0.363238,-1.073240,8.881295,-2.387840,0.191582,1,0,,38.990490,-76.939658,-9.455000,,,
2026-09-11T19:03:13.126,8.520260,1.917318,5.348338,17.752945,0.000000,5.234783,-1.800958,1.916371,-0.023014,-0.048450,0.201343,4.920882,1.478077,0.031154,0.032148,-0.046967,1.367439,3.875588,8.192377,-2.326520,0.442006,1,0,,38.990490,-76.939658,-9.455000,,,
2026-09-11T19:03:13.160,8.553666,1.956605,5.413831,18.116709,0.000000,4.842022,-1.665833,1.955778,-0.014932,-0.031436,0.200009,4.984387,1.490347,0.003949,-0.015408,-0.029953,1.292811,-0.288021,9.942963,-2.263251,0.418291,1,0,,38.990490,-76.939658,-9.455000,,,
2026-09-11T19:03:13.194,8.587078,1.976389,5.479653,18.299895,0.000000,4.952572,-1.703866,1.975515,-0.022267,-0.046877,0.198700,5.048884,1.502744,0.057795,-0.045774,-0.045394,0.701470,-0.963896,10.340524,-2.227699,0.353126,1,1,8.571173,38.990490,-76.939638,-9.289000,4.942576,0.447930,3.308545
2026-09-11T19:03:13.228,8.620489,1.967131,5.545687,18.214177,0.000000,4.908627,-1.688748,1.966277,-0.016933,-0.035649,0.197322,5.113577,1.515056,0.002306,0.031192,-0.034165,-0.434238,0.108560,11.726792,-2.253552,0.356604,1,0,,38.990490,-76.939638,-9.289000,,,
2026-09-11T19:03:13.260,8.653906,1.957244,5.611254,18.122633,0.000000,4.986217,-1.715442,1.956367,-0.018472,-0.038888,0.196076,5.177970,1.527285,-0.018363,-0.050272,-0.037404,0.380106,0.621742,9.961007,-2.212666,0.393636,1,0,,38.990490,-76.939638,-9.289000,,,
2026-09-11T19:03:13.293,8.687310,1.966981,5.676581,18.212785,0.000000,4.842709,-1.666069,1.966149,-0.019310,-0.040652,0.194748,5.242359,1.539387,0.028741,-0.021746,-0.039169,-0.965465,1.996340,8.744884,-2.252349,0.519400,1,0,,38.990490,-76.939638,-9.289000,,,
2026-09-11T19:03:13.326,8.720713,1.957872,5.741914,18.128442,0.000000,4.956692,-1.705284,1.957005,-0.013984,-0.029440,0.193577,5.306758,1.551484,-0.035170,0.024242,-0.027956,0.056682,2.705655,8.605826,-2.221073,0.688209,1,0,,38.990490,-76.939638,-9.289000,,,
2026-09-11T19:03:13.360,8.754120,1.958137,5.807270,18.130898,0.000000,5.032909,-1.731506,1.957243,-0.005064,-0.010662,0.192907,5.370983,1.563727,0.010235,0.037360,-0.009178,-0.653025,0.470131,10.312379,-2.230362,0.708181,1,0,,38.990490,-76.939638,-9.289000,,,
2026-09-11T19:03:13.394,8.787544,1.948517,5.873178,18.041827,0.000000,4.657314,-1.602287,1.947755,-0.019728,-0.041533,0.192035,5.435118,1.575804,0.002162,-0.019893,-0.040049,3.897065,1.547882,7.803838,-1.940632,0.801584,1,0,,38.990490,-76.939638,-9.289000,,,
2026-09-11T19:03:13.427,8.820952,1.910098,5.936404,17.686089,0.000000,5.015057,-1.725364,1.909232,0.008525,0.017948,0.191641,5.498400,1.587904,-0.206651,-0.097792,0.019432,-1.294772,-0.935751,4.281583,-1.984975,0.725786,1,0,,38.990490,-76.939638,-9.289000,,,
2026-09-11T19:03:13.460,8.854358,1.881605,5.999412,17.422265,0.000000,4.313305,-1.483935,1.880974,0.006170,0.012989,0.192158,5.560498,1.600219,0.048579,0.042803,0.014472,-1.837472,-7.265943,9.834207,-2.061379,0.242019,1,0,,38.990490,-76.939638,-9.289000,,,
2026-09-11T19:03:13.495,8.887763,1.833720,6.060091,16.978885,0.000000,2.993572,-1.029899,1.833423,0.003888,0.008185,0.192512,5.621361,1.612243,0.035509,0.108432,0.009668,-0.059526,-0.188092,16.290415,-2.021971,0.222036,1,0,,38.990490,-76.939638,-9.289000,,,
2026-09-11T19:03:13.528,8.921177,1.776164,6.119648,16.445959,0.000000,3.154934,-1.085413,1.775845,0.011567,0.024351,0.193055,5.680495,1.624049,-0.005940,-0.028446,0.025834,-1.262802,-1.327624,6.785712,-2.062769,0.126722,1,0,,38.990490,-76.939638,-9.289000,,,
2026-09-11T19:03:13.561,8.954581,1.767060,6.178316,16.361670,0.000000,2.760113,-0.949580,1.766818,0.010586,0.022286,0.193834,5.738490,1.635787,0.052726,0.056927,0.023769,-1.002142,-0.345096,9.633171,-2.089398,0.096287,1,0,,38.990490,-76.939638,-9.289000,,,
2026-09-11T19:03:13.595,8.987990,1.718914,6.236101,15.915869,0.000000,2.848003,-0.979818,1.718662,0.005907,0.012435,0.194414,5.795566,1.647289,0.046068,0.013175,0.013919,-0.710100,0.280176,14.249553,-2.099397,0.107794,1,0,,38.990490,-76.939638,-9.289000,,,
2026-09-11T19:03:13.629,9.021401,1.699647,6.293072,15.737470,0.000000,3.068417,-1.055648,1.699358,-0.009448,-0.019891,0.194289,5.851603,1.658259,0.049309,-0.038340,-0.018407,-0.942615,2.469609,7.772064,-2.125633,0.264375,1,0,,38.990490,-76.939638,-9.289000,,,
2026-09-11T19:03:13.661,9.054820,1.689922,6.349359,15.647427,0.000000,3.713177,-1.277469,1.689502,-0.021916,-0.046140,0.193186,5.907270,1.668646,0.066211,0.015720,-0.044656,-0.097282,1.196117,9.079487,-2.099412,0.339716,1,0,,38.990490,-76.939638,-9.289000,,,
2026-09-11T19:03:13.694,9.088251,1.680344,6.404866,15.558741,0.000000,4.430035,-1.524094,1.679750,-0.015442,-0.032509,0.191871,5.962668,1.678810,-0.016120,-0.031332,-0.031025,-0.274880,1.281925,7.925440,-2.089269,0.418294,1,0,,38.990490,-76.939638,-9.289000,,,
2026-09-11T19:03:13.729,9.121660,1.661178,6.460509,15.381274,0.000000,4.510372,-1.551734,1.660568,-0.014538,-0.030607,0.190817,6.017543,1.688930,-0.032045,-0.041975,-0.029124,0.416881,4.355526,10.209311,-2.039943,0.694540,1,0,,38.990490,-76.939638,-9.289000,,,
2026-09-11T19:03:13.763,9.155081,1.661516,6.516129,15.384411,0.000000,4.445141,-1.529292,1.660925,-0.003099,-0.006524,0.190197,6.072099,1.699151,-0.077069,0.002522,-0.005040,0.918589,-1.374206,11.782592,-1.966624,0.594445,1,0,,38.990490,-76.939638,-9.289000,,,
2026-09-11T19:03:13.794,9.188490,1.690964,6.572650,15.657071,0.000000,4.112804,-1.414956,1.690448,-0.001381,-0.002906,0.190039,6.127087,1.709656,-0.082162,0.003555,-0.001423,0.381479,2.542276,10.133310,-1.934323,0.748475,1,0,,38.990490,-76.939638,-9.289000,,,
2026-09-11T19:03:13.828,9.221892,1.710704,6.629524,15.839850,0.000000,2.710674,-0.932571,1.710477,-0.004656,-0.009802,0.189827,6.182884,1.720281,-0.163882,0.003274,-0.008318,-0.190347,2.290735,14.855016,-1.944880,0.885275,1,0,,38.990490,-76.939638,-9.289000,,,
2026-09-11T19:03:13.863,9.255314,1.721022,6.688055,15.935393,0.000000,0.633572,-0.217972,1.721010,0.013294,0.027987,0.190131,6.239169,1.731251,-0.022510,0.155796,0.029470,0.948597,0.473857,8.194045,-1.889667,0.898848,1,0,,38.990490,-76.939638,-9.289000,,,
2026-09-11T19:03:13.895,9.288726,1.721417,6.745385,15.939044,0.000000,-0.949833,0.326777,1.721389,0.016794,0.035357,0.191189,6.295540,1.742643,0.007476,0.232815,0.036840,1.243974,0.354020,1.082360,-1.820145,0.903691,1,0,,38.990490,-76.939638,-9.289000,,,
2026-09-11T19:03:13.928,9.322129,1.712539,6.802070,15.856844,0.000000,-4.255344,1.463995,1.711980,0.036428,0.076690,0.193060,6.351658,1.754465,0.033383,0.043025,0.078173,-1.738229,2.003401,7.953487,-1.947213,1.010619,1,0,,38.990490,-76.939638,-9.289000,,,
2026-09-11T19:03:13.962,9.355532,1.722622,6.859235,15.950204,0.000000,-6.632511,2.281827,1.721256,0.039620,0.083410,0.195734,6.407671,1.766787,0.046003,0.042061,0.084893,0.554174,3.139697,9.056539,-1.927673,1.189077,1,0,,38.990490,-76.939638,-9.289000,,,
2026-09-11T19:03:13.996,9.388952,1.723216,6.916837,15.955705,0.000000,-9.122288,3.138402,1.720632,0.057332,0.120699,0.199145,6.463750,1.779658,0.035244,0.032468,0.122183,0.019221,-1.859831,7.441384,-1.944186,1.037912,1,0,,38.990490,-76.939638,-9.289000,,,
2026-09-11T19:03:14.028,9.422358,1.742822,6.974668,16.137241,0.000000,-10.847141,3.731815,1.739127,0.064484,0.135756,0.203429,6.519965,1.793206,0.074994,0.019366,0.137240,0.305967,4.603045,10.474973,-1.940698,1.304791,1,0,,38.990490,-76.939638,-9.289000,,,
2026-09-11T19:03:14.061,9.455766,1.742747,7.032744,16.136543,0.000000,-11.857197,4.079311,1.738332,0.065554,0.138009,0.208001,6.576384,1.807197,0.039005,0.013846,0.139492,0.374026,0.800811,10.959324,-1.930326,1.322464,1,0,,38.990490,-76.939638,-9.289000,,,
2026-09-11T19:03:14.096,9.489188,1.772186,7.092625,16.409129,0.000000,-12.181980,4.191048,1.767447,0.076452,0.160952,0.212997,6.633179,1.821760,0.006691,-0.057249,0.162435,1.155616,-0.906233,8.505013,-1.868891,1.226561,1,0,,38.990490,-76.939638,-9.289000,,,
2026-09-11T19:03:14.129,9.522599,1.801619,7.152888,16.681659,0.000000,-13.886234,4.777374,1.795360,0.081865,0.172347,0.218565,6.690750,1.837089,0.050476,0.025324,0.173831,0.481212,-1.003711,9.535300,-1.853818,1.123833,1,0,,38.990490,-76.939638,-9.289000,,,
2026-09-11T19:03:14.162,9.556008,1.811704,7.213624,16.775038,0.000000,-16.443989,5.657336,1.802880,0.074939,0.157766,0.224080,6.748815,1.852839,0.005372,0.073562,0.159250,0.865731,0.833173,8.587585,-1.819269,1.142722,1,0,,38.990490,-76.939638,-9.289000,,,
2026-09-11T19:03:14.195,9.589415,1.831524,7.274531,16.958552,0.000000,-17.635319,6.067197,1.821265,0.096693,0.203564,0.230115,6.807149,1.869262,-0.055025,0.134018,0.205048,-1.314091,-0.163575,9.277679,-1.930738,1.091327,1,1,9.569881,38.990490,-76.939620,-9.123000,6.494361,0.396225,3.184569
2026-09-11T19:03:14.230,9.622834,1.831719,7.336059,16.960365,0.000000,-17.768531,6.113027,1.821304,0.096522,0.203204,0.236912,6.865616,1.886487,-0.081481,0.103430,0.204688,-0.951049,-1.993202,7.814723,-2.019804,0.922112,1,0,,38.990490,-76.939620,-9.123000,,,
2026-09-11T19:03:14.262,9.656251,1.832242,7.397085,16.965203,0.000000,-17.983451,6.186967,1.821570,0.137159,0.288755,0.245132,6.923789,1.904807,-0.019242,0.037864,0.290239,-4.691501,-7.949271,7.836788,-2.351536,0.359310,1,0,,38.990490,-76.939620,-9.123000,,,
2026-09-11T19:03:14.295,9.689658,1.842261,7.458129,17.057977,0.000000,-18.011603,6.196652,1.831498,0.081930,0.172483,0.252836,6.982027,1.923391,0.106975,0.267886,0.173967,-2.609059,-4.849879,6.310481,-2.545088,0.017038,1,0,,38.990490,-76.939620,-9.123000,,,
2026-09-11T19:03:14.330,9.723065,1.842755,7.519640,17.062544,0.000000,-17.886634,6.153658,1.832137,0.086999,0.183157,0.258777,7.040517,1.941605,0.027802,0.115764,0.184640,-3.622086,3.348088,9.784683,-2.801522,0.207531,1,0,,38.990490,-76.939620,-9.123000,,,
2026-09-11T19:03:14.364,9.756477,1.862626,7.582244,17.246536,0.000000,-17.130637,5.893568,1.852781,0.063682,0.134068,0.264076,7.099334,1.959948,0.074322,-0.069283,0.135551,3.057517,0.511515,3.285718,-2.622380,0.218085,1,0,,38.990490,-76.939620,-9.123000,,,
2026-09-11T19:03:14.396,9.790013,1.882644,7.645481,17.431886,0.000000,-15.427070,5.307478,1.874572,0.055585,0.117021,0.268287,7.159108,1.978320,0.073488,-0.187328,0.118504,0.893092,0.379125,10.134781,-2.583466,0.221851,1,0,,38.990490,-76.939620,-9.123000,,,
2026-09-11T19:03:14.429,9.823424,1.931170,7.709333,17.881205,0.000000,-13.615012,4.684064,1.924720,0.063470,0.133622,0.272474,7.219739,1.997190,0.132483,0.002238,0.135106,-0.255856,1.471586,13.921521,-2.616555,0.293785,1,0,,38.990490,-76.939620,-9.123000,,,
2026-09-11T19:03:14.464,9.856875,1.950710,7.774495,18.062133,0.000000,-10.897269,3.749060,1.946536,0.063979,0.134693,0.276961,7.281481,2.016807,0.053011,-0.035315,0.136177,-1.486590,-2.486672,4.333657,-2.725077,0.108324,1,0,,38.990490,-76.939620,-9.123000,,,
2026-09-11T19:03:14.497,9.890293,1.970516,7.840648,18.245518,0.000000,-7.049994,2.425457,1.968751,0.032912,0.069288,0.280370,7.343933,2.036360,-0.018505,-0.035054,0.070772,0.051485,-1.398821,7.876701,-2.728458,0.003625,1,0,,38.990490,-76.939620,-9.123000,,,
2026-09-11T19:03:14.530,9.923717,1.990406,7.907149,18.429690,0.000000,-4.021201,1.383441,1.989826,0.011613,0.024449,0.281936,7.407285,2.055431,0.044137,-0.031329,0.025932,0.450714,0.428354,8.510113,-2.697842,0.023988,1,0,,38.990490,-76.939620,-9.123000,,,
2026-09-11T19:03:14.563,9.957121,1.990773,7.973052,18.433080,0.000000,-1.265693,0.435445,1.990715,-0.002946,-0.006201,0.282241,7.471100,2.074076,0.009622,0.093472,-0.004718,-0.497982,-2.162072,13.533373,-2.717377,-0.119475,1,0,,38.990490,-76.939620,-9.123000,,,
2026-09-11T19:03:14.597,9.990524,2.010679,8.040253,18.617398,0.000000,3.687768,-1.268728,2.010186,-0.024992,-0.052614,0.281259,7.535417,2.092207,0.028089,-0.000717,-0.051131,1.025579,1.894743,9.040064,-2.628677,0.007056,1,0,,38.990490,-76.939620,-9.123000,,,
2026-09-11T19:03:14.631,10.023942,2.040378,8.108805,18.892386,0.000000,6.072488,-2.089159,2.039021,-0.035421,-0.074570,0.279134,7.600714,2.109946,-0.006595,-0.112302,-0.073086,-0.177500,0.848177,7.585738,-2.608664,0.067524,1,0,,38.990490,-76.939620,-9.123000,,,
2026-09-11T19:03:14.663,10.057350,2.021589,8.175864,18.718419,0.000000,6.211190,-2.136877,2.020183,-0.049614,-0.104450,0.276143,7.666312,2.127165,0.061872,-0.107627,-0.102967,0.083062,-0.823562,8.450685,-2.562501,0.022988,1,0,,38.990490,-76.939620,-9.123000,,,
2026-09-11T19:03:14.696,10.090751,2.022082,8.243583,18.722986,0.000000,8.854089,-3.046132,2.019225,-0.065429,-0.137745,0.272098,7.731773,2.143577,0.166929,0.195333,-0.136262,-1.564553,-0.881814,3.589234,-2.618227,-0.020471,1,0,,38.990490,-76.939620,-9.123000,,,
2026-09-11T19:03:14.731,10.124159,1.983705,8.310398,18.367638,0.000000,13.269906,-4.565335,1.977411,-0.091594,-0.192829,0.266576,7.796821,2.158814,0.041448,0.101584,-0.191346,-0.379321,-2.404787,14.061265,-2.593258,-0.155291,1,0,,38.990490,-76.939620,-9.123000,,,
2026-09-11T19:03:14.765,10.157566,1.964420,8.376733,18.189076,0.000000,18.252893,-6.279665,1.952633,-0.092175,-0.194053,0.260114,7.861002,2.172940,-0.165479,0.050194,-0.192570,-3.842932,-5.789748,7.732838,-2.789858,-0.507699,1,0,,38.990490,-76.939620,-9.123000,,,
2026-09-11T19:03:14.797,10.190983,1.876851,8.438939,17.378246,0.000000,21.081185,-7.252701,1.861834,-0.134709,-0.283598,0.252133,7.923613,2.185424,-0.088781,0.024138,-0.282115,-0.908684,0.196427,10.982271,-2.793088,-0.459374,1,0,,38.990490,-76.939620,-9.123000,,,
2026-09-11T19:03:14.830,10.224391,1.799309,8.498245,16.660264,0.000000,21.876321,-7.526257,1.783807,-0.129760,-0.273179,0.242833,7.983734,2.196064,-0.008038,0.101118,-0.271695,-3.058988,-5.371396,11.067099,-2.931652,-0.774354,1,0,,38.990490,-76.939620,-9.123000,,,
2026-09-11T19:03:14.866,10.257804,1.750802,8.556947,16.211129,0.000000,21.453347,-7.380739,1.736295,-0.122749,-0.258419,0.233952,8.041875,2.205855,0.017853,-0.111067,-0.256936,-1.197196,7.265453,7.517484,-2.942762,-0.270919,1,0,,38.990490,-76.939620,-9.123000,,,
2026-09-11T19:03:14.898,10.291223,1.683392,8.613331,15.586963,0.000000,21.243234,-7.308452,1.669716,-0.093114,-0.196030,0.226358,8.098111,2.215331,0.124466,0.055254,-0.194546,-2.758709,5.054642,12.095032,-3.054283,0.076137,1,0,,38.990490,-76.939620,-9.123000,,,
2026-09-11T19:03:14.931,10.324625,1.674126,8.668610,15.501171,0.000000,21.036554,-7.237346,1.660788,-0.093360,-0.196548,0.219802,8.153044,2.224600,-0.003623,0.008167,-0.195064,1.039113,-3.665726,7.088639,-2.920105,-0.144822,1,0,,38.990490,-76.939620,-9.123000,,,
2026-09-11T19:03:14.965,10.358026,1.674328,8.724054,15.503038,0.000000,20.836740,-7.168603,1.661240,-0.099810,-0.210127,0.213010,8.207922,2.233362,0.086605,0.037728,-0.208643,0.722946,-1.374696,11.692175,-2.811490,-0.213709,1,0,,38.990490,-76.939620,-9.123000,,,
2026-09-11T19:03:14.999,10.391440,1.665019,8.780477,15.416846,0.000000,20.998101,-7.224117,1.651802,-0.106649,-0.224524,0.205748,8.262779,2.241493,-0.060198,-0.080022,-0.223041,0.116209,1.155027,9.279935,-2.750961,-0.116798,1,0,,38.990490,-76.939620,-9.123000,,,
2026-09-11T19:03:15.031,10.424859,1.675365,8.836223,15.512643,0.000000,21.344171,-7.343178,1.661625,-0.107785,-0.226917,0.198205,8.317739,2.249089,-0.043873,0.011794,-0.225433,0.641061,5.276958,4.639526,-2.667796,0.246164,1,0,,38.990490,-76.939620,-9.123000,,,
2026-09-11T19:03:15.064,10.458267,1.666288,8.891388,15.428590,0.000000,21.549478,-7.413811,1.652358,-0.113992,-0.239983,0.190406,8.372767,2.256143,-0.163077,-0.012595,-0.238500,2.096466,-3.491364,9.122440,-2.503878,0.039094,1,0,,38.990490,-76.939620,-9.123000,,,
2026-09-11T19:03:15.097,10.491669,1.637743,8.946029,15.164290,0.000000,21.527505,-7.406252,1.624080,-0.132231,-0.278380,0.181749,8.427301,2.262227,0.047432,0.048620,-0.276897,-0.334505,6.610074,7.126100,-2.506854,0.491224,1,0,,38.990490,-76.939620,-9.123000,,,
2026-09-11T19:03:15.133,10.525068,1.629036,9.000373,15.083666,0.000000,21.344857,-7.343414,1.615674,-0.099178,-0.208795,0.173613,8.481236,2.267987,-0.012800,-0.067324,-0.207312,-4.128600,0.517987,4.941571,-2.761512,0.536932,1,0,,38.990490,-76.939620,-9.123000,,,
2026-09-11T19:03:15.167,10.558486,1.638836,9.055908,15.174407,0.000000,20.832620,-7.167186,1.626031,-0.114626,-0.241318,0.166092,8.535226,2.273621,0.084192,-0.134765,-0.239835,0.758642,5.755621,5.890168,-2.700010,0.924666,1,1,10.568067,38.990490,-76.939599,-9.409000,8.318388,0.419205,3.328484
2026-09-11T19:03:15.200,10.591906,1.629232,9.111204,15.085482,0.000000,21.579690,-7.424205,1.615574,-0.105257,-0.221594,0.158357,8.589275,2.278745,0.111615,-0.007060,-0.220110,1.024697,-5.748266,8.060674,-2.616717,0.561423,1,0,,38.990490,-76.939599,-9.409000,,,
2026-09-11T19:03:15.233,10.625311,1.658474,9.166409,15.356237,0.000000,25.396753,-8.737415,1.639227,-0.147568,-0.310669,0.149467,8.643640,2.282904,0.156135,-0.049495,-0.309185,2.363010,0.562804,9.329164,-2.445631,0.620383,1,0,,38.990490,-76.939599,-9.409000,,,
2026-09-11T19:03:15.266,10.658724,1.697540,9.223317,15.717967,0.000000,31.390481,-10.799477,1.667475,-0.173122,-0.364467,0.138188,8.699078,2.285517,-0.010115,-0.046614,-0.362983,0.799438,1.504340,11.452010,-2.378805,0.745995,1,0,,38.990490,-76.939599,-9.409000,,,
2026-09-11T19:03:15.300,10.692137,1.727364,9.281597,15.994107,0.000000,35.213723,-12.114813,1.688893,-0.211288,-0.444816,0.124667,8.755504,2.286495,0.013666,-0.070863,-0.443332,1.726265,0.681170,6.325093,-2.251915,0.826244,1,0,,38.990490,-76.939599,-9.409000,,,
2026-09-11T19:03:15.333,10.725551,1.737369,9.339730,16.086750,0.000000,38.355127,-13.195571,1.691496,-0.213326,-0.449106,0.109733,8.812420,2.286053,0.107107,0.055826,-0.447623,0.179854,0.176814,10.613836,-2.227187,0.873517,1,0,,38.990490,-76.939599,-9.409000,,,
2026-09-11T19:03:15.366,10.758966,1.737650,9.397510,16.089351,0.000000,41.239038,-14.187742,1.684648,-0.227784,-0.479545,0.094217,8.869281,2.284465,0.107664,0.010155,-0.478062,-0.725496,0.145335,9.450276,-2.264028,0.921353,1,0,,38.990490,-76.939599,-9.409000,,,
2026-09-11T19:03:15.399,10.792368,1.737828,9.455551,16.091003,0.000000,44.632440,-15.355197,1.675793,-0.235170,-0.495094,0.077940,8.925858,2.281588,0.062943,-0.024285,-0.493611,-1.686057,-2.155992,12.305581,-2.360042,0.821193,1,0,,38.990490,-76.939599,-9.409000,,,
2026-09-11T19:03:15.433,10.825770,1.728749,9.513268,16.006934,0.000000,49.854379,-17.151736,1.651866,-0.267316,-0.562771,0.060272,8.981872,2.277057,-0.006622,-0.030009,-0.561288,-1.452365,-0.243989,9.847642,-2.436690,0.852280,1,0,,38.990490,-76.939599,-9.409000,,,
2026-09-11T19:03:15.467,10.859185,1.690292,9.570330,15.650850,0.000000,58.819909,-20.236207,1.585958,-0.297387,-0.626079,0.040409,9.036367,2.270367,-0.036078,-0.008200,-0.624595,-0.929376,0.433748,14.038710,-2.479084,0.930990,1,0,,38.990490,-76.939599,-9.409000,,,
2026-09-11T19:03:15.500,10.892598,1.720085,9.627710,15.926715,0.000000,60.202127,-20.711741,1.608919,-0.326290,-0.686926,0.018474,9.090016,2.261519,-0.108109,-0.060466,-0.685442,-1.818349,-4.016510,9.643369,-2.578725,0.728140,1,0,,38.990490,-76.939599,-9.409000,,,
2026-09-11T19:03:15.533,10.926002,1.720364,9.684783,15.929299,0.000000,61.167550,-21.043882,1.605626,-0.323388,-0.680817,-0.004370,9.143778,2.251049,0.031922,-0.087105,-0.679334,0.275077,1.081085,10.925099,-2.544000,0.856550,1,0,,38.990490,-76.939599,-9.409000,,,
2026-09-11T19:03:15.567,10.959407,1.710909,9.741834,15.841750,0.000000,61.290460,-21.086167,1.596347,-0.316562,-0.666446,-0.026873,9.197084,2.239528,0.019474,-0.078286,-0.664963,0.716082,-1.166893,9.627679,-2.486108,0.836233,1,0,,38.990490,-76.939599,-9.409000,,,
2026-09-11T19:03:15.601,10.992844,1.691470,9.798286,15.661755,0.000000,61.032968,-20.997581,1.579148,-0.308598,-0.649680,-0.048877,9.249738,2.227077,0.008911,-0.073554,-0.648197,-1.699983,-0.106892,6.182210,-2.592572,0.882300,1,0,,38.990490,-76.939599,-9.409000,,,
2026-09-11T19:03:15.634,11.026265,1.710719,9.855125,15.839988,0.000000,59.730401,-20.549450,1.601865,-0.319369,-0.672356,-0.070969,9.302165,2.213416,-0.229812,-0.476473,-0.670872,-0.598010,-0.286354,17.817114,-2.630391,0.919527,1,0,,38.990490,-76.939599,-9.409000,,,
2026-09-11T19:03:15.667,11.059682,1.642810,9.908245,15.211200,0.000000,58.658548,-20.180693,1.541956,-0.285171,-0.600359,-0.092234,9.353700,2.199078,0.086442,0.028366,-0.598876,6.525345,-2.626907,16.549997,-2.211329,0.795084,1,0,,38.990490,-76.939599,-9.409000,,,
2026-09-11T19:03:15.700,11.093089,1.652790,9.963461,15.303609,0.000000,58.364663,-20.079586,1.552328,-0.298068,-0.627511,-0.112743,9.404112,2.184098,-0.081366,-0.077665,-0.626028,1.092755,-1.823645,12.800130,-2.159496,0.727154,1,0,,38.990490,-76.939599,-9.409000,,,
2026-09-11T19:03:15.733,11.126495,1.662795,10.019822,15.396254,0.000000,58.484826,-20.120926,1.561313,-0.289074,-0.608576,-0.133390,9.454520,2.167980,0.044920,-0.026845,-0.607093,1.302225,3.038983,10.911565,-2.103285,0.972994,1,0,,38.990490,-76.939599,-9.409000,,,
2026-09-11T19:03:15.767,11.159902,1.711626,10.076861,15.848393,0.000000,58.401742,-20.092342,1.607457,-0.308133,-0.648702,-0.154391,9.505466,2.150512,-0.064484,-0.053550,-0.647218,0.805420,4.729845,9.034769,-2.082599,1.331545,1,0,,38.990490,-76.939599,-9.409000,,,
2026-09-11T19:03:15.801,11.193316,1.750612,10.135564,16.209371,0.000000,58.274026,-20.048403,1.644531,-0.307382,-0.647120,-0.176040,9.557360,2.131428,-0.048563,-0.134415,-0.645637,2.153050,-1.418630,8.064499,-1.977306,1.289686,1,0,,38.990490,-76.939599,-9.409000,,,
2026-09-11T19:03:15.834,11.226862,1.818992,10.196767,16.842517,0.000000,58.323465,-20.065412,1.708582,-0.319065,-0.671715,-0.198161,9.610659,2.110632,-0.047955,-0.117417,-0.670232,0.881324,-2.970729,9.025256,-1.955717,1.152712,1,0,,38.990490,-76.939599,-9.409000,,,
2026-09-11T19:03:15.867,11.260278,1.868340,10.259177,17.299441,0.000000,58.565850,-20.148802,1.753999,-0.324568,-0.683300,-0.220801,9.665005,2.088076,-0.055709,-0.088156,-0.681817,0.007257,-1.603387,14.467457,-1.987115,1.109568,1,0,,38.990490,-76.939599,-9.409000,,,
2026-09-11T19:03:15.901,11.293683,1.868603,10.321423,17.301881,0.000000,58.830209,-20.239751,1.753223,-0.341815,-0.719611,-0.244232,9.719436,2.063749,-0.007609,-0.182007,-0.718128,-0.271350,-0.882500,9.205404,-2.035286,1.117640,1,0,,38.990490,-76.939599,-9.409000,,,
2026-09-11T19:03:15.934,11.327092,1.907939,10.385970,17.666103,0.000000,58.852182,-20.247310,1.790043,-0.355534,-0.748493,-0.268756,9.773724,2.037462,0.072250,-0.159421,-0.747010,-0.910449,-2.669076,7.386957,-2.122446,1.015088,1,0,,38.990490,-76.939599,-9.409000,,,
2026-09-11T19:03:15.968,11.360506,1.956787,10.451337,18.118394,0.000000,59.129586,-20.342748,1.834741,-0.353746,-0.744728,-0.293704,9.828609,2.009263,0.076038,-0.310654,-0.743245,1.985651,-2.245919,17.084950,-2.010603,0.942760,1,0,,38.990490,-76.939599,-9.409000,,,
2026-09-11T19:03:16.001,11.393913,2.014941,10.518219,18.656858,0.000000,61.232782,-21.066324,1.880272,-0.374315,-0.788031,-0.319306,9.884089,1.978939,0.064200,-0.216240,-0.786547,0.685975,-1.950935,7.348613,-1.972580,0.897795,1,0,,38.990490,-76.939599,-9.409000,,,
2026-09-11T19:03:16.035,11.427325,2.054002,10.587084,19.018536,0.000000,65.449472,-22.517020,1.897417,-0.399673,-0.841417,-0.346527,9.939496,1.946096,-0.020808,-0.177573,-0.839934,1.118056,-1.842866,7.742841,-1.898574,0.867742,1,0,,38.990490,-76.939599,-9.409000,,,
2026-09-11T19:03:16.068,11.460741,2.102958,10.657100,19.471830,0.000000,72.771173,-25.035954,1.905369,-0.437483,-0.921016,-0.375975,9.993974,1.910560,-0.019978,-0.057188,-0.919533,-0.776392,-4.668456,12.039722,-1.937264,0.665426,1,0,,38.990490,-76.939599,-9.409000,,,
2026-09-11T19:03:16.102,11.494159,2.132330,10.728699,19.743793,0.000000,82.431588,-28.359491,1.876417,-0.492547,-1.036942,-0.408690,10.046403,1.872059,-0.228136,-0.051891,-1.035458,-3.040944,-5.935279,10.264130,-2.111391,0.395735,1,0,,38.990490,-76.939599,-9.409000,,,
2026-09-11T19:03:16.135,11.527566,2.113242,10.799233,19.567060,0.000000,84.108377,-28.936368,1.849420,-0.519999,-1.094734,-0.444296,10.096054,1.830933,-0.182016,-0.070140,-1.093250,-2.735271,-6.259389,5.593125,-2.261125,0.113279,1,0,,38.990490,-76.939599,-9.409000,,,
2026-09-11T19:03:16.168,11.560980,2.084615,10.869505,19.301989,0.000000,83.940149,-28.878491,1.825384,-0.528322,-1.112256,-0.481168,10.143167,1.787869,-0.091120,0.054847,-1.110773,-0.495334,6.724028,14.067149,-2.260370,0.674239,1,1,11.561108,38.990483,-76.939584,-9.321000,9.650649,-0.389553,4.334041
2026-09-11T19:03:16.201,11.594384,2.007297,10.935783,18.586082,0.000000,81.496377,-28.037744,1.771717,-0.473284,-0.996388,-0.516387,10.187939,1.744453,0.052938,0.136763,-0.994904,1.965841,4.890871,0.642336,-2.095278,1.093177,1,0,,38.990483,-76.939584,-9.321000,,,
2026-09-11T19:03:16.235,11.627793,1.901188,10.999066,17.603593,0.000000,81.306863,-27.972545,1.679077,-0.426338,-0.897553,-0.548024,10.230002,1.702273,0.073281,-0.003246,-0.896069,-1.035092,-3.054379,9.208248,-2.122035,0.976787,1,0,,38.990483,-76.939584,-9.321000,,,
2026-09-11T19:03:16.269,11.661216,1.872470,11.062935,17.337681,0.000000,82.286706,-28.309647,1.648518,-0.446685,-0.940390,-0.578739,10.269221,1.660254,0.070559,0.028544,-0.938906,-2.093622,-1.571221,6.084634,-2.213383,0.960436,1,0,,38.990483,-76.939584,-9.321000,,,
2026-09-11T19:03:16.302,11.694637,1.872915,11.125277,17.341805,0.000000,85.515313,-29.420406,1.631382,-0.476572,-1.003309,-0.611220,10.305955,1.616771,-0.128568,-0.053906,-1.001825,-0.121799,1.257507,8.220915,-2.175842,1.132955,1,0,,38.990483,-76.939584,-9.321000,,,
2026-09-11T19:03:16.335,11.728039,1.843908,11.186429,17.073218,0.000000,89.462838,-30.778499,1.584197,-0.449356,-0.946012,-0.643775,10.340358,1.572735,-0.228586,-0.121012,-0.944529,-1.173464,-2.631713,3.151269,-2.205992,1.042945,1,0,,38.990483,-76.939584,-9.321000,,,
2026-09-11T19:03:16.369,11.761462,1.824470,11.247837,16.893243,0.000000,87.960458,-30.261625,1.575856,-0.472814,-0.995397,-0.676218,10.372620,1.528195,-0.186518,-0.164053,-0.993913,0.233006,2.419399,7.079911,-2.147845,1.285363,1,0,,38.990483,-76.939584,-9.321000,,,
2026-09-11T19:03:16.402,11.794870,1.805183,11.308368,16.714661,0.000000,82.542825,-28.397761,1.587961,-0.444793,-0.936406,-0.708488,10.403516,1.482658,-0.075296,0.070741,-0.934922,-2.294854,0.989393,12.892901,-2.259127,1.427201,1,0,,38.990483,-76.939584,-9.321000,,,
2026-09-11T19:03:16.435,11.828271,1.737795,11.366512,16.090695,0.000000,77.997232,-26.833910,1.550667,-0.378411,-0.796654,-0.737431,10.433739,1.437671,-0.109023,0.052675,-0.795170,1.326055,-3.512154,5.823385,-2.140168,1.259929,1,0,,38.990483,-76.939584,-9.321000,,,
2026-09-11T19:03:16.469,11.861675,1.738510,11.424200,16.097311,0.000000,69.484887,-23.905351,1.589373,-0.355461,-0.748338,-0.763235,10.463739,1.392938,0.010622,0.012965,-0.746855,0.246637,1.410490,11.771511,-2.102206,1.410021,1,0,,38.990483,-76.939584,-9.321000,,,
2026-09-11T19:03:16.502,11.895086,1.709779,11.481165,15.831289,0.000000,65.894418,-22.670098,1.577681,-0.309152,-0.650846,-0.786610,10.493777,1.347987,-0.115738,-0.001222,-0.649363,-0.577317,-4.089863,6.099050,-2.125591,1.192013,1,0,,38.990483,-76.939584,-9.321000,,,
2026-09-11T19:03:16.535,11.928494,1.700595,11.537686,15.746247,0.000000,58.753991,-20.213529,1.595858,-0.305413,-0.642974,-0.808221,10.523459,1.302884,-0.101342,-0.004878,-0.641491,-0.308811,-0.284981,8.496972,-2.133685,1.222594,1,0,,38.990483,-76.939584,-9.321000,,,
2026-09-11T19:03:16.569,11.961905,1.701193,11.594480,15.751783,0.000000,58.126397,-19.997614,1.598622,-0.289053,-0.608532,-0.829128,10.552666,1.257130,-0.183979,-0.024021,-0.607048,-0.660478,-2.381643,7.318899,-2.168126,1.113718,1,0,,38.990483,-76.939584,-9.321000,,,
2026-09-11T19:03:16.603,11.995310,1.662953,11.650111,15.397711,0.000000,58.005548,-19.956037,1.563100,-0.286589,-0.603345,-0.849370,10.580792,1.211415,-0.146823,-0.001435,-0.601861,0.284295,-0.495530,9.443510,-2.144700,1.126170,1,0,,38.990483,-76.939584,-9.321000,,,
2026-09-11T19:03:16.636,12.028721,1.683214,11.706803,15.585313,0.000000,55.815835,-19.202696,1.589561,-0.262545,-0.552726,-0.868682,10.608244,1.165541,-0.098592,-0.033762,-0.551242,0.338329,0.304202,11.031403,-2.120873,1.186062,1,0,,38.990483,-76.939584,-9.321000,,,
2026-09-11T19:03:16.669,12.062140,1.673855,11.762685,15.498660,0.000000,51.780420,-17.814365,1.593599,-0.246293,-0.518511,-0.886582,10.635690,1.119194,0.037235,0.007272,-0.517028,-0.856905,0.820326,11.820642,-2.178870,1.275329,1,0,,38.990483,-76.939584,-9.321000,,,
2026-09-11T19:03:16.703,12.095542,1.655124,11.817030,15.325226,0.000000,46.096368,-15.858842,1.592127,-0.217734,-0.458387,-0.902897,10.662938,1.072840,0.085827,0.000795,-0.456904,1.261920,-1.792754,10.860669,-2.100497,1.188271,1,0,,38.990483,-76.939584,-9.321000,,,
2026-09-11T19:03:16.736,12.128941,1.655105,11.872115,15.325046,0.000000,42.965264,-14.781628,1.600330,-0.215349,-0.453366,-0.918123,10.689924,1.026297,0.071977,-0.167063,-0.451882,-0.460913,2.703890,10.466638,-2.135835,1.392795,1,0,,38.990483,-76.939584,-9.321000,,,
2026-09-11T19:03:16.770,12.162372,1.635683,11.927422,15.145215,0.000000,40.651956,-13.985765,1.587195,-0.179237,-0.377341,-0.932009,10.716723,0.979773,0.027754,0.009097,-0.375858,0.662243,-2.773223,10.529793,-2.100288,1.232395,1,0,,38.990483,-76.939584,-9.321000,,,
2026-09-11T19:03:16.803,12.195775,1.635663,11.981607,15.145032,0.000000,39.937844,-13.740084,1.588856,-0.190914,-0.401924,-0.945024,10.743083,0.933332,0.008388,0.057967,-0.400441,1.063923,-1.385189,6.988807,-2.041718,1.166278,1,0,,38.990483,-76.939584,-9.321000,,,
2026-09-11T19:03:16.836,12.229176,1.626463,12.035980,15.059846,0.000000,39.906945,-13.729454,1.579991,-0.189602,-0.399162,-0.958402,10.768617,0.886547,0.014374,0.005414,-0.397679,-1.206218,0.680680,9.258360,-2.137169,1.234026,1,0,,38.990483,-76.939584,-9.321000,,,
2026-09-11T19:03:16.870,12.262596,1.636471,12.090763,15.152508,0.000000,39.991403,-13.758510,1.589515,-0.189108,-0.398123,-0.971725,10.793568,0.839404,-0.021027,-0.011015,-0.396639,0.169361,1.061962,11.434064,-2.144502,1.325884,1,0,,38.990483,-76.939584,-9.321000,,,
2026-09-11T19:03:16.903,12.296007,1.675627,12.146794,15.515063,0.000000,39.903512,-13.728273,1.627758,-0.211565,-0.445399,-0.985816,10.818001,0.791070,-0.091686,-0.033131,-0.443916,1.967312,3.467043,1.441480,-2.036027,1.578331,1,0,,38.990483,-76.939584,-9.321000,,,
2026-09-11T19:03:16.936,12.329408,1.676071,12.202483,15.519178,0.000000,39.211373,-13.490151,1.629829,-0.203420,-0.428253,-1.000407,10.841904,0.741711,-0.050680,-0.043442,-0.426769,-1.416571,0.890444,3.838127,-2.152535,1.659460,1,0,,38.990483,-76.939584,-9.321000,,,
2026-09-11T19:03:16.970,12.362817,1.695776,12.259630,15.701629,0.000000,38.902383,-13.383847,1.649721,-0.196136,-0.412917,-1.014458,10.865515,0.691828,0.040214,0.094776,-0.411434,-0.747365,-0.424236,9.608458,-2.228316,1.653537,1,0,,38.990483,-76.939584,-9.321000,,,
2026-09-11T19:03:17.004,12.396236,1.725405,12.317637,15.975974,0.000000,38.671670,-13.304474,1.679097,-0.195931,-0.412485,-1.028250,10.888971,0.640971,-0.004747,0.008956,-0.411002,1.012537,-1.121783,10.211861,-2.191549,1.603258,1,0,,38.990483,-76.939584,-9.321000,,,
2026-09-11T19:03:17.037,12.429641,1.735504,12.375679,16.069481,0.000000,38.307061,-13.179035,1.689795,-0.196856,-0.414433,-1.042062,10.912047,0.589236,0.034605,0.024787,-0.412950,0.870634,-0.082670,13.875920,-2.165904,1.621298,1,0,,38.990483,-76.939584,-9.321000,,,
2026-09-11T19:03:17.070,12.463046,1.784632,12.435486,16.524373,0.000000,37.676721,-12.962175,1.739157,-0.201269,-0.423724,-1.056061,10.934820,0.536267,-0.015199,-0.063580,-0.422240,2.139811,-1.976923,6.880248,-2.061463,1.518927,1,0,,38.990483,-76.939584,-9.321000,,,
2026-09-11T19:03:17.103,12.496446,1.804638,12.495681,16.709609,0.000000,37.577844,-12.928157,1.758893,-0.200830,-0.422799,-1.070198,10.957348,0.481953,-0.059833,0.054575,-0.421316,1.175817,0.045209,10.048972,-2.019933,1.548976,1,0,,38.990483,-76.939584,-9.321000,,,
2026-09-11T19:03:17.137,12.529851,1.804816,12.556975,16.711259,0.000000,37.435022,-12.879021,1.759412,-0.214226,-0.451001,-1.084793,10.979068,0.426915,-0.007491,0.096801,-0.449518,1.487963,-1.221124,3.297290,-1.951375,1.499978,1,0,,38.990483,-76.939584,-9.321000,,,
2026-09-11T19:03:17.171,12.563261,1.843608,12.617740,17.070444,0.000000,37.009988,-12.732794,1.798271,-0.204642,-0.430826,-1.099524,11.000225,0.370938,-0.023083,0.097669,-0.429343,1.658403,-4.639526,11.088477,-1.866973,1.229092,1,0,,38.990483,-76.939584,-9.321000,,,
2026-09-11T19:03:17.204,12.596686,1.882770,12.682264,17.433055,0.000000,36.305490,-12.490421,1.838209,-0.196442,-0.413563,-1.113636,11.021437,0.313593,0.082356,0.154801,-0.412079,0.391383,1.206120,13.155915,-1.861852,1.338598,1,1,12.575149,38.990469,-76.939578,-9.356000,10.152354,-1.944429,4.280473
2026-09-11T19:03:17.236,12.630097,1.902554,12.743934,17.616241,0.000000,33.439431,-11.504392,1.864331,-0.206027,-0.433741,-1.127790,11.042288,0.254975,0.061431,0.009785,-0.432258,-0.122191,-0.188582,10.566077,-1.885468,1.359727,1,0,,38.990469,-76.939578,-9.356000,,,
2026-09-11T19:03:17.270,12.663499,1.902916,12.808122,17.619593,0.000000,32.682061,-11.243828,1.866392,-0.180279,-0.379535,-1.141373,11.062766,0.195776,0.080307,0.024731,-0.378052,-0.983215,2.728798,10.526654,-1.959854,1.562886,1,0,,38.990469,-76.939578,-9.356000,,,
2026-09-11T19:03:17.303,12.696905,1.913017,12.871262,17.713119,0.000000,32.658029,-11.235560,1.876353,-0.190828,-0.401744,-1.154422,11.082768,0.136227,0.041054,-0.018468,-0.400260,1.191606,2.785089,5.097693,-1.885453,1.770429,1,0,,38.990469,-76.939578,-9.356000,,,
2026-09-11T19:03:17.338,12.730320,1.942547,12.936874,17.986545,0.000000,32.483621,-11.175558,1.905712,-0.177060,-0.372758,-1.167363,11.102311,0.075820,0.011772,0.054846,-0.371275,-0.050798,-7.027053,-4.179790,-1.885516,1.337755,1,0,,38.990469,-76.939578,-9.356000,,,
2026-09-11T19:03:17.370,12.763739,1.904141,13.000817,17.630934,0.000000,32.628503,-11.225402,1.867713,-0.186813,-0.393291,-1.180163,11.121087,0.015327,-0.044440,0.042697,-0.391807,-2.935228,-6.388542,10.564998,-2.071826,0.952825,1,0,,38.990469,-76.939578,-9.356000,,,
2026-09-11T19:03:17.403,12.797143,1.875587,13.062806,17.366543,0.000000,32.249475,-11.095003,1.840531,-0.182141,-0.383455,-1.193136,11.138588,-0.044401,-0.048321,-0.050618,-0.381971,-1.973883,-0.309106,10.616581,-2.194046,0.963764,1,0,,38.990469,-76.939578,-9.356000,,,
2026-09-11T19:03:17.436,12.830547,1.856701,13.124266,17.191678,0.000000,32.317453,-11.118390,1.821852,-0.159480,-0.335748,-1.205148,11.155488,-0.103468,-0.074433,-0.139271,-0.334265,-3.139991,0.256444,4.549893,-2.385391,1.005083,1,0,,38.990469,-76.939578,-9.356000,,,
2026-09-11T19:03:17.471,12.863954,1.837837,13.185776,17.017013,0.000000,30.738168,-10.575058,1.806622,-0.142982,-0.301015,-1.215784,11.172131,-0.161964,0.054387,-0.053195,-0.299531,-0.267722,-3.276010,11.117799,-2.384060,0.813031,1,0,,38.990469,-76.939578,-9.356000,,,
2026-09-11T19:03:17.504,12.897371,1.828216,13.247207,16.927925,0.000000,28.975549,-9.968652,1.800615,-0.146185,-0.307758,-1.225956,11.188256,-0.220239,-0.029969,-0.029484,-0.306274,0.500139,-9.433311,3.956297,-2.331935,0.225321,1,0,,38.990469,-76.939578,-9.356000,,,
2026-09-11T19:03:17.536,12.930781,1.799038,13.306735,16.657759,0.000000,27.423730,-9.434770,1.774702,-0.142546,-0.300097,-1.236110,11.203614,-0.278157,-0.017467,-0.083284,-0.298614,-0.518380,2.486378,11.065138,-2.348059,0.413949,1,0,,38.990469,-76.939578,-9.356000,,,
2026-09-11T19:03:17.570,12.964189,1.770075,13.365922,16.389587,0.000000,26.706185,-9.187908,1.747365,-0.127120,-0.267622,-1.245593,11.218416,-0.335275,0.020766,-0.003866,-0.266138,-0.947126,1.963095,13.935936,-2.391191,0.562432,1,0,,38.990469,-76.939578,-9.356000,,,
2026-09-11T19:03:17.605,12.997604,1.760614,13.424949,16.301981,0.000000,25.650125,-8.824584,1.739773,-0.086262,-0.181604,-1.253099,11.233442,-0.391680,-0.034915,0.073236,-0.180120,1.743720,-7.941916,5.040912,-2.261158,0.058653,1,0,,38.990469,-76.939578,-9.356000,,,
2026-09-11T19:03:17.637,13.031020,1.780610,13.484694,16.487126,0.000000,24.234262,-8.337475,1.761791,-0.116912,-0.246131,-1.260245,11.248289,-0.448369,-0.089771,-0.086732,-0.244647,-1.749703,5.912135,6.587323,-2.364455,0.464404,1,0,,38.990469,-76.939578,-9.356000,,,
2026-09-11T19:03:17.670,13.064424,1.800301,13.544307,16.669450,0.000000,23.349176,-8.032973,1.782636,-0.107831,-0.227013,-1.268148,11.262576,-0.505940,-0.010322,0.058777,-0.225529,-0.713630,2.149422,13.249765,-2.403024,0.620293,1,0,,38.990469,-76.939578,-9.356000,,,
2026-09-11T19:03:17.703,13.097828,1.781338,13.603528,16.493869,0.000000,23.331323,-8.026831,1.763886,-0.106391,-0.223980,-1.275680,11.276600,-0.563601,0.006497,-0.013275,-0.222497,-0.230260,1.244366,8.768126,-2.413216,0.715301,1,0,,38.990469,-76.939578,-9.356000,,,
2026-09-11T19:03:17.738,13.131235,1.791595,13.663216,16.588842,0.000000,23.029885,-7.923126,1.774492,-0.117890,-0.248189,-1.283567,11.289977,-0.621291,-0.033046,0.019995,-0.246706,-0.670677,-2.212969,9.245906,-2.456719,0.588549,1,0,,38.990469,-76.939578,-9.356000,,,
2026-09-11T19:03:17.772,13.164658,1.792191,13.723730,16.594361,0.000000,23.322396,-8.023760,1.774646,-0.117116,-0.246561,-1.291835,11.302773,-0.679338,-0.030427,-0.000297,-0.245077,1.182584,-4.949416,12.245172,-2.385210,0.285876,1,0,,38.990469,-76.939578,-9.356000,,,
2026-09-11T19:03:17.805,13.198080,1.831624,13.784477,16.959480,0.000000,23.110910,-7.951001,1.814016,-0.100507,-0.211593,-1.299491,11.315564,-0.738042,-0.056997,-0.030047,-0.210109,1.238188,-3.083799,4.571958,-2.316902,0.103823,1,0,,38.990469,-76.939578,-9.356000,,,
2026-09-11T19:03:17.838,13.231500,1.822169,13.845504,16.871931,0.000000,22.556787,-7.760362,1.805480,-0.103549,-0.217999,-1.306670,11.328275,-0.797271,-0.124505,-0.079435,-0.216515,-0.231045,-2.767241,12.220067,-2.348041,-0.055080,1,0,,38.990469,-76.939578,-9.356000,,,
2026-09-11T19:03:17.870,13.264906,1.842243,13.906821,17.057810,0.000000,21.456094,-7.381684,1.826976,-0.106242,-0.223668,-1.314047,11.340511,-0.856800,-0.063272,0.025521,-0.222185,0.432277,-1.557786,9.553541,-2.333215,-0.132960,1,0,,38.990469,-76.939578,-9.356000,,,
2026-09-11T19:03:17.904,13.298313,1.842657,13.968240,17.061642,0.000000,18.526178,-6.373685,1.831268,-0.110036,-0.231655,-1.321652,11.352305,-0.916864,0.008746,0.222078,-0.230172,-0.777765,4.098493,6.813464,-2.392242,0.156867,1,0,,38.990469,-76.939578,-9.356000,,,
2026-09-11T19:03:17.939,13.331719,1.842452,14.030041,17.059740,0.000000,15.190454,-5.226074,1.834793,-0.079769,-0.167934,-1.328327,11.364131,-0.977031,-0.091590,0.085890,-0.166451,1.006751,-1.462368,0.724025,-2.335109,0.076307,1,0,,38.990469,-76.939578,-9.356000,,,
2026-09-11T19:03:17.972,13.365130,1.852513,14.092629,17.152900,0.000000,10.734124,-3.692933,1.848667,-0.056228,-0.118375,-1.333110,11.376555,-1.037341,0.002977,0.037851,-0.116891,2.131966,-0.771391,8.173549,-2.207650,0.035551,1,0,,38.990469,-76.939578,-9.356000,,,
2026-09-11T19:03:18.004,13.398536,1.891863,14.155427,17.517249,0.000000,7.181420,-2.470672,1.890104,-0.039989,-0.084188,-1.336493,11.389593,-1.098435,-0.017225,-0.009806,-0.082705,0.137587,3.150681,6.060216,-2.208100,0.245063,1,0,,38.990469,-76.939578,-9.356000,,,
2026-09-11T19:03:18.037,13.431943,1.901687,14.219108,17.608209,0.000000,6.775613,-2.331060,1.900113,-0.022648,-0.047681,-1.338696,11.403205,-1.160274,0.033599,-0.054015,-0.046197,-0.891228,-0.793652,8.528844,-2.268173,0.192708,1,0,,38.990469,-76.939578,-9.356000,,,
2026-09-11T19:03:18.073,13.465361,1.931053,14.284275,17.880117,0.000000,5.774484,-1.986634,1.929892,-0.018704,-0.039377,-1.340150,11.417208,-1.222723,-0.032816,-0.157606,-0.037893,0.405309,6.760508,3.437035,-2.238577,0.628765,1,0,,38.990469,-76.939578,-9.356000,,,
2026-09-11T19:03:18.105,13.498775,1.921969,14.348304,17.796010,0.000000,4.973855,-1.711189,1.921112,-0.019852,-0.041794,-1.341507,11.431246,-1.285514,0.041698,0.018773,-0.040310,-0.194662,-1.826292,12.749136,-2.246062,0.504669,1,0,,38.990469,-76.939578,-9.356000,,,
2026-09-11T19:03:18.138,13.532181,1.903165,14.411330,17.621898,0.000000,4.888711,-1.681896,1.902345,-0.011805,-0.024853,-1.342620,11.445212,-1.347835,-0.062265,0.062078,-0.023370,1.562003,-9.810671,4.802022,-2.138213,-0.136589,1,0,,38.990469,-76.939578,-9.356000,,,
2026-09-11T19:03:18.173,13.565600,1.893898,14.475279,17.536089,0.000000,4.960122,-1.706464,1.893058,-0.012593,-0.026512,-1.343478,11.459134,-1.409708,-0.043137,0.022057,-0.025029,0.709413,-3.229722,6.916238,-2.087452,-0.344963,1,1,13.566586,38.990452,-76.939577,-9.622000,10.198160,-3.823994,4.658769
2026-09-11T19:03:18.206,13.599013,1.904072,14.539472,17.630292,0.000000,5.040460,-1.734103,1.903200,-0.018828,-0.039639,-1.344583,11.472881,-1.471625,-0.006202,-0.047635,-0.038155,-0.127683,1.303500,5.873007,-2.089068,-0.256107,1,0,,38.990452,-76.939577,-9.622000,,,
2026-09-11T19:03:18.238,13.632433,1.914269,14.602977,17.724715,0.000000,5.172296,-1.779460,1.913346,-0.026950,-0.056737,-1.346194,11.486389,-1.533956,-0.029505,-0.086444,-0.055253,-1.868461,2.658583,8.887081,-2.195422,-0.078399,1,0,,38.990452,-76.939577,-9.622000,,,
2026-09-11T19:03:18.271,13.665836,1.875893,14.665091,17.369381,0.000000,5.216241,-1.794578,1.874973,-0.014931,-0.031434,-1.347666,11.499754,-1.595803,0.035286,-0.091465,-0.029950,-0.601736,6.147495,8.827946,-2.212889,0.319689,1,0,,38.990452,-76.939577,-9.622000,,,
2026-09-11T19:03:18.305,13.699238,1.846628,14.726904,17.098411,0.000000,5.309625,-1.826706,1.845690,-0.030789,-0.064818,-1.349274,11.512711,-1.656581,-0.034090,0.005743,-0.063335,-4.428585,5.958226,3.783013,-2.475801,0.705079,1,0,,38.990452,-76.939577,-9.622000,,,
2026-09-11T19:03:18.339,13.732646,1.827278,14.789053,16.919240,0.000000,5.435968,-1.870172,1.826305,-0.022084,-0.046492,-1.351133,11.525270,-1.716624,0.130848,0.111106,-0.045009,-0.366180,-1.744407,11.637846,-2.473693,0.585753,1,0,,38.990452,-76.939577,-9.622000,,,
2026-09-11T19:03:18.373,13.766056,1.827561,14.849937,16.921859,0.000000,5.319925,-1.830249,1.826628,-0.005935,-0.012496,-1.352118,11.538081,-1.776289,0.011255,-0.015844,-0.011012,3.400064,0.712257,10.883518,-2.229220,0.622653,1,0,,38.990452,-76.939577,-9.622000,,,
2026-09-11T19:03:18.406,13.799477,1.827880,14.911088,16.924813,0.000000,5.545144,-1.907733,1.826867,-0.044259,-0.093178,-1.353884,11.550454,-1.836080,-0.075066,-0.069961,-0.091694,2.487751,1.760098,2.763514,-2.047012,0.736508,1,0,,38.990452,-76.939577,-9.622000,,,
2026-09-11T19:03:18.438,13.832883,1.847523,14.972673,17.106695,0.000000,6.014123,-2.069079,1.846319,-0.025110,-0.052864,-1.356324,11.562453,-1.896259,-0.120731,-0.085856,-0.051381,-0.974781,-1.208866,11.773668,-2.092026,0.652301,1,0,,38.990452,-76.939577,-9.622000,,,
2026-09-11T19:03:18.472,13.866286,1.809091,15.033056,16.750846,0.000000,6.067681,-2.087505,1.807891,-0.036323,-0.076470,-1.358484,11.574376,-1.956122,-0.107997,0.011361,-0.074986,-0.760506,-0.621545,9.774092,-2.122642,0.609652,1,0,,38.990452,-76.939577,-9.622000,,,
2026-09-11T19:03:18.507,13.899696,1.780823,15.093034,16.489106,0.000000,6.154885,-2.117506,1.779607,-0.029432,-0.061963,-1.360796,11.585863,-2.014951,-0.167351,-0.000987,-0.060479,-1.488257,-3.578447,10.914704,-2.201894,0.374370,1,0,,38.990452,-76.939577,-9.622000,,,
2026-09-11T19:03:18.539,13.933119,1.771643,15.152517,16.404102,0.000000,6.074548,-2.089867,1.770465,-0.030137,-0.063446,-1.362892,11.597196,-2.073193,0.033386,0.127712,-0.061962,-0.706667,0.874557,14.748123,-2.234764,0.429918,1,0,,38.990452,-76.939577,-9.622000,,,
2026-09-11T19:03:18.572,13.966522,1.791716,15.212512,16.589965,0.000000,5.898080,-2.029156,1.790593,-0.015930,-0.033537,-1.364512,11.608672,-2.131557,-0.061021,0.031019,-0.032054,-0.559273,-1.028521,9.845583,-2.262767,0.358354,1,0,,38.990452,-76.939577,-9.622000,,,
2026-09-11T19:03:18.607,13.999920,1.801884,15.272485,16.684113,0.000000,4.999948,-1.720165,1.801072,-0.012448,-0.026205,-1.365509,11.620463,-2.190365,-0.013557,-0.045686,-0.024722,-0.558489,-0.758250,12.465723,-2.294814,0.304240,1,0,,38.990452,-76.939577,-9.622000,,,
2026-09-11T19:03:18.640,14.033336,1.782904,15.332441,16.508369,0.000000,4.314675,-1.484407,1.782306,-0.003935,-0.008284,-1.366086,11.632383,-2.249038,0.036909,-0.032157,-0.006801,-0.631941,-0.895739,12.559965,-2.332557,0.239704,1,0,,38.990452,-76.939577,-9.622000,,,
2026-09-11T19:03:18.673,14.066888,1.782827,15.392242,16.507656,0.000000,4.320855,-1.486533,1.782227,0.002944,0.006198,-1.366121,11.644522,-2.307592,0.003369,-0.044843,0.007682,-0.268114,2.254059,11.239696,-2.345213,0.378562,1,0,,38.990452,-76.939577,-9.622000,,,
2026-09-11T19:03:18.706,14.100286,1.802013,15.451941,16.685305,0.000000,4.381280,-1.507321,1.801389,-0.011349,-0.023892,-1.366416,11.656539,-2.366216,0.028604,-0.045720,-0.022408,-0.800517,1.273001,11.253033,-2.394649,0.455308,1,0,,38.990452,-76.939577,-9.622000,,,
2026-09-11T19:03:18.740,14.133689,1.802533,15.512649,16.690123,0.000000,4.446511,-1.529763,1.801891,-0.005338,-0.011238,-1.367003,11.668463,-2.425203,-0.013832,0.044215,-0.009755,-0.155926,1.548764,12.622630,-2.409963,0.547579,1,0,,38.990452,-76.939577,-9.622000,,,
2026-09-11T19:03:18.775,14.167104,1.803093,15.572935,16.695309,0.000000,4.447198,-1.529999,1.802450,-0.000938,-0.001974,-1.367224,11.680541,-2.484199,-0.017608,0.053650,-0.000491,-0.367651,-0.693919,9.961007,-2.445655,0.492678,1,0,,38.990452,-76.939577,-9.622000,,,
2026-09-11T19:03:18.807,14.200515,1.812976,15.633836,16.786818,0.000000,4.402566,-1.514644,1.812343,-0.005445,-0.011463,-1.367448,11.692638,-2.543362,-0.009919,-0.005775,-0.009979,1.246327,-2.031546,9.197069,-2.377713,0.352972,1,0,,38.990452,-76.939577,-9.622000,,,
2026-09-11T19:03:18.840,14.233920,1.832705,15.694526,16.969488,0.000000,4.447885,-1.530236,1.832051,-0.010201,-0.021475,-1.367998,11.704659,-2.603034,-0.143093,-0.042107,-0.019992,1.262312,1.416473,5.807792,-2.310044,0.439057,1,0,,38.990452,-76.939577,-9.622000,,,
2026-09-11T19:03:18.874,14.267335,1.862200,15.756538,17.242590,0.000000,4.113488,-1.415191,1.861632,-0.008468,-0.017828,-1.368655,11.716763,-2.663550,-0.150531,-0.135184,-0.016344,3.219033,2.079402,13.776872,-2.120834,0.566713,1,0,,38.990452,-76.939577,-9.622000,,,
2026-09-11T19:03:18.908,14.300752,1.853249,15.818653,17.159716,0.000000,4.560495,-1.568977,1.852554,-0.021869,-0.046041,-1.369722,11.728693,-2.724452,-0.148098,0.076627,-0.044557,3.816748,-1.901019,12.128963,-1.901313,0.438781,1,0,,38.990452,-76.939577,-9.622000,,,
2026-09-11T19:03:18.940,14.334156,1.863787,15.880203,17.257289,0.000000,4.679971,-1.610082,1.863051,-0.024072,-0.050677,-1.371337,11.740286,-2.785422,-0.080534,-0.034082,-0.049194,0.337839,0.979292,13.246921,-1.912497,0.499202,1,0,,38.990452,-76.939577,-9.622000,,,
2026-09-11T19:03:18.973,14.367564,1.873673,15.943258,17.348821,0.000000,4.616800,-1.588348,1.872953,-0.015660,-0.032968,-1.372735,11.751958,-2.846730,-0.058710,-0.026215,-0.031484,1.899646,-1.975746,13.292228,-1.822582,0.365698,1,0,,38.990452,-76.939577,-9.622000,,,
2026-09-11T19:03:19.007,14.400970,1.922656,16.007497,17.802374,0.000000,4.241204,-1.459130,1.922033,-0.003109,-0.006545,-1.373395,11.764102,-2.908945,0.023811,-0.008331,-0.005061,0.204469,-0.578985,13.072167,-1.842653,0.320845,1,0,,38.990452,-76.939577,-9.622000,,,
2026-09-11T19:03:19.042,14.434437,1.942144,16.073018,17.982812,0.000000,4.138894,-1.423932,1.941544,-0.006462,-0.013603,-1.373732,11.776614,-2.972374,0.069828,0.024571,-0.012120,0.773647,1.079712,10.507826,-1.821919,0.384785,1,0,,38.990452,-76.939577,-9.622000,,,
2026-09-11T19:03:19.074,14.467847,1.951791,16.137525,18.072141,0.000000,4.094949,-1.408813,1.951201,-0.011370,-0.023936,-1.374359,11.789034,-3.036207,0.092031,0.032301,-0.022453,1.848750,-0.690584,7.532292,-1.727578,0.334703,1,0,,38.990452,-76.939577,-9.622000,,,
2026-09-11T19:03:19.107,14.501254,1.981157,16.203371,18.344046,0.000000,4.161554,-1.431727,1.980538,-0.015392,-0.032405,-1.375300,11.801383,-3.100709,0.093958,0.014426,-0.030921,2.455879,1.141004,8.783718,-1.590019,0.404782,1,0,,38.990452,-76.939577,-9.622000,,,
2026-09-11T19:03:19.140,14.534662,2.010590,16.270589,18.616576,0.000000,4.205499,-1.446846,2.009949,-0.023281,-0.049012,-1.376660,11.813653,-3.166230,0.086874,0.001878,-0.047528,1.855909,1.278983,10.758484,-1.487743,0.485237,1,0,,38.990452,-76.939577,-9.622000,,,
2026-09-11T19:03:19.175,14.568068,2.059394,16.340052,19.068461,0.000000,4.357248,-1.499053,2.058689,-0.029712,-0.062552,-1.378523,11.825832,-3.233096,0.083473,0.004335,-0.061068,1.654970,-0.580063,12.214183,-1.397042,0.446505,1,0,,38.990452,-76.939577,-9.622000,,,
2026-09-11T19:03:19.209,14.601483,2.079300,16.409732,19.252779,0.000000,4.425225,-1.522440,2.078566,-0.013014,-0.027397,-1.380026,11.838289,-3.301092,0.134857,0.038128,-0.025914,0.220159,-0.605365,9.868236,-1.397007,0.401908,1,0,,38.990452,-76.939577,-9.622000,,,
2026-09-11T19:03:19.242,14.634906,2.079752,16.479873,19.256959,0.000000,4.472604,-1.538740,2.079002,-0.008512,-0.017921,-1.380784,11.851084,-3.369382,-0.046363,-0.096798,-0.016437,3.034766,-7.361362,-2.186981,-1.209211,-0.080656,1,1,14.630641,38.990435,-76.939578,-9.796000,10.114903,-5.721535,4.135813
2026-09-11T19:03:19.274,14.668316,2.070743,16.549062,19.173548,0.000000,4.535089,-1.560237,2.069975,-0.021257,-0.044752,-1.381830,11.863650,-3.437544,0.009237,-0.006002,-0.043268,-0.297141,4.162825,4.951476,-1.234089,0.191338,1,0,,38.990435,-76.939578,-9.796000,,,
2026-09-11T19:03:19.307,14.701718,2.032500,16.617477,18.819442,0.000000,4.703317,-1.618114,2.031689,-0.027253,-0.057374,-1.383536,11.875665,-3.504989,0.010801,-0.003209,-0.055890,-0.929769,2.111372,15.518632,-1.296502,0.329138,1,0,,38.990435,-76.939578,-9.796000,,,
2026-09-11T19:03:19.342,14.735120,2.032902,16.685590,18.823166,0.000000,4.973855,-1.711189,2.031995,-0.020577,-0.043320,-1.385218,11.887459,-3.571829,-0.009171,0.024431,-0.041836,1.735483,2.384781,11.785926,-1.180255,0.481255,1,0,,38.990435,-76.939578,-9.796000,,,
2026-09-11T19:03:19.375,14.768539,2.004080,16.753082,18.556300,0.000000,4.572854,-1.573230,2.003325,-0.017520,-0.036884,-1.386558,11.899230,-3.638224,0.019045,-0.041042,-0.035400,0.128075,-0.448850,14.362624,-1.162377,0.447493,1,0,,38.990435,-76.939578,-9.796000,,,
2026-09-11T19:03:19.408,14.801943,1.974918,16.818990,18.286278,0.000000,3.650003,-1.255735,1.974444,-0.011372,-0.023941,-1.387574,11.910894,-3.703631,0.035350,-0.056409,-0.022458,-0.258307,0.239478,7.668604,-1.163448,0.456917,1,0,,38.990435,-76.939578,-9.796000,,,
2026-09-11T19:03:19.442,14.835352,1.965275,16.884312,18.196987,0.000000,1.938882,-0.667047,1.965141,-0.001276,-0.002687,-1.388019,11.922662,-3.768380,0.029428,-0.041960,-0.001204,0.152297,-2.103330,13.474533,-1.131049,0.311970,1,0,,38.990435,-76.939578,-9.796000,,,
2026-09-11T19:03:19.475,14.868764,1.946271,16.949178,18.021024,0.000000,0.966592,-0.332543,1.946238,0.010905,0.022957,-1.387680,11.934708,-3.832603,-0.024996,-0.002975,0.024441,0.855434,-1.180132,9.385847,-1.051016,0.225114,1,0,,38.990435,-76.939578,-9.796000,,,
2026-09-11T19:03:19.510,14.902229,1.936914,17.014163,17.934389,0.000000,1.041436,-0.358292,1.936876,0.020181,0.042486,-1.386585,11.947086,-3.896389,-0.036899,0.026485,0.043970,-0.155141,-0.519262,12.082283,-1.039044,0.179466,1,0,,38.990435,-76.939578,-9.796000,,,
2026-09-11T19:03:19.542,14.935640,1.937373,17.079103,17.938639,0.000000,0.974832,-0.335378,1.937340,0.009546,0.020097,-1.385539,11.959462,-3.959918,-0.011948,-0.029643,0.021580,0.174362,0.542504,10.603440,-1.010818,0.205886,1,0,,38.990435,-76.939578,-9.796000,,,
2026-09-11T19:03:19.575,14.969081,1.918126,17.142340,17.760421,0.000000,1.041436,-0.358292,1.918088,0.013978,0.029428,-1.384711,11.971750,-4.023203,0.027127,0.071007,0.030912,0.249677,1.371852,13.566324,-0.981096,0.284602,1,0,,38.990435,-76.939578,-9.796000,,,
2026-09-11T19:03:19.609,15.002483,1.889460,17.205468,17.495004,0.000000,1.364846,-0.469557,1.889397,0.015542,0.032719,-1.383673,11.984031,-4.085596,0.035647,0.036696,0.034203,-2.159817,-2.143047,12.523288,-1.106294,0.134694,1,0,,38.990435,-76.939578,-9.796000,,,
2026-09-11T19:03:19.642,15.035894,1.870732,17.269007,17.321589,0.000000,2.396188,-0.824377,1.870538,-0.000971,-0.002045,-1.383161,11.995971,-4.147262,-0.001758,0.091693,-0.000561,-1.127373,-0.102381,8.126477,-1.164597,0.122659,1,0,,38.990435,-76.939578,-9.796000,,,
2026-09-11T19:03:19.675,15.069294,1.871332,17.330774,17.327144,0.000000,4.043451,-1.391095,1.870780,-0.008007,-0.016858,-1.383477,12.007469,-4.208676,-0.018567,-0.066657,-0.015374,0.173872,-1.617509,9.366135,-1.141822,0.014574,1,0,,38.990435,-76.939578,-9.796000,,,
