timestamp,time_s,speed_mps,distance_m,wheel_omega_rad_s,motor_current_A,steer_motor_deg,steer_column_deg,vx_mps,vy_mps,yaw_rate_rad_s,heading_rad,x_m,y_m,gyro_x_rad_s,gyro_y_rad_s,gyro_z_rad_s,accel_x_mps2,accel_y_mps2,accel_z_mps2,grade_deg,bank_deg,moving,gps_new_fix,gps_time_s,gps_latitude_deg,gps_longitude_deg,gps_altitude_m,gps_east_m,gps_north_m,gps_sigma_m
2026-09-11T19:13:47.219,0.000013,-0.000000,-0.000000,-0.000000,0.000000,0.208054,-0.071578,-0.000000,,,0.000000,0.000000,0.000000,,,,,,,0.000000,0.000000,0,1,,38.990294,-76.938184,11.608000,0.000000,0.000000,4.494751
2026-09-11T19:13:47.253,0.033430,-0.000000,-0.000000,-0.000000,0.000000,0.208054,-0.071578,-0.000000,,,,,,,,,,,,0.000000,0.000000,0,0,,38.990294,-76.938184,11.608000,,,
2026-09-11T19:13:47.288,0.066848,-0.000000,-0.000000,-0.000000,0.000000,0.208054,-0.071578,-0.000000,,,,,,,,,,,,0.000000,0.000000,0,0,,38.990294,-76.938184,11.608000,,,
2026-09-11T19:13:47.320,0.100268,-0.000000,-0.000000,-0.000000,0.000000,0.208054,-0.071578,-0.000000,,,,,,,,,,,,0.000000,0.000000,0,0,,38.990294,-76.938184,11.608000,,,
2026-09-11T19:13:47.353,0.133689,-0.000000,-0.000000,-0.000000,0.000000,0.208054,-0.071578,-0.000000,,,,,,,,,,,,0.000000,0.000000,0,0,,38.990294,-76.938184,11.608000,,,
2026-09-11T19:13:47.387,0.167107,-0.000000,-0.000000,-0.000000,0.000000,0.208054,-0.071578,-0.000000,,,,,,,,,,,,0.000000,0.000000,0,0,,38.990294,-76.938184,11.608000,,,
2026-09-11T19:13:47.422,0.200528,-0.000000,-0.000000,-0.000000,0.000000,0.208054,-0.071578,-0.000000,,,,,,,,,,,,0.000000,0.000000,0,0,,38.990294,-76.938184,11.608000,,,
2026-09-11T19:13:47.453,0.233937,-0.000000,-0.000000,-0.000000,0.000000,0.208054,-0.071578,-0.000000,,,,,,,,,,,,0.000000,0.000000,0,0,,38.990294,-76.938184,11.608000,,,
2026-09-11T19:13:47.487,0.267353,-0.000000,-0.000000,-0.000000,0.000000,0.208054,-0.071578,-0.000000,,,,,,,,,,,,0.000000,0.000000,0,0,,38.990294,-76.938184,11.608000,,,
2026-09-11T19:13:47.521,0.300776,-0.000000,-0.000000,-0.000000,0.000000,0.208054,-0.071578,-0.000000,,,,,,,,,,,,0.000000,0.000000,0,0,,38.990294,-76.938184,11.608000,,,
2026-09-11T19:13:47.554,0.334187,-0.000000,-0.000000,-0.000000,0.000000,0.208054,-0.071578,-0.000000,,,,,,,,,,,,0.000000,0.000000,0,0,,38.990294,-76.938184,11.608000,,,
2026-09-11T19:13:47.587,0.367612,-0.000000,-0.000000,-0.000000,0.000000,0.208054,-0.071578,-0.000000,,,,,,,,,,,,0.000000,0.000000,0,0,,38.990294,-76.938184,11.608000,,,
2026-09-11T19:13:47.620,0.401032,-0.000000,-0.000000,-0.000000,0.000000,0.208054,-0.071578,-0.000000,,,,,,,,,,,,0.000000,0.000000,0,0,,38.990294,-76.938184,11.608000,,,
2026-09-11T19:13:47.655,0.434444,-0.000000,-0.000000,-0.000000,0.000000,0.208054,-0.071578,-0.000000,,,,,,,,,,,,0.000000,0.000000,0,0,,38.990294,-76.938184,11.608000,,,
2026-09-11T19:13:47.688,0.467867,-0.000000,-0.000000,-0.000000,0.000000,0.208054,-0.071578,-0.000000,,,,,,,,,,,,0.000000,0.000000,0,0,,38.990294,-76.938184,11.608000,,,
2026-09-11T19:13:47.721,0.501290,-0.000000,-0.000000,-0.000000,0.000000,0.208054,-0.071578,-0.000000,,,,,,,,,,,,0.000000,0.000000,0,0,,38.990294,-76.938184,11.608000,,,
2026-09-11T19:13:47.755,0.534703,-0.000000,-0.000000,-0.000000,0.000000,0.208054,-0.071578,-0.000000,,,,,,,,,,,,0.000000,0.000000,0,1,,38.990294,-76.938184,11.600000,-0.001440,0.006672,4.494751
2026-09-11T19:13:47.788,0.568125,-0.000000,-0.000000,-0.000000,0.000000,0.208054,-0.071578,-0.000000,,,,,,,,,,,,0.000000,0.000000,0,0,,38.990294,-76.938184,11.600000,,,
2026-09-11T19:13:47.822,0.601547,-0.000000,-0.000000,-0.000000,0.000000,0.208054,-0.071578,-0.000000,,,,,,,,,,,,0.000000,0.000000,0,0,,38.990294,-76.938184,11.600000,,,
2026-09-11T19:13:47.855,0.634972,-0.000000,-0.000000,-0.000000,0.000000,0.208054,-0.071578,-0.000000,,,,,,,,,,,,0.000000,0.000000,0,0,,38.990294,-76.938184,11.600000,,,
2026-09-11T19:13:47.888,0.668394,-0.000000,-0.000000,-0.000000,0.000000,0.208054,-0.071578,-0.000000,,,,,,,,,,,,0.000000,0.000000,0,0,,38.990294,-76.938184,11.600000,,,
2026-09-11T19:13:47.921,0.701817,-0.000000,-0.000000,-0.000000,0.000000,0.208054,-0.071578,-0.000000,,,,,,,,,,,,0.000000,0.000000,0,0,,38.990294,-76.938184,11.600000,,,
2026-09-11T19:13:47.955,0.735232,-0.000000,-0.000000,-0.000000,0.000000,0.208054,-0.071578,-0.000000,,,,,,,,,,,,0.000000,0.000000,0,0,,38.990294,-76.938184,11.600000,,,
2026-09-11T19:13:47.988,0.768653,-0.000000,-0.000000,-0.000000,0.000000,0.208054,-0.071578,-0.000000,,,,,,,,,,,,0.000000,0.000000,0,0,,38.990294,-76.938184,11.600000,,,
2026-09-11T19:13:48.022,0.802074,-0.000000,-0.000000,-0.000000,0.000000,0.208054,-0.071578,-0.000000,,,,,,,,,,,,0.000000,0.000000,0,0,,38.990294,-76.938184,11.600000,,,
2026-09-11T19:13:48.055,0.835483,-0.000000,-0.000000,-0.000000,0.000000,0.208054,-0.071578,-0.000000,,,,,,,,,,,,0.000000,0.000000,0,0,,38.990294,-76.938184,11.600000,,,
2026-09-11T19:13:48.089,0.868902,-0.000000,-0.000000,-0.000000,0.000000,0.208054,-0.071578,-0.000000,,,,,,,,,,,,0.000000,0.000000,0,0,,38.990294,-76.938184,11.600000,,,
2026-09-11T19:13:48.122,0.902322,-0.000000,-0.000000,-0.000000,0.000000,0.208054,-0.071578,-0.000000,,,,,,,,,,,,0.000000,0.000000,0,0,,38.990294,-76.938184,11.600000,,,
2026-09-11T19:13:48.155,0.935739,-0.000000,-0.000000,-0.000000,0.000000,0.208054,-0.071578,-0.000000,,,,,,,,,,,,0.000000,0.000000,0,0,,38.990294,-76.938184,11.600000,,,
2026-09-11T19:13:48.190,0.969153,-0.000000,-0.000000,-0.000000,0.000000,0.208054,-0.071578,-0.000000,,,,,,,,,,,,0.000000,0.000000,0,0,,38.990294,-76.938184,11.600000,,,
2026-09-11T19:13:48.223,1.002568,-0.000000,-0.000000,-0.000000,0.000000,0.208054,-0.071578,-0.000000,,,,,,,,,,,,0.000000,0.000000,0,0,,38.990294,-76.938184,11.600000,,,
2026-09-11T19:13:48.257,1.035984,-0.000000,-0.000000,-0.000000,0.000000,0.208054,-0.071578,-0.000000,,,,,,,,,,,,0.000000,0.000000,0,0,,38.990294,-76.938184,11.600000,,,
2026-09-11T19:13:48.290,1.069400,-0.000000,-0.000000,-0.000000,0.000000,0.208054,-0.071578,-0.000000,,,,,,,,,,,,0.000000,0.000000,0,0,,38.990294,-76.938184,11.600000,,,
2026-09-11T19:13:48.323,1.102813,-0.000000,-0.000000,-0.000000,0.000000,0.208054,-0.071578,-0.000000,,,,,,,,,,,,0.000000,0.000000,0,0,,38.990294,-76.938184,11.600000,,,
2026-09-11T19:13:48.357,1.136229,-0.000000,-0.000000,-0.000000,0.000000,0.208054,-0.071578,-0.000000,,,,,,,,,,,,0.000000,0.000000,0,0,,38.990294,-76.938184,11.600000,,,
2026-09-11T19:13:48.390,1.169649,-0.000000,-0.000000,-0.000000,0.000000,0.208054,-0.071578,-0.000000,,,,,,,,,,,,0.000000,0.000000,0,0,,38.990294,-76.938184,11.600000,,,
2026-09-11T19:13:48.423,1.203057,-0.000000,-0.000000,-0.000000,0.000000,0.208054,-0.071578,-0.000000,,,,,,,,,,,,0.000000,0.000000,0,0,,38.990294,-76.938184,11.600000,,,
2026-09-11T19:13:48.457,1.236468,-0.000000,-0.000000,-0.000000,0.000000,0.208054,-0.071578,-0.000000,,,,,,,,,,,,0.000000,0.000000,0,0,,38.990294,-76.938184,11.600000,,,
2026-09-11T19:13:48.491,1.269923,-0.000000,-0.000000,-0.000000,0.000000,0.208054,-0.071578,-0.000000,,,,,,,,,,,,0.000000,0.000000,0,0,,38.990294,-76.938184,11.600000,,,
2026-09-11T19:13:48.524,1.303336,-0.000000,-0.000000,-0.000000,0.000000,0.208054,-0.071578,-0.000000,,,,,,,,,,,,0.000000,0.000000,0,0,,38.990294,-76.938184,11.600000,,,
2026-09-11T19:13:48.557,1.336748,-0.000000,-0.000000,-0.000000,0.000000,0.208054,-0.071578,-0.000000,,,,,,,,,,,,0.000000,0.000000,0,0,,38.990294,-76.938184,11.600000,,,
2026-09-11T19:13:48.590,1.370164,-0.000000,-0.000000,-0.000000,0.000000,0.208054,-0.071578,-0.000000,,,,,,,,,,,,0.000000,0.000000,0,0,,38.990294,-76.938184,11.600000,,,
2026-09-11T19:13:48.624,1.403577,-0.000000,-0.000000,-0.000000,0.000000,0.208054,-0.071578,-0.000000,,,,,,,,,,,,0.000000,0.000000,0,0,,38.990294,-76.938184,11.600000,,,
2026-09-11T19:13:48.658,1.436988,-0.000000,-0.000000,-0.000000,0.000000,0.208054,-0.071578,-0.000000,,,,,,,,,,,,0.000000,0.000000,0,0,,38.990294,-76.938184,11.600000,,,
2026-09-11T19:13:48.691,1.470403,-0.000000,-0.000000,-0.000000,0.000000,0.208054,-0.071578,-0.000000,,,,,,,,,,,,0.000000,0.000000,0,0,,38.990294,-76.938184,11.600000,,,
2026-09-11T19:13:48.724,1.503816,-0.000000,-0.000000,-0.000000,0.000000,0.208054,-0.071578,-0.000000,,,,,,,,,,,,0.000000,0.000000,0,0,,38.990294,-76.938184,11.600000,,,
2026-09-11T19:13:48.758,1.537228,-0.000000,-0.000000,-0.000000,0.000000,0.208054,-0.071578,-0.000000,,,,,,,,,,,,0.000000,0.000000,0,1,,38.990294,-76.938184,11.601000,-0.004898,0.015567,4.494751
2026-09-11T19:13:48.792,1.570650,-0.000000,-0.000000,-0.000000,0.000000,0.208054,-0.071578,-0.000000,,,,,,,,,,,,0.000000,0.000000,0,0,,38.990294,-76.938184,11.601000,,,
2026-09-11T19:13:48.825,1.604063,-0.000000,-0.000000,-0.000000,0.000000,0.208054,-0.071578,-0.000000,,,,,,,,,,,,0.000000,0.000000,0,0,,38.990294,-76.938184,11.601000,,,
2026-09-11T19:13:48.858,1.637479,-0.000000,-0.000000,-0.000000,0.000000,0.208054,-0.071578,-0.000000,,,,,,,,,,,,0.000000,0.000000,0,0,,38.990294,-76.938184,11.601000,,,
2026-09-11T19:13:48.892,1.670894,-0.000000,-0.000000,-0.000000,0.000000,0.208054,-0.071578,-0.000000,,,,,,,,,,,,0.000000,0.000000,0,0,,38.990294,-76.938184,11.601000,,,
2026-09-11T19:13:48.925,1.704303,-0.000000,-0.000000,-0.000000,0.000000,0.208054,-0.071578,-0.000000,,,,,,,,,,,,0.000000,0.000000,0,0,,38.990294,-76.938184,11.601000,,,
2026-09-11T19:13:48.959,1.737792,-0.000000,-0.000000,-0.000000,0.000000,0.208054,-0.071578,-0.000000,,,,,,,,,,,,0.000000,0.000000,0,0,,38.990294,-76.938184,11.601000,,,
2026-09-11T19:13:48.992,1.771211,-0.000000,-0.000000,-0.000000,0.000000,0.208054,-0.071578,-0.000000,,,,,,,,,,,,0.000000,0.000000,0,0,,38.990294,-76.938184,11.601000,,,
2026-09-11T19:13:49.025,1.804621,-0.000000,-0.000000,-0.000000,0.000000,0.208054,-0.071578,-0.000000,,,,,,,,,,,,0.000000,0.000000,0,0,,38.990294,-76.938184,11.601000,,,
2026-09-11T19:13:49.059,1.838027,-0.000000,-0.000000,-0.000000,0.000000,0.208054,-0.071578,-0.000000,,,,,,,,,,,,0.000000,0.000000,0,0,,38.990294,-76.938184,11.601000,,,
2026-09-11T19:13:49.092,1.871444,-0.000000,-0.000000,-0.000000,0.000000,0.208054,-0.071578,-0.000000,,,,,,,,,,,,0.000000,0.000000,0,0,,38.990294,-76.938184,11.601000,,,
2026-09-11T19:13:49.126,1.904851,-0.000000,-0.000000,-0.000000,0.000000,0.208054,-0.071578,-0.000000,,,,,,,,,,,,0.000000,0.000000,0,0,,38.990294,-76.938184,11.601000,,,
2026-09-11T19:13:49.159,1.938258,-0.000000,-0.000000,-0.000000,0.000000,0.208054,-0.071578,-0.000000,,,,,,,,,,,,0.000000,0.000000,0,0,,38.990294,-76.938184,11.601000,,,
2026-09-11T19:13:49.192,1.971675,-0.000000,-0.000000,-0.000000,0.000000,0.208054,-0.071578,-0.000000,,,,,,,,,,,,0.000000,0.000000,0,0,,38.990294,-76.938184,11.601000,,,
2026-09-11T19:13:49.226,2.005086,-0.000000,-0.000000,-0.000000,0.000000,0.208054,-0.071578,-0.000000,,,,,,,,,,,,0.000000,0.000000,0,0,,38.990294,-76.938184,11.601000,,,
2026-09-11T19:13:49.259,2.038492,-0.000000,-0.000000,-0.000000,0.000000,0.208054,-0.071578,-0.000000,,,,,,,,,,,,0.000000,0.000000,0,0,,38.990294,-76.938184,11.601000,,,
2026-09-11T19:13:49.293,2.071907,-0.000000,-0.000000,-0.000000,0.000000,0.208054,-0.071578,-0.000000,,,,,,,,,,,,0.000000,0.000000,0,0,,38.990294,-76.938184,11.601000,,,
2026-09-11T19:13:49.326,2.105326,-0.000000,-0.000000,-0.000000,0.000000,0.208054,-0.071578,-0.000000,,,,,,,,,,,,0.000000,0.000000,0,0,,38.990294,-76.938184,11.601000,,,
2026-09-11T19:13:49.359,2.138734,-0.000000,-0.000000,-0.000000,0.000000,0.208054,-0.071578,-0.000000,,,,,,,,,,,,0.000000,0.000000,0,0,,38.990294,-76.938184,11.601000,,,
2026-09-11T19:13:49.393,2.172154,-0.000000,-0.000000,-0.000000,0.000000,0.208054,-0.071578,-0.000000,,,,,,,,,,,,0.000000,0.000000,0,0,,38.990294,-76.938184,11.601000,,,
2026-09-11T19:13:49.426,2.205574,-0.000000,-0.000000,-0.000000,0.000000,0.208054,-0.071578,-0.000000,,,,,,,,,,,,0.000000,0.000000,0,0,,38.990294,-76.938184,11.601000,,,
2026-09-11T19:13:49.460,2.238994,-0.000000,-0.000000,-0.000000,0.000000,0.208054,-0.071578,-0.000000,,,,,,,,,,,,0.000000,0.000000,0,0,,38.990294,-76.938184,11.601000,,,
2026-09-11T19:13:49.493,2.272416,-0.000000,-0.000000,-0.000000,0.000000,0.208054,-0.071578,-0.000000,,,,,,,,,,,,0.000000,0.000000,0,0,,38.990294,-76.938184,11.601000,,,
2026-09-11T19:13:49.526,2.305832,-0.000000,-0.000000,-0.000000,0.000000,0.208054,-0.071578,-0.000000,,,,,,,,,,,,0.000000,0.000000,0,0,,38.990294,-76.938184,11.601000,,,
2026-09-11T19:13:49.560,2.339239,-0.000000,-0.000000,-0.000000,0.000000,0.208054,-0.071578,-0.000000,,,,,,,,,,,,0.000000,0.000000,0,0,,38.990294,-76.938184,11.601000,,,
2026-09-11T19:13:49.593,2.372654,-0.000000,-0.000000,-0.000000,0.000000,0.208054,-0.071578,-0.000000,,,,,,,,,,,,0.000000,0.000000,0,0,,38.990294,-76.938184,11.601000,,,
2026-09-11T19:13:49.627,2.406073,-0.000000,-0.000000,-0.000000,0.000000,0.208054,-0.071578,-0.000000,,,,,,,,,,,,0.000000,0.000000,0,0,,38.990294,-76.938184,11.601000,,,
2026-09-11T19:13:49.660,2.439481,-0.000000,-0.000000,-0.000000,0.000000,0.208054,-0.071578,-0.000000,,,,,,,,,,,,0.000000,0.000000,0,0,,38.990294,-76.938184,11.601000,,,
2026-09-11T19:13:49.694,2.472894,-0.000000,-0.000000,-0.000000,0.000000,0.208054,-0.071578,-0.000000,,,,,,,,,,,,0.000000,0.000000,0,0,,38.990294,-76.938184,11.601000,,,
2026-09-11T19:13:49.727,2.506312,-0.000000,-0.000000,-0.000000,0.000000,0.208054,-0.071578,-0.000000,,,,,,,,,,,,0.000000,0.000000,0,0,,38.990294,-76.938184,11.601000,,,
2026-09-11T19:13:49.761,2.539720,-0.000000,-0.000000,-0.000000,0.000000,0.208054,-0.071578,-0.000000,,,,,,,,,,,,0.000000,0.000000,0,1,,38.990294,-76.938184,11.604000,-0.004609,0.025945,4.494751
2026-09-11T19:13:49.794,2.573143,-0.000000,-0.000000,-0.000000,0.000000,0.208054,-0.071578,-0.000000,,,,,,,,,,,,0.000000,0.000000,0,0,,38.990294,-76.938184,11.604000,,,
2026-09-11T19:13:49.827,2.606561,-0.000000,-0.000000,-0.000000,0.000000,0.208054,-0.071578,-0.000000,,,,,,,,,,,,0.000000,0.000000,0,0,,38.990294,-76.938184,11.604000,,,
2026-09-11T19:13:49.861,2.639985,-0.000000,-0.000000,-0.000000,0.000000,0.208054,-0.071578,-0.000000,,,,,,,,,,,,0.000000,0.000000,0,0,,38.990294,-76.938184,11.604000,,,
2026-09-11T19:13:49.894,2.673397,-0.000000,-0.000000,-0.000000,0.000000,0.208054,-0.071578,-0.000000,,,,,,,,,,,,0.000000,0.000000,0,0,,38.990294,-76.938184,11.604000,,,
2026-09-11T19:13:49.928,2.706812,-0.000000,-0.000000,-0.000000,0.000000,0.208054,-0.071578,-0.000000,,,,,,,,,,,,0.000000,0.000000,0,0,,38.990294,-76.938184,11.604000,,,
2026-09-11T19:13:49.962,2.740236,-0.000000,-0.000000,-0.000000,0.000000,0.208054,-0.071578,-0.000000,,,,,,,,,,,,0.000000,0.000000,0,0,,38.990294,-76.938184,11.604000,,,
2026-09-11T19:13:49.995,2.773651,-0.000000,-0.000000,-0.000000,0.000000,0.208054,-0.071578,-0.000000,,,,,,,,,,,,0.000000,0.000000,0,0,,38.990294,-76.938184,11.604000,,,
2026-09-11T19:13:50.028,2.807068,-0.000000,-0.000000,-0.000000,0.000000,0.208054,-0.071578,-0.000000,,,,,,,,,,,,0.000000,0.000000,0,0,,38.990294,-76.938184,11.604000,,,
2026-09-11T19:13:50.062,2.840481,-0.000000,-0.000000,-0.000000,0.000000,0.208054,-0.071578,-0.000000,,,,,,,,,,,,0.000000,0.000000,0,0,,38.990294,-76.938184,11.604000,,,
2026-09-11T19:13:50.095,2.873896,-0.000000,-0.000000,-0.000000,0.000000,0.208054,-0.071578,-0.000000,,,,,,,,,,,,0.000000,0.000000,0,0,,38.990294,-76.938184,11.604000,,,
2026-09-11T19:13:50.128,2.907311,-0.000000,-0.000000,-0.000000,0.000000,0.208054,-0.071578,-0.000000,,,,,,,,,,,,0.000000,0.000000,0,0,,38.990294,-76.938184,11.604000,,,
2026-09-11T19:13:50.162,2.940729,-0.000000,-0.000000,-0.000000,0.000000,0.208054,-0.071578,-0.000000,,,,,,,,,,,,0.000000,0.000000,0,0,,38.990294,-76.938184,11.604000,,,
2026-09-11T19:13:50.195,2.974146,-0.000000,-0.000000,-0.000000,0.000000,0.208054,-0.071578,-0.000000,,,,,,,,,,,,0.000000,0.000000,0,0,,38.990294,-76.938184,11.604000,,,
2026-09-11T19:13:50.228,3.007557,-0.000000,-0.000000,-0.000000,0.000000,0.208054,-0.071578,-0.000000,,,,,,,,,,,,0.000000,0.000000,0,0,,38.990294,-76.938184,11.604000,,,
2026-09-11T19:13:50.262,3.040976,-0.000000,-0.000000,-0.000000,0.000000,0.208054,-0.071578,-0.000000,,,,,,,,,,,,0.000000,0.000000,0,0,,38.990294,-76.938184,11.604000,,,
2026-09-11T19:13:50.295,3.074399,-0.000000,-0.000000,-0.000000,0.000000,0.208054,-0.071578,-0.000000,,,,,,,,,,,,0.000000,0.000000,0,0,,38.990294,-76.938184,11.604000,,,
2026-09-11T19:13:50.328,3.107810,-0.000000,-0.000000,-0.000000,0.000000,0.208054,-0.071578,-0.000000,,,,,,,,,,,,0.000000,0.000000,0,0,,38.990294,-76.938184,11.604000,,,
2026-09-11T19:13:50.362,3.141225,-0.000000,-0.000000,-0.000000,0.000000,0.208054,-0.071578,-0.000000,,,,,,,,,,,,0.000000,0.000000,0,0,,38.990294,-76.938184,11.604000,,,
2026-09-11T19:13:50.396,3.174646,-0.000000,-0.000000,-0.000000,0.000000,0.208054,-0.071578,-0.000000,,,,,,,,,,,,0.000000,0.000000,0,0,,38.990294,-76.938184,11.604000,,,
2026-09-11T19:13:50.429,3.208057,-0.000000,-0.000000,-0.000000,0.000000,0.208054,-0.071578,-0.000000,,,,,,,,,,,,0.000000,0.000000,0,0,,38.990294,-76.938184,11.604000,,,
2026-09-11T19:13:50.462,3.241482,-0.000000,-0.000000,-0.000000,0.000000,0.208054,-0.071578,-0.000000,,,,,,,,,,,,0.000000,0.000000,0,0,,38.990294,-76.938184,11.604000,,,
2026-09-11T19:13:50.496,3.274900,-0.000000,-0.000000,-0.000000,0.000000,0.208054,-0.071578,-0.000000,,,,,,,,,,,,0.000000,0.000000,0,0,,38.990294,-76.938184,11.604000,,,
2026-09-11T19:13:50.529,3.308321,-0.000000,-0.000000,-0.000000,0.000000,0.208054,-0.071578,-0.000000,,,,,,,,,,,,0.000000,0.000000,0,0,,38.990294,-76.938184,11.604000,,,
2026-09-11T19:13:50.563,3.341742,-0.000000,-0.000000,-0.000000,0.000000,0.208054,-0.071578,-0.000000,,,,,,,,,,,,0.000000,0.000000,0,0,,38.990294,-76.938184,11.604000,,,
2026-09-11T19:13:50.596,3.375161,-0.000000,-0.000000,-0.000000,0.000000,0.208054,-0.071578,-0.000000,,,,,,,,,,,,0.000000,0.000000,0,0,,38.990294,-76.938184,11.604000,,,
2026-09-11T19:13:50.629,3.408580,-0.000000,-0.000000,-0.000000,0.000000,0.208054,-0.071578,-0.000000,,,,,,,,,,,,0.000000,0.000000,0,0,,38.990294,-76.938184,11.604000,,,
2026-09-11T19:13:50.663,3.442004,-0.000000,-0.000000,-0.000000,0.000000,0.208054,-0.071578,-0.000000,,,,,,,,,,,,0.000000,0.000000,0,0,,38.990294,-76.938184,11.604000,,,
2026-09-11T19:13:50.696,3.475422,-0.000000,-0.000000,-0.000000,0.000000,0.208054,-0.071578,-0.000000,,,,,,,,,,,,0.000000,0.000000,0,0,,38.990294,-76.938184,11.604000,,,
2026-09-11T19:13:50.729,3.508831,-0.000000,-0.000000,-0.000000,0.000000,0.208054,-0.071578,-0.000000,,,,,,,,,,,,0.000000,0.000000,0,0,,38.990294,-76.938184,11.604000,,,
2026-09-11T19:13:50.763,3.542257,-0.000000,-0.000000,-0.000000,0.000000,0.208054,-0.071578,-0.000000,,,,,,,,,,,,0.000000,0.000000,0,1,,38.990294,-76.938184,11.604000,-0.004177,0.039660,4.494751
2026-09-11T19:13:50.797,3.575683,-0.000000,-0.000000,-0.000000,0.000000,0.208054,-0.071578,-0.000000,,,,,,,,,,,,0.000000,0.000000,0,0,,38.990294,-76.938184,11.604000,,,
2026-09-11T19:13:50.830,3.609095,-0.000000,-0.000000,-0.000000,0.000000,0.208054,-0.071578,-0.000000,,,,,,,,,,,,0.000000,0.000000,0,0,,38.990294,-76.938184,11.604000,,,
2026-09-11T19:13:50.863,3.642517,-0.000000,-0.000000,-0.000000,0.000000,0.208054,-0.071578,-0.000000,,,,,,,,,,,,0.000000,0.000000,0,0,,38.990294,-76.938184,11.604000,,,
2026-09-11T19:13:50.897,3.675926,-0.000000,-0.000000,-0.000000,0.000000,0.208054,-0.071578,-0.000000,,,,,,,,,,,,0.000000,0.000000,0,0,,38.990294,-76.938184,11.604000,,,
2026-09-11T19:13:50.930,3.709336,-0.000000,-0.000000,-0.000000,0.000000,0.208054,-0.071578,-0.000000,,,,,,,,,,,,0.000000,0.000000,0,0,,38.990294,-76.938184,11.604000,,,
2026-09-11T19:13:50.964,3.742757,-0.000000,-0.000000,-0.000000,0.000000,0.208054,-0.071578,-0.000000,,,,,,,,,,,,0.000000,0.000000,0,0,,38.990294,-76.938184,11.604000,,,
2026-09-11T19:13:50.997,3.776167,-0.000000,-0.000000,-0.000000,0.000000,0.208054,-0.071578,-0.000000,,,,,,,,,,,,0.000000,0.000000,0,0,,38.990294,-76.938184,11.604000,,,
2026-09-11T19:13:51.030,3.809587,-0.000000,-0.000000,-0.000000,0.000000,0.208054,-0.071578,-0.000000,,,,,,,,,,,,0.000000,0.000000,0,0,,38.990294,-76.938184,11.604000,,,
2026-09-11T19:13:51.064,3.843006,-0.000000,-0.000000,-0.000000,0.000000,0.208054,-0.071578,-0.000000,,,,,,,,,,,,0.000000,0.000000,0,0,,38.990294,-76.938184,11.604000,,,
2026-09-11T19:13:51.097,3.876422,-0.000000,-0.000000,-0.000000,0.000000,0.208054,-0.071578,-0.000000,,,,,,,,,,,,0.000000,0.000000,0,0,,38.990294,-76.938184,11.604000,,,
2026-09-11T19:13:51.130,3.909831,-0.000000,-0.000000,-0.000000,0.000000,0.208054,-0.071578,-0.000000,,,,,,,,,,,,0.000000,0.000000,0,0,,38.990294,-76.938184,11.604000,,,
2026-09-11T19:13:51.164,3.943250,-0.000000,-0.000000,-0.000000,0.000000,0.208054,-0.071578,-0.000000,,,,,,,,,,,,0.000000,0.000000,0,0,,38.990294,-76.938184,11.604000,,,
2026-09-11T19:13:51.198,3.976664,-0.000000,-0.000000,-0.000000,0.000000,0.208054,-0.071578,-0.000000,,,,,,,,,,,,0.000000,0.000000,0,0,,38.990294,-76.938184,11.604000,,,
2026-09-11T19:13:51.231,4.010076,-0.336766,-0.011408,-3.118200,0.000000,0.208054,-0.071578,-0.336765,,,,,,,,,,,,0.000000,0.000000,0,0,,38.990294,-76.938184,11.604000,,,
2026-09-11T19:13:51.264,4.043494,-0.101475,-0.015139,-0.939584,0.000000,0.208054,-0.071578,-0.101475,,,,,,,,,,,,0.000000,0.000000,0,0,,38.990294,-76.938184,11.604000,,,
2026-09-11T19:13:51.297,4.076905,-0.023045,-0.015152,-0.213379,0.000000,0.208054,-0.071578,-0.023045,,,,,,,,,,,,0.000000,0.000000,0,0,,38.990294,-76.938184,11.604000,,,
2026-09-11T19:13:51.331,4.110315,-0.000000,-0.015006,-0.000000,0.000000,0.208054,-0.071578,-0.000000,,,,,,,,,,,,0.000000,0.000000,0,0,,38.990294,-76.938184,11.604000,,,
2026-09-11T19:13:51.364,4.143735,-0.000000,-0.015006,-0.000000,0.000000,0.208054,-0.071578,-0.000000,,,,,,,,,,,,0.000000,0.000000,0,0,,38.990294,-76.938184,11.604000,,,
2026-09-11T19:13:51.398,4.177146,-0.000000,-0.015006,-0.000000,0.000000,0.208054,-0.071578,-0.000000,,,,,,,,,,,,0.000000,0.000000,0,0,,38.990294,-76.938184,11.604000,,,
2026-09-11T19:13:51.431,4.210561,-0.000000,-0.015006,-0.000000,0.000000,0.208054,-0.071578,-0.000000,,,,,,,,,,,,0.000000,0.000000,0,0,,38.990294,-76.938184,11.604000,,,
2026-09-11T19:13:51.465,4.243981,-0.000000,-0.015006,-0.000000,0.000000,0.208054,-0.071578,-0.000000,,,,,,,,,,,,0.000000,0.000000,0,0,,38.990294,-76.938184,11.604000,,,
2026-09-11T19:13:51.498,4.277392,-0.000000,-0.015006,-0.000000,0.000000,0.208054,-0.071578,-0.000000,,,,,,,,,,,,0.000000,0.000000,0,0,,38.990294,-76.938184,11.604000,,,
2026-09-11T19:13:51.531,4.310809,-0.000000,-0.015006,-0.000000,0.000000,0.208054,-0.071578,-0.000000,,,,,,,,,,,,0.000000,0.000000,0,0,,38.990294,-76.938184,11.604000,,,
2026-09-11T19:13:51.565,4.344220,-0.000000,-0.015006,-0.000000,0.000000,0.208054,-0.071578,-0.000000,,,,,,,,,,,,0.000000,0.000000,0,0,,38.990294,-76.938184,11.604000,,,
2026-09-11T19:13:51.598,4.377640,-0.000000,-0.015006,-0.000000,0.000000,0.208054,-0.071578,-0.000000,,,,,,,,,,,,0.000000,0.000000,0,0,,38.990294,-76.938184,11.604000,,,
2026-09-11T19:13:51.632,4.411062,-0.000000,-0.015006,-0.000000,0.000000,0.208054,-0.071578,-0.000000,,,,,,,,,,,,0.000000,0.000000,0,0,,38.990294,-76.938184,11.604000,,,
2026-09-11T19:13:51.665,4.444474,-0.000000,-0.015006,-0.000000,0.000000,0.208054,-0.071578,-0.000000,,,,,,,,,,,,0.000000,0.000000,0,0,,38.990294,-76.938184,11.604000,,,
2026-09-11T19:13:51.699,4.477883,-0.000000,-0.015006,-0.000000,0.000000,0.274658,-0.094493,-0.000000,,,,,,,,,,,,0.000000,0.000000,0,0,,38.990294,-76.938184,11.604000,,,
2026-09-11T19:13:51.732,4.511292,-0.000000,-0.015006,-0.000000,0.000000,0.318604,-0.109611,-0.000000,,,,,,,,,,,,0.000000,0.000000,0,0,,38.990294,-76.938184,11.604000,,,
2026-09-11T19:13:51.765,4.544708,-0.000000,-0.015006,-0.000000,0.000000,0.414047,-0.142447,-0.000000,,,,,,,,,,,,0.000000,0.000000,0,1,,38.990294,-76.938184,11.598000,-0.007058,0.051706,4.494751
2026-09-11T19:13:51.799,4.578128,-0.000000,-0.015006,-0.000000,0.000000,0.520477,-0.179063,-0.000000,,,,,,,,,,,,0.000000,0.000000,0,0,,38.990294,-76.938184,11.598000,,,
2026-09-11T19:13:51.832,4.611551,-0.000000,-0.015006,-0.000000,0.000000,0.714798,-0.245917,-0.000000,,,,,,,,,,,,0.000000,0.000000,0,0,,38.990294,-76.938184,11.598000,,,
2026-09-11T19:13:51.866,4.644965,-0.000000,-0.015006,-0.000000,0.000000,1.109619,-0.381750,-0.000000,,,,,,,,,,,,0.000000,0.000000,0,0,,38.990294,-76.938184,11.598000,,,
2026-09-11T19:13:51.899,4.678374,-0.000000,-0.015006,-0.000000,0.000000,1.765366,-0.607351,-0.000000,,,,,,,,,,,,0.000000,0.000000,0,0,,38.990294,-76.938184,11.598000,,,
2026-09-11T19:13:51.932,4.711784,-0.000000,-0.015006,-0.000000,0.000000,2.607193,-0.896970,-0.000000,,,,,,,,,,,,0.000000,0.000000,0,0,,38.990294,-76.938184,11.598000,,,
2026-09-11T19:13:51.966,4.745199,-0.000000,-0.015006,-0.000000,0.000000,4.027863,-1.385733,-0.000000,,,,,,,,,,,,0.000000,0.000000,0,0,,38.990294,-76.938184,11.598000,,,
2026-09-11T19:13:52.000,4.778611,-0.000000,-0.015006,-0.000000,0.000000,7.369080,-2.535234,-0.000000,,,,,,,,,,,,0.000000,0.000000,0,0,,38.990294,-76.938184,11.598000,,,
2026-09-11T19:13:52.033,4.812034,-0.000000,-0.015006,-0.000000,0.000000,9.733201,-3.348578,-0.000000,,,,,,,,,,,,0.000000,0.000000,0,0,,38.990294,-76.938184,11.598000,,,
2026-09-11T19:13:52.066,4.845448,-0.000000,-0.015006,-0.000000,0.000000,9.635010,-3.314797,-0.000000,,,,,,,,,,,,0.000000,0.000000,0,0,,38.990294,-76.938184,11.598000,,,
2026-09-11T19:13:52.100,4.878870,-0.000000,-0.015006,-0.000000,0.000000,9.678956,-3.329916,-0.000000,,,,,,,,,,,,0.000000,0.000000,0,0,,38.990294,-76.938184,11.598000,,,
2026-09-11T19:13:52.133,4.912292,-0.000000,-0.015006,-0.000000,0.000000,9.678956,-3.329916,-0.000000,,,,,,,,,,,,0.000000,0.000000,0,0,,38.990294,-76.938184,11.598000,,,
2026-09-11T19:13:52.166,4.945704,-0.000000,-0.015006,-0.000000,0.000000,9.678956,-3.329916,-0.000000,,,,,,,,,,,,0.000000,0.000000,0,0,,38.990294,-76.938184,11.598000,,,
2026-09-11T19:13:52.200,4.979114,-0.000000,-0.015006,-0.000000,0.000000,9.713288,-3.341728,-0.000000,,,,,,,,,,,,0.000000,0.000000,0,0,,38.990294,-76.938184,11.598000,,,
2026-09-11T19:13:52.233,5.012523,-0.000000,-0.015006,-0.000000,0.000000,9.766846,-3.360154,-0.000000,,,,,,,,,,,,0.000000,0.000000,0,0,,38.990294,-76.938184,11.598000,,,
2026-09-11T19:13:52.267,5.045937,-0.000000,-0.015006,-0.000000,0.000000,9.766846,-3.360154,-0.000000,,,,,,,,,,,,0.000000,0.000000,0,0,,38.990294,-76.938184,11.598000,,,
2026-09-11T19:13:52.300,5.079346,-0.000000,-0.015006,-0.000000,0.000000,9.766846,-3.360154,-0.000000,,,,,,,,,,,,0.000000,0.000000,0,0,,38.990294,-76.938184,11.598000,,,
2026-09-11T19:13:52.334,5.112763,-0.000000,-0.015006,-0.000000,0.000000,9.766846,-3.360154,-0.000000,,,,,,,,,,,,0.000000,0.000000,0,0,,38.990294,-76.938184,11.598000,,,
2026-09-11T19:13:52.367,5.146181,-0.000000,-0.015006,-0.000000,0.000000,9.766846,-3.360154,-0.000000,,,,,,,,,,,,0.000000,0.000000,0,0,,38.990294,-76.938184,11.598000,,,
2026-09-11T19:13:52.401,5.179590,-0.000000,-0.015006,-0.000000,0.000000,9.766846,-3.360154,-0.000000,,,,,,,,,,,,0.000000,0.000000,0,0,,38.990294,-76.938184,11.598000,,,
2026-09-11T19:13:52.434,5.213001,-0.000000,-0.015006,-0.000000,0.000000,9.766846,-3.360154,-0.000000,,,,,,,,,,,,0.000000,0.000000,0,0,,38.990294,-76.938184,11.598000,,,
2026-09-11T19:13:52.467,5.246414,-0.000000,-0.015006,-0.000000,0.000000,9.766846,-3.360154,-0.000000,,,,,,,,,,,,0.000000,0.000000,0,0,,38.990294,-76.938184,11.598000,,,
2026-09-11T19:13:52.500,5.279825,-0.000000,-0.015006,-0.000000,0.000000,9.766846,-3.360154,-0.000000,,,,,,,,,,,,0.000000,0.000000,0,0,,38.990294,-76.938184,11.598000,,,
2026-09-11T19:13:52.534,5.313245,-0.000000,-0.015006,-0.000000,0.000000,9.766846,-3.360154,-0.000000,,,,,,,,,,,,0.000000,0.000000,0,0,,38.990294,-76.938184,11.598000,,,
2026-09-11T19:13:52.568,5.346677,-0.000000,-0.015006,-0.000000,0.000000,9.692689,-3.334641,-0.000000,,,,,,,,,,,,0.000000,0.000000,0,0,,38.990294,-76.938184,11.598000,,,
2026-09-11T19:13:52.602,5.380090,-0.000000,-0.015006,-0.000000,0.000000,9.605485,-3.304639,-0.000000,,,,,,,,,,,,0.000000,0.000000,0,0,,38.990294,-76.938184,11.598000,,,
2026-09-11T19:13:52.634,5.413502,-0.000000,-0.015006,-0.000000,0.000000,9.568406,-3.291883,-0.000000,,,,,,,,,,,,0.000000,0.000000,0,0,,38.990294,-76.938184,11.598000,,,
2026-09-11T19:13:52.668,5.446921,-0.000000,-0.015006,-0.000000,0.000000,9.568406,-3.291883,-0.000000,,,,,,,,,,,,0.000000,0.000000,0,0,,38.990294,-76.938184,11.598000,,,
2026-09-11T19:13:52.701,5.480335,-0.000000,-0.015006,-0.000000,0.000000,9.568406,-3.291883,-0.000000,,,,,,,,,,,,0.000000,0.000000,0,0,,38.990294,-76.938184,11.598000,,,
2026-09-11T19:13:52.735,5.513751,-0.000000,-0.015006,-0.000000,0.000000,9.568406,-3.291883,-0.000000,,,,,,,,,,,,0.000000,0.000000,0,0,,38.990294,-76.938184,11.598000,,,
2026-09-11T19:13:52.768,5.547171,-0.000000,-0.015006,-0.000000,0.000000,9.568406,-3.291883,-0.000000,,,,,,,,,,,,0.000000,0.000000,0,1,,38.990294,-76.938184,11.591000,-0.010083,0.065420,4.494751
2026-09-11T19:13:52.802,5.580596,-0.000000,-0.015006,-0.000000,0.000000,9.568406,-3.291883,-0.000000,,,,,,,,,,,,0.000000,0.000000,0,0,,38.990294,-76.938184,11.591000,,,
2026-09-11T19:13:52.835,5.614012,-0.000000,-0.015006,-0.000000,0.000000,9.518281,-3.274638,-0.000000,,,,,,,,,,,,0.000000,0.000000,0,0,,38.990294,-76.938184,11.591000,,,
2026-09-11T19:13:52.868,5.647429,-0.000000,-0.015006,-0.000000,0.000000,9.524461,-3.276764,-0.000000,,,,,,,,,,,,0.000000,0.000000,0,0,,38.990294,-76.938184,11.591000,,,
2026-09-11T19:13:52.902,5.680846,-0.000000,-0.015006,-0.000000,0.000000,9.524461,-3.276764,-0.000000,,,,,,,,,,,,0.000000,0.000000,0,0,,38.990294,-76.938184,11.591000,,,
2026-09-11T19:13:52.935,5.714260,-0.000000,-0.015006,-0.000000,0.000000,9.524461,-3.276764,-0.000000,,,,,,,,,,,,0.000000,0.000000,0,0,,38.990294,-76.938184,11.591000,,,
2026-09-11T19:13:52.969,5.747676,-0.000000,-0.015006,-0.000000,0.000000,9.524461,-3.276764,-0.000000,,,,,,,,,,,,0.000000,0.000000,0,0,,38.990294,-76.938184,11.591000,,,
2026-09-11T19:13:53.002,5.781087,-0.000000,-0.015006,-0.000000,0.000000,9.524461,-3.276764,-0.000000,,,,,,,,,,,,0.000000,0.000000,0,0,,38.990294,-76.938184,11.591000,,,
2026-09-11T19:13:53.035,5.814503,-0.000000,-0.015006,-0.000000,0.000000,9.480515,-3.261645,-0.000000,,,,,,,,,,,,0.000000,0.000000,0,0,,38.990294,-76.938184,11.591000,,,
2026-09-11T19:13:53.069,5.847918,-0.000000,-0.015006,-0.000000,0.000000,9.392625,-3.231408,-0.000000,,,,,,,,,,,,0.000000,0.000000,0,0,,38.990294,-76.938184,11.591000,,,
2026-09-11T19:13:53.102,5.881330,-0.000000,-0.015006,-0.000000,0.000000,9.326707,-3.208729,-0.000000,,,,,,,,,,,,0.000000,0.000000,0,0,,38.990294,-76.938184,11.591000,,,
2026-09-11T19:13:53.136,5.914742,-0.000000,-0.015006,-0.000000,0.000000,9.218217,-3.171405,-0.000000,,,,,,,,,,,,0.000000,0.000000,0,0,,38.990294,-76.938184,11.591000,,,
2026-09-11T19:13:53.169,5.948158,-0.000000,-0.015006,-0.000000,0.000000,9.216843,-3.170932,-0.000000,,,,,,,,,,,,0.000000,0.000000,0,0,,38.990294,-76.938184,11.591000,,,
2026-09-11T19:13:53.202,5.981569,-0.000000,-0.015006,-0.000000,0.000000,9.216843,-3.170932,-0.000000,,,,,,,,,,,,0.000000,0.000000,0,0,,38.990294,-76.938184,11.591000,,,
2026-09-11T19:13:53.237,6.014985,-0.000000,-0.015006,-0.000000,0.000000,9.192124,-3.162428,-0.000000,,,,,,,,,,,,0.000000,0.000000,0,0,,38.990294,-76.938184,11.591000,,,
2026-09-11T19:13:53.269,6.048401,-0.000000,-0.015006,-0.000000,0.000000,9.041062,-3.110457,-0.000000,,,,,,,,,,,,0.000000,0.000000,0,0,,38.990294,-76.938184,11.591000,,,
2026-09-11T19:13:53.302,6.081809,-0.000000,-0.015006,-0.000000,0.000000,8.909226,-3.065101,-0.000000,,,,,,,,,,,,0.000000,0.000000,0,0,,38.990294,-76.938184,11.591000,,,
2026-09-11T19:13:53.337,6.115226,-0.000000,-0.015006,-0.000000,0.000000,8.777390,-3.019744,-0.000000,,,,,,,,,,,,0.000000,0.000000,0,0,,38.990294,-76.938184,11.591000,,,
2026-09-11T19:13:53.370,6.148643,0.346387,-0.002038,3.207291,0.000000,8.657227,-2.978404,0.345920,,,,,,,,,,,,0.000000,0.000000,0,0,,38.990294,-76.938184,11.591000,,,
2026-09-11T19:13:53.403,6.182056,0.083981,0.000029,0.777601,0.000000,8.565903,-2.946985,0.083870,,,,,,,,,,,,0.000000,0.000000,0,0,,38.990294,-76.938184,11.591000,,,
2026-09-11T19:13:53.437,6.215477,0.015950,0.000075,0.147682,0.000000,8.557664,-2.944150,0.015929,,,,,,,,,,,,0.000000,0.000000,0,0,,38.990294,-76.938184,11.591000,,,
2026-09-11T19:13:53.470,6.248892,0.006231,0.000161,0.057694,0.000000,8.557664,-2.944150,0.006223,,,,,,,,,,,,0.000000,0.000000,0,0,,38.990294,-76.938184,11.591000,,,
2026-09-11T19:13:53.503,6.282308,-0.000000,-0.000000,-0.000000,0.000000,8.557664,-2.944150,-0.000000,,,,,,,,,,,,0.000000,0.000000,0,0,,38.990294,-76.938184,11.591000,,,
2026-09-11T19:13:53.537,6.315727,-0.000000,-0.000000,-0.000000,0.000000,8.557664,-2.944150,-0.000000,,,,,,,,,,,,0.000000,0.000000,0,0,,38.990294,-76.938184,11.591000,,,
2026-09-11T19:13:53.570,6.349139,-0.000000,-0.000000,-0.000000,0.000000,8.557664,-2.944150,-0.000000,,,,,,,,,,,,0.000000,0.000000,0,0,,38.990294,-76.938184,11.591000,,,
2026-09-11T19:13:53.604,6.382552,-0.000000,-0.000000,-0.000000,0.000000,8.557664,-2.944150,-0.000000,,,,,,,,,,,,0.000000,0.000000,0,0,,38.990294,-76.938184,11.591000,,,
2026-09-11T19:13:53.637,6.415971,-0.000000,-0.000000,-0.000000,0.000000,8.557664,-2.944150,-0.000000,,,,,,,,,,,,0.000000,0.000000,0,0,,38.990294,-76.938184,11.591000,,,
2026-09-11T19:13:53.670,6.449384,-0.000000,-0.000000,-0.000000,0.000000,8.557664,-2.944150,-0.000000,,,,,,,,,,,,0.000000,0.000000,0,0,,38.990294,-76.938184,11.591000,,,
2026-09-11T19:13:53.703,6.482793,-0.000000,-0.000000,-0.000000,0.000000,8.624268,-2.967065,-0.000000,,,,,,,,,,,,0.000000,0.000000,0,0,,38.990294,-76.938184,11.591000,,,
2026-09-11T19:13:53.737,6.516212,-0.000000,-0.000000,-0.000000,0.000000,8.668214,-2.982184,-0.000000,,,,,,,,,,,,0.000000,0.000000,0,0,,38.990294,-76.938184,11.591000,,,
2026-09-11T19:13:53.771,6.549622,-0.000000,-0.000000,-0.000000,0.000000,8.668214,-2.982184,-0.000000,,,,,,,,,,,,0.000000,0.000000,0,1,,38.990294,-76.938184,11.594000,0.000576,0.068941,4.494751
2026-09-11T19:13:53.804,6.583037,-0.000000,-0.000000,-0.000000,0.000000,8.668214,-2.982184,-0.000000,,,,,,,,,,,,0.000000,0.000000,0,0,,38.990294,-76.938184,11.594000,,,
2026-09-11T19:13:53.838,6.616457,-0.000000,-0.000000,-0.000000,0.000000,8.709412,-2.996357,-0.000000,,,,,,,,,,,,0.000000,0.000000,0,0,,38.990294,-76.938184,11.594000,,,
2026-09-11T19:13:53.871,6.649875,-0.000000,-0.000000,-0.000000,0.000000,8.712159,-2.997302,-0.000000,,,,,,,,,,,,0.000000,0.000000,0,0,,38.990294,-76.938184,11.594000,,,
2026-09-11T19:13:53.905,6.683293,-0.000000,-0.000000,-0.000000,0.000000,8.752671,-3.011240,-0.000000,,,,,,,,,,,,0.000000,0.000000,0,0,,38.990294,-76.938184,11.594000,,,
2026-09-11T19:13:53.938,6.716710,-0.000000,-0.000000,-0.000000,0.000000,8.756104,-3.012421,-0.000000,,,,,,,,,,,,0.000000,0.000000,0,0,,38.990294,-76.938184,11.594000,,,
2026-09-11T19:13:53.971,6.750129,-0.000000,-0.000000,-0.000000,0.000000,8.756104,-3.012421,-0.000000,,,,,,,,,,,,0.000000,0.000000,0,0,,38.990294,-76.938184,11.594000,,,
2026-09-11T19:13:54.005,6.783540,-0.000000,-0.000000,-0.000000,0.000000,8.756104,-3.012421,-0.000000,,,,,,,,,,,,0.000000,0.000000,0,0,,38.990294,-76.938184,11.594000,,,
