timestamp,time_s,speed_mps,distance_m,wheel_omega_rad_s,motor_current_A,steer_motor_deg,steer_column_deg,vx_mps,vy_mps,yaw_rate_rad_s,heading_rad,x_m,y_m,gyro_x_rad_s,gyro_y_rad_s,gyro_z_rad_s,accel_x_mps2,accel_y_mps2,accel_z_mps2,grade_deg,bank_deg,moving,gps_new_fix,gps_time_s,gps_latitude_deg,gps_longitude_deg,gps_altitude_m,gps_east_m,gps_north_m,gps_sigma_m
2026-09-11T19:02:23.749,0.000007,0.307245,0.001678,2.844861,0.000000,-43.392026,14.928449,0.296875,0.036658,0.077175,0.000000,0.000000,0.000000,0.067075,-0.006583,0.078659,0.969093,0.275665,9.597474,2.288540,1.691595,1,1,-0.528789,38.990378,-76.939807,-6.551000,0.000000,0.000000,3.480894
2026-09-11T19:02:23.783,0.033433,0.366163,0.013949,3.390394,0.000000,-43.392026,14.928449,0.353804,0.037816,0.079612,0.002620,0.010873,0.001260,0.062076,-0.004419,0.081096,0.863279,0.810324,9.426250,2.282195,1.725866,1,0,,38.990378,-76.939807,-6.551000,,,
2026-09-11T19:02:23.817,0.066852,0.337313,0.024679,3.123270,0.000000,-43.392026,14.928449,0.325928,0.039287,0.082710,0.005333,0.022226,0.002593,0.071512,0.000279,0.084194,1.029992,-0.504454,10.129485,2.284061,1.674733,1,0,,38.990378,-76.939807,-6.551000,,,
2026-09-11T19:02:23.850,0.100265,0.386332,0.037591,3.577148,0.000000,-43.392026,14.928449,0.373293,0.039110,0.082337,0.008090,0.033898,0.003982,0.046806,0.005931,0.083821,0.961150,-0.167301,9.704563,2.276373,1.645749,1,0,,38.990378,-76.939807,-6.551000,,,
2026-09-11T19:02:23.884,0.133699,0.357466,0.049185,3.309874,0.000000,-43.392026,14.928449,0.345401,0.040878,0.086058,0.010905,0.045900,0.005433,0.036332,-0.009735,0.087542,0.910351,-0.948009,9.286505,2.262335,1.566584,1,0,,38.990378,-76.939807,-6.551000,,,
2026-09-11T19:02:23.917,0.167113,0.397097,0.063402,3.676823,0.000000,-43.311002,14.900574,0.383744,0.042329,0.089115,0.013832,0.058063,0.006974,0.038930,-0.007061,0.090598,0.715395,-0.273507,10.469580,2.232663,1.531703,1,0,,38.990378,-76.939807,-6.551000,,,
2026-09-11T19:02:23.951,0.200526,0.387453,0.075814,3.587532,0.000000,-42.661435,14.677099,0.374810,0.045587,0.095973,0.016924,0.070711,0.008638,0.048662,-0.023561,0.097456,0.916628,-1.676349,10.274722,2.211347,1.406326,1,0,,38.990378,-76.939807,-6.551000,,,
2026-09-11T19:02:23.984,0.233947,0.407607,0.090223,3.774137,0.000000,-40.931775,14.082033,0.395358,0.039092,0.082299,0.019903,0.083553,0.010290,0.004758,-0.003908,0.083783,0.747463,0.193387,9.008095,2.174294,1.403538,1,0,,38.990378,-76.939807,-6.551000,,,
2026-09-11T19:02:24.018,0.267362,0.437166,0.104395,4.047837,0.000000,-38.910291,13.386568,0.425289,0.035470,0.074674,0.022526,0.097235,0.011827,-0.013385,-0.001038,0.076158,0.987726,-0.796104,10.069861,2.153163,1.336804,1,0,,38.990378,-76.939807,-6.551000,,,
2026-09-11T19:02:24.051,0.300775,0.427523,0.118647,3.958546,0.000000,-36.647107,12.607950,0.417214,0.039985,0.084179,0.025179,0.111276,0.013423,-0.021910,-0.001274,0.085663,1.557100,0.610464,9.904226,2.167902,1.361606,1,0,,38.990378,-76.939807,-6.551000,,,
2026-09-11T19:02:24.084,0.334196,0.476542,0.134843,4.412425,0.000000,-34.124372,11.740036,0.466573,0.038810,0.081706,0.027951,0.126004,0.015132,0.004279,-0.008348,0.083189,1.762451,0.716474,9.728687,2.195075,1.392805,1,0,,38.990378,-76.939807,-6.551000,,,
2026-09-11T19:02:24.118,0.367610,0.506001,0.151486,4.685191,0.000000,-33.719251,11.600660,0.495665,0.047038,0.099026,0.030971,0.142031,0.017040,0.019244,-0.011176,0.100510,1.239070,-1.132864,9.046046,2.185320,1.303285,1,0,,38.990378,-76.939807,-6.551000,,,
2026-09-11T19:02:24.151,0.401024,0.525288,0.169278,4.863774,0.000000,-33.082730,11.381673,0.514957,0.045716,0.096244,0.034233,0.158856,0.019140,0.022859,0.000476,0.097728,1.285162,1.424122,9.518727,2.176482,1.380171,1,0,,38.990378,-76.939807,-6.551000,,,
2026-09-11T19:02:24.185,0.434444,0.554602,0.188433,5.135205,0.000000,-32.168805,11.067249,0.544288,0.042555,0.089589,0.037339,0.176492,0.021248,0.044094,0.002151,0.091073,1.532583,-0.043443,10.256481,2.185989,1.361296,1,1,0.424113,38.990377,-76.939809,-6.584000,-0.205119,-0.091550,4.796355
2026-09-11T19:02:24.218,0.467861,0.603348,0.208718,5.586554,0.000000,-31.345517,10.784008,0.592692,0.047279,0.099536,0.040499,0.195416,0.023488,0.029470,-0.014863,0.101019,1.446775,-0.270271,8.207480,2.189789,1.327293,1,0,,38.990377,-76.939809,-6.584000,,,
2026-09-11T19:02:24.252,0.501276,0.632395,0.229687,5.855512,0.000000,-30.932843,10.642033,0.621518,0.050714,0.106765,0.043945,0.215615,0.025981,0.068164,-0.010204,0.108249,1.744603,-0.818561,8.807941,2.216001,1.257717,1,0,,38.990377,-76.939809,-6.584000,,,
2026-09-11T19:02:24.285,0.534698,0.661753,0.251920,6.127345,0.000000,-30.428159,10.468403,0.650739,0.047165,0.099295,0.047389,0.236779,0.028587,0.077880,-0.002411,0.100779,0.943400,-0.461991,10.841448,2.191928,1.212085,1,0,,38.990377,-76.939809,-6.584000,,,
2026-09-11T19:02:24.319,0.568116,0.681384,0.274996,6.309114,0.000000,-29.724347,10.226266,0.670560,0.049440,0.104084,0.050787,0.258751,0.031283,0.080720,0.013963,0.105568,1.037347,0.429727,10.467030,2.178145,1.224332,1,0,,38.990377,-76.939809,-6.584000,,,
2026-09-11T19:02:24.352,0.601528,0.691354,0.298589,6.401430,0.000000,-28.161542,9.688604,0.681494,0.045455,0.095695,0.054125,0.281224,0.034050,0.046077,-0.047299,0.097179,1.298891,-0.866319,9.259929,2.187253,1.152887,1,0,,38.990377,-76.939809,-6.584000,,,
2026-09-11T19:02:24.385,0.634951,0.740033,0.323473,6.852157,0.000000,-25.537870,8.785964,0.731349,0.040101,0.084423,0.057135,0.304719,0.036792,-0.011112,-0.095584,0.085907,2.184824,-0.834056,8.515605,2.256321,1.084524,1,0,,38.990377,-76.939809,-6.584000,,,
2026-09-11T19:02:24.419,0.668364,0.730817,0.348416,6.766823,0.000000,-19.701383,6.777999,0.725709,0.048871,0.102886,0.060264,0.328932,0.039704,-0.082417,0.009115,0.104370,0.527598,0.950068,9.377511,2.218448,1.131531,1,0,,38.990377,-76.939809,-6.584000,,,
2026-09-11T19:02:24.452,0.701784,0.731078,0.372813,6.769241,0.000000,-18.039701,6.206319,0.726793,0.027201,0.057266,0.062940,0.353079,0.042467,-0.148895,-0.041213,0.058750,0.458363,-0.395502,10.927452,2.178438,1.093092,1,0,,38.990377,-76.939809,-6.584000,,,
2026-09-11T19:02:24.486,0.735216,0.741074,0.397910,6.861794,0.000000,-15.646741,5.383053,0.737805,0.019829,0.041746,0.064595,0.377462,0.044812,-0.182053,-0.018410,0.043230,0.684504,1.514637,10.283940,2.155403,1.179417,1,0,,38.990377,-76.939809,-6.584000,,,
2026-09-11T19:02:24.519,0.768632,0.731719,0.422547,6.775174,0.000000,-14.836499,5.104300,0.728817,0.027083,0.057017,0.066245,0.401862,0.047196,-0.130521,-0.009421,0.058500,0.929082,0.031381,9.771640,2.149707,1.168077,1,0,,38.990377,-76.939809,-6.584000,,,
2026-09-11T19:02:24.552,0.802046,0.731990,0.447280,6.777684,0.000000,-14.622266,5.030596,0.729170,0.028926,0.060896,0.068215,0.426103,0.049766,-0.116063,-0.037818,0.062380,-0.754033,-0.059036,9.503723,2.035544,1.150830,1,0,,38.990377,-76.939809,-6.584000,,,
2026-09-11T19:02:24.586,0.835471,0.712734,0.471323,6.599392,0.000000,-16.204983,5.575109,0.709363,0.038120,0.080252,0.070574,0.450009,0.052550,-0.060817,-0.029122,0.081736,0.984490,-1.547686,8.531786,2.036079,1.036613,1,0,,38.990377,-76.939809,-6.584000,,,
2026-09-11T19:02:24.619,0.868887,0.722649,0.495882,6.691194,0.000000,-18.167417,6.250258,0.718353,0.047467,0.099931,0.073585,0.473698,0.055694,-0.048230,-0.018755,0.101415,1.075201,-1.130118,8.094899,2.043853,0.949749,1,0,,38.990377,-76.939809,-6.584000,,,
2026-09-11T19:02:24.653,0.902300,0.722734,0.520210,6.691982,0.000000,-19.331967,6.650906,0.717870,0.045044,0.094829,0.076839,0.497508,0.059039,-0.049706,-0.019484,0.096312,0.305673,1.611625,9.788900,2.001924,1.041473,1,0,,38.990377,-76.939809,-6.584000,,,
2026-09-11T19:02:24.686,0.935724,0.752337,0.545037,6.966085,0.000000,-20.845334,7.171560,0.746452,0.052508,0.110543,0.080271,0.521776,0.062585,-0.026552,-0.015163,0.112026,0.351765,1.143455,10.276879,1.963709,1.100978,1,0,,38.990377,-76.939809,-6.584000,,,
2026-09-11T19:02:24.719,0.969138,0.772174,0.570780,7.149761,0.000000,-21.537473,7.409681,0.765726,0.055458,0.116754,0.084068,0.546806,0.066457,-0.001191,0.012138,0.118238,1.226322,0.360591,10.236770,1.984612,1.108711,1,0,,38.990377,-76.939809,-6.584000,,,
2026-09-11T19:02:24.753,1.002553,0.801666,0.597229,7.422837,0.000000,-21.897275,7.533466,0.794747,0.065360,0.137600,0.088318,0.572607,0.070713,-0.050032,0.022033,0.139083,3.416441,-1.239953,13.358030,2.147386,1.011513,1,0,,38.990377,-76.939809,-6.584000,,,
2026-09-11T19:02:24.787,1.035976,0.811860,0.624315,7.517220,0.000000,-21.704328,7.467085,0.804975,0.043868,0.092353,0.092161,0.599068,0.074941,0.013997,-0.095768,0.093837,1.000180,0.574866,7.762748,2.151663,1.035082,1,0,,38.990377,-76.939809,-6.584000,,,
2026-09-11T19:02:24.820,1.069393,0.841453,0.652573,7.791230,0.000000,-21.660382,7.451966,0.834346,0.062387,0.131341,0.095898,0.626170,0.079281,0.019767,-0.003298,0.132824,1.441185,-1.963291,10.476150,2.185665,0.891881,1,0,,38.990377,-76.939809,-6.584000,,,
2026-09-11T19:02:24.853,1.102808,0.832100,0.680621,7.704632,0.000000,-21.770932,7.490000,0.825000,0.052863,0.111291,0.099952,0.653573,0.083907,0.012579,0.001381,0.112775,0.711963,1.695766,10.915488,2.172488,0.988158,1,0,,38.990377,-76.939809,-6.584000,,,
2026-09-11T19:02:24.887,1.136235,0.881437,0.710256,8.161457,0.000000,-21.660382,7.451966,0.873993,0.056086,0.118075,0.103785,0.681637,0.088608,0.035576,0.004414,0.119558,-0.178971,0.806989,8.227191,2.103358,1.025144,1,0,,38.990377,-76.939809,-6.584000,,,
2026-09-11T19:02:24.920,1.169652,0.872134,0.739448,8.075316,0.000000,-21.432416,7.373538,0.864922,0.055164,0.116135,0.107699,0.710333,0.093523,0.023454,0.033699,0.117619,0.128859,-0.440417,9.767914,2.056037,0.981176,1,0,,38.990377,-76.939809,-6.584000,,,
2026-09-11T19:02:24.953,1.203065,0.872512,0.768298,8.078813,0.000000,-21.484601,7.391491,0.865262,0.061680,0.129852,0.111808,0.738850,0.098629,0.059853,0.017507,0.131336,0.723535,-1.226714,8.587389,2.048865,0.886062,1,0,,38.990377,-76.939809,-6.584000,,,
2026-09-11T19:02:24.987,1.236491,0.853409,0.796737,7.901934,0.000000,-21.396710,7.361254,0.846375,0.052583,0.110702,0.115829,0.767055,0.103775,0.058251,-0.013417,0.112186,0.436788,-0.581927,10.014747,2.026151,0.834904,1,0,,38.990377,-76.939809,-6.584000,,,
2026-09-11T19:02:25.021,1.269908,0.873367,0.825805,8.086728,0.000000,-21.463315,7.384168,0.866124,0.054976,0.115738,0.119612,0.795259,0.108921,0.086066,0.001680,0.117222,0.014318,-0.289590,10.050738,1.976815,0.802817,1,0,,38.990377,-76.939809,-6.584000,,,
2026-09-11T19:02:25.054,1.303323,0.844703,0.853598,7.821321,0.000000,-21.172177,7.284006,0.837886,0.048274,0.101628,0.123244,0.823310,0.114081,0.058831,-0.015686,0.103112,-0.463756,1.268686,9.733198,1.890650,0.872880,1,0,,38.990377,-76.939809,-6.584000,,,
2026-09-11T19:02:25.088,1.336750,0.834955,0.881112,7.731062,0.000000,-20.639340,7.100691,0.828551,0.047822,0.100677,0.126625,0.850745,0.119145,0.036891,0.013778,0.102160,0.207509,-0.102283,11.964702,1.840709,0.853574,1,0,,38.990377,-76.939809,-6.584000,,,
2026-09-11T19:02:25.120,1.370164,0.825262,0.908255,7.641311,0.000000,-19.752881,6.795716,0.819464,0.034493,0.072617,0.129520,0.877877,0.124025,0.024925,0.018485,0.074100,0.868575,-0.953795,9.322104,1.831099,0.780949,1,0,,38.990377,-76.939809,-6.584000,,,
2026-09-11T19:02:25.154,1.403578,0.815440,0.935397,7.550373,0.000000,-17.943570,6.173247,0.810712,0.026712,0.056235,0.131673,0.904748,0.128586,0.011910,-0.018714,0.057719,0.847197,-1.141788,8.737725,1.819143,0.697866,1,0,,38.990377,-76.939809,-6.584000,,,
2026-09-11T19:02:25.188,1.436999,0.834984,0.963420,7.731337,0.000000,-15.800549,5.435969,0.831229,0.033357,0.070225,0.133786,0.931811,0.133212,-0.005572,-0.067170,0.071709,0.894465,-0.214079,9.412129,1.808199,0.674889,1,1,1.426306,38.990374,-76.939816,-6.804000,-0.819035,-0.497968,6.329561
2026-09-11T19:02:25.221,1.470417,0.845083,0.991525,7.824839,0.000000,-13.668515,4.702471,0.842238,0.017815,0.037505,0.135586,0.959406,0.137814,0.059286,-0.000504,0.038988,1.613684,0.311165,9.889418,1.843710,0.687886,1,0,,38.990374,-76.939816,-6.804000,,,
2026-09-11T19:02:25.254,1.503833,0.835563,1.019907,7.736698,0.000000,-11.816632,4.065355,0.833461,0.003993,0.008407,0.136353,0.987096,0.141970,0.037026,0.099186,0.009891,0.133076,1.308796,10.466245,1.785550,0.766874,1,0,,38.990374,-76.939816,-6.804000,,,
2026-09-11T19:02:25.288,1.537257,0.874666,1.048999,8.098756,0.000000,-8.546139,2.940185,0.873514,0.004675,0.009842,0.136658,1.015337,0.145996,0.059056,-0.042559,0.011326,3.247864,0.887208,6.376382,1.932661,0.817618,1,0,,38.990374,-76.939816,-6.804000,,,
2026-09-11T19:02:25.321,1.570673,0.972314,1.081327,9.002903,0.000000,-5.237880,1.802023,0.971833,-0.002882,-0.006067,0.136722,1.045878,0.150227,0.025145,0.039685,-0.004584,3.141658,-0.949872,12.898883,2.074458,0.749871,1,0,,38.990374,-76.939816,-6.804000,,,
2026-09-11T19:02:25.354,1.604089,1.020911,1.115969,9.452879,0.000000,-1.138607,0.391722,1.020887,-0.010367,-0.021824,0.136255,1.078893,0.154538,0.083488,0.013162,-0.020341,1.071671,-0.067960,16.872636,2.081713,0.740993,1,0,,38.990374,-76.939816,-6.804000,,,
2026-09-11T19:02:25.388,1.637509,1.060077,1.151045,9.815524,0.000000,6.132971,-2.109967,1.059358,-0.023198,-0.048839,0.135075,1.113410,0.158683,0.017439,-0.022742,-0.047355,0.888679,-0.897112,8.718700,2.072680,0.680467,1,0,,38.990374,-76.939816,-6.804000,,,
2026-09-11T19:02:25.421,1.670924,1.079641,1.187265,9.996672,0.000000,10.863271,-3.737364,1.077345,-0.059287,-0.124814,0.132173,1.148973,0.162073,0.033608,-0.015083,-0.123331,2.201397,1.711359,12.446306,2.147053,0.794729,1,0,,38.990374,-76.939816,-6.804000,,,
2026-09-11T19:02:25.456,1.704337,1.089721,1.223512,10.090011,0.000000,16.441580,-5.656507,1.084415,-0.058965,-0.124136,0.128014,1.185040,0.164799,0.000374,-0.002150,-0.122653,1.249759,0.444437,9.515687,2.162696,0.825770,1,0,,38.990374,-76.939816,-6.804000,,,
2026-09-11T19:02:25.490,1.737753,1.070616,1.259315,9.913111,0.000000,19.414068,-6.679152,1.063350,-0.069482,-0.146277,0.123496,1.220910,0.167171,-0.064314,-0.053414,-0.144793,0.063645,-0.809637,7.368717,2.100689,0.776687,1,0,,38.990374,-76.939816,-6.804000,,,
2026-09-11T19:02:25.524,1.771171,1.051748,1.294115,9.738411,0.000000,21.058584,-7.244926,1.043351,-0.070287,-0.147972,0.118580,1.256135,0.169104,-0.127478,-0.051648,-0.146488,-0.287335,-2.626613,7.652816,2.012999,0.610514,1,0,,38.990374,-76.939816,-6.804000,,,
2026-09-11T19:02:25.555,1.804589,1.023041,1.328011,9.472603,0.000000,22.416769,-7.712191,1.013787,-0.062194,-0.130935,0.113919,1.290533,0.170893,-0.172824,-0.143571,-0.129452,-2.135594,2.004381,16.310028,1.809159,0.744410,1,0,,38.990374,-76.939816,-6.804000,,,
2026-09-11T19:02:25.588,1.838005,0.965098,1.360301,8.936097,0.000000,22.691427,-7.806684,0.956154,-0.080997,-0.170521,0.108883,1.323507,0.172177,-0.172130,0.019737,-0.169037,0.831800,-2.147558,6.351277,1.804524,0.610158,1,0,,38.990374,-76.939816,-6.804000,,,
2026-09-11T19:02:25.622,1.871418,0.985254,1.393558,9.122722,0.000000,22.871328,-7.868576,0.975977,-0.083336,-0.175445,0.103103,1.355896,0.172861,-0.231673,0.007933,-0.173962,1.429319,0.181619,8.886002,1.840582,0.628610,1,0,,38.990374,-76.939816,-6.804000,,,
2026-09-11T19:02:25.655,1.904830,1.014738,1.427349,9.395726,0.000000,22.657781,-7.795108,1.005362,-0.066388,-0.139765,0.097837,1.389080,0.173691,-0.241164,-0.164560,-0.138281,3.230899,-0.208391,10.135173,1.991045,0.619641,1,0,,38.990374,-76.939816,-6.804000,,,
2026-09-11T19:02:25.688,1.938239,1.025096,1.462068,9.491626,0.000000,22.306219,-7.674158,1.015914,-0.054594,-0.114934,0.093582,1.422884,0.174906,-0.233996,0.042259,-0.113451,-0.611249,1.853653,9.965518,1.885495,0.742618,1,0,,38.990374,-76.939816,-6.804000,,,
2026-09-11T19:02:25.721,1.971651,0.986587,1.494437,9.135066,0.000000,21.918264,-7.540687,0.978055,-0.040367,-0.084984,0.090242,1.456200,0.176384,-0.230317,-0.053876,-0.083501,1.754998,-1.431183,11.575280,1.927953,0.649572,1,0,,38.990374,-76.939816,-6.804000,,,
2026-09-11T19:02:25.755,2.005064,1.035652,1.529190,9.589367,0.000000,21.883245,-7.528639,1.026724,-0.064832,-0.136489,0.086542,1.489716,0.177589,-0.160069,-0.017236,-0.135005,1.528759,0.741873,10.504099,1.950088,0.701819,1,0,,38.990374,-76.939816,-6.804000,,,
2026-09-11T19:02:25.789,2.038475,1.074481,1.565176,9.948898,0.000000,21.940237,-7.548247,1.065170,-0.066923,-0.140891,0.081909,1.524725,0.178334,-0.158651,-0.040367,-0.139407,3.108022,-3.060459,8.599648,2.069892,0.508160,1,0,,38.990374,-76.939816,-6.804000,,,
2026-09-11T19:02:25.822,2.071889,1.132993,1.602726,10.490677,0.000000,21.901098,-7.534781,1.123210,-0.071352,-0.150215,0.077045,1.561353,0.178931,-0.113727,-0.061228,-0.148732,1.933871,1.264764,9.184026,2.105386,0.597650,1,0,,38.990374,-76.939816,-6.804000,,,
2026-09-11T19:02:25.855,2.105302,1.152334,1.641294,10.669757,0.000000,21.899038,-7.534073,1.142386,-0.080207,-0.168856,0.071715,1.599286,0.179218,-0.057848,-0.008067,-0.167373,2.020660,-1.876404,12.056884,2.144504,0.484509,1,0,,38.990374,-76.939816,-6.804000,,,
2026-09-11T19:02:25.888,2.138712,1.191400,1.681172,11.031484,0.000000,21.778875,-7.492732,1.181227,-0.083989,-0.176819,0.065940,1.638199,0.179149,-0.049792,0.004469,-0.175335,2.173840,-1.240149,9.550500,2.199118,0.414817,1,0,,38.990374,-76.939816,-6.804000,,,
2026-09-11T19:02:25.923,2.172123,1.240174,1.722812,11.483091,0.000000,21.778875,-7.492732,1.229584,-0.090835,-0.191232,0.059792,1.678577,0.178762,0.031937,-0.011841,-0.189749,2.443719,-0.771195,8.648289,2.276499,0.377931,1,0,,38.990374,-76.939816,-6.804000,,,
2026-09-11T19:02:25.956,2.205534,1.298858,1.766375,12.026463,0.000000,21.778875,-7.492732,1.287768,-0.087866,-0.184982,0.053507,1.720732,0.178160,0.082884,0.012604,-0.183498,1.724794,-0.629587,10.397697,2.307693,0.350813,1,0,,38.990374,-76.939816,-6.804000,,,
2026-09-11T19:02:25.989,2.238946,1.328305,1.810762,12.299119,0.000000,21.734930,-7.477613,1.317009,-0.093260,-0.196336,0.047136,1.764344,0.177325,0.101988,0.013737,-0.194853,0.667343,0.725594,11.398171,2.272395,0.412975,1,0,,38.990374,-76.939816,-6.804000,,,
2026-09-11T19:02:26.022,2.272359,1.338407,1.855320,12.392659,0.000000,21.845480,-7.515647,1.326909,-0.093011,-0.195813,0.040585,1.808609,0.176152,0.088341,0.018096,-0.194329,2.214538,-2.486672,8.699087,2.343395,0.266731,1,0,,38.990374,-76.939816,-6.804000,,,
2026-09-11T19:02:26.056,2.305771,1.348326,1.900145,12.484498,0.000000,21.852346,-7.518009,1.336735,-0.099400,-0.209264,0.033818,1.853196,0.174595,0.071433,-0.024670,-0.207780,0.968113,-0.424432,9.441352,2.337963,0.256800,1,0,,38.990374,-76.939816,-6.804000,,,
2026-09-11T19:02:26.089,2.339185,1.358306,1.945573,12.576904,0.000000,22.617956,-7.781407,1.345798,-0.100222,-0.210993,0.026797,1.898092,0.172619,0.072757,0.035470,-0.209509,0.259974,-2.964158,11.189780,2.291536,0.082957,1,0,,38.990374,-76.939816,-6.804000,,,
2026-09-11T19:02:26.122,2.372599,1.339054,1.990323,12.398650,0.000000,25.168844,-8.659006,1.323792,-0.110222,-0.232046,0.019395,1.942761,0.170135,0.042592,-0.023816,-0.230563,-0.321462,0.276351,10.067311,2.213897,0.122171,1,0,,38.990374,-76.939816,-6.804000,,,
2026-09-11T19:02:26.156,2.406010,1.320149,2.034763,12.223601,0.000000,27.420357,-9.433609,1.302295,-0.123650,-0.260317,0.011170,1.986685,0.166900,0.094196,0.043357,-0.258833,0.710982,0.637825,8.702029,2.213503,0.186389,1,0,,38.990374,-76.939816,-6.804000,,,
2026-09-11T19:02:26.190,2.439424,1.291422,2.078622,11.957614,0.000000,28.086403,-9.662753,1.273101,-0.122044,-0.256935,0.002528,2.029738,0.163093,0.093031,0.051336,-0.255452,0.954383,-2.456370,8.588664,2.238782,0.048967,1,0,,38.990374,-76.939816,-6.804000,,,
2026-09-11T19:02:26.223,2.472841,1.272882,2.122314,11.785948,0.000000,27.927102,-9.607948,1.255028,-0.094279,-0.198481,-0.005082,2.071977,0.159425,0.213123,0.027213,-0.196998,-0.733145,-7.108252,7.281144,2.162851,-0.392979,1,1,2.474329,38.990369,-76.939826,-6.764000,-1.631299,-1.083965,4.381783
2026-09-11T19:02:26.256,2.506258,1.263979,2.163381,11.703505,0.000000,27.931222,-9.609365,1.246243,-0.102820,-0.216464,-0.012015,2.113739,0.155775,0.105239,0.017647,-0.214981,-0.404426,-1.408137,9.865098,2.114260,-0.459894,1,0,,38.990369,-76.939826,-6.764000,,,
2026-09-11T19:02:26.289,2.539672,1.274334,2.205452,11.799392,0.000000,28.030098,-9.643383,1.256327,-0.111158,-0.234017,-0.019541,2.155486,0.151541,0.095572,0.038166,-0.232533,1.378325,-1.923967,12.778948,2.184383,-0.557868,1,0,,38.990369,-76.939826,-6.764000,,,
2026-09-11T19:02:26.323,2.573083,1.284135,2.248298,11.890134,0.000000,30.722436,-10.569645,1.262346,-0.124620,-0.262357,-0.027833,2.197456,0.146606,-0.063557,-0.076665,-0.260873,1.246033,1.180525,8.717131,2.248313,-0.451511,1,0,,38.990369,-76.939826,-6.764000,,,
2026-09-11T19:02:26.357,2.606496,1.284218,2.291465,11.890905,0.000000,33.592614,-11.557092,1.258181,-0.138401,-0.291371,-0.037084,2.239399,0.140848,-0.133513,-0.090243,-0.289888,0.230064,-4.067308,8.861093,2.245632,-0.683546,1,0,,38.990369,-76.939826,-6.764000,,,
2026-09-11T19:02:26.390,2.639911,1.255151,2.334074,11.621766,0.000000,34.761284,-11.959157,1.227908,-0.145098,-0.305470,-0.047056,2.280698,0.134372,-0.210215,0.044109,-0.303987,-1.232108,-0.674011,10.069665,2.143139,-0.692930,1,0,,38.990369,-76.939826,-6.764000,,,
2026-09-11T19:02:26.423,2.673323,1.226337,2.374874,11.354971,0.000000,34.720772,-11.945220,1.199782,-0.131788,-0.277448,-0.056794,2.320962,0.127649,-0.157951,0.095093,-0.275965,-0.323031,-0.266054,10.422410,2.095903,-0.678548,1,0,,38.990369,-76.939826,-6.764000,,,
2026-09-11T19:02:26.456,2.706738,1.207115,2.414719,11.176990,0.000000,34.253167,-11.784346,1.181673,-0.123582,-0.260172,-0.065776,2.360413,0.120955,-0.178294,0.091665,-0.258689,0.244872,-0.217806,10.966777,2.080741,-0.662848,1,0,,38.990369,-76.939826,-6.764000,,,
2026-09-11T19:02:26.491,2.740151,1.178424,2.453855,10.911329,0.000000,32.940301,-11.332672,1.155448,-0.096541,-0.203245,-0.073518,2.399110,0.114571,-0.139555,0.062543,-0.201761,-0.722750,1.455993,10.918920,1.996599,-0.543732,1,0,,38.990369,-76.939826,-6.764000,,,
2026-09-11T19:02:26.524,2.773579,1.159542,2.492803,10.736497,0.000000,29.892968,-10.284278,1.140913,-0.087253,-0.183691,-0.079985,2.437143,0.108566,-0.154649,0.021118,-0.182208,0.246245,-0.362160,9.862842,1.973048,-0.545198,1,0,,38.990369,-76.939826,-6.764000,,,
2026-09-11T19:02:26.557,2.806993,1.150088,2.531228,10.648963,0.000000,26.435021,-9.094617,1.135630,-0.077734,-0.163650,-0.085788,2.474819,0.102670,-0.108227,0.048612,-0.162166,0.231829,-1.311443,9.313278,1.946677,-0.609598,1,0,,38.990369,-76.939826,-6.764000,,,
2026-09-11T19:02:26.592,2.840405,1.121187,2.568658,10.381361,0.000000,22.557534,-7.760619,1.110918,-0.061279,-0.129009,-0.090678,2.512000,0.097051,-0.095502,0.055738,-0.127525,0.871419,-1.938677,9.166570,1.957094,-0.716612,1,0,,38.990369,-76.939826,-6.764000,,,
2026-09-11T19:02:26.624,2.873822,1.131203,2.607095,10.474097,0.000000,20.169381,-6.939007,1.122917,-0.058652,-0.123478,-0.094896,2.548977,0.091597,-0.096223,0.058483,-0.121994,0.760996,0.533776,10.138213,1.952921,-0.662781,1,0,,38.990369,-76.939826,-6.764000,,,
2026-09-11T19:02:26.657,2.907234,1.151002,2.645513,10.657425,0.000000,17.214745,-5.922504,1.144858,-0.040834,-0.085966,-0.098395,2.586526,0.086286,-0.047039,0.043970,-0.084482,1.208081,-0.487685,9.089294,1.970188,-0.678239,1,0,,38.990369,-76.939826,-6.764000,,,
2026-09-11T19:02:26.690,2.940655,1.151354,2.684072,10.660685,0.000000,14.275216,-4.911198,1.147127,-0.038076,-0.080161,-0.101171,2.624504,0.081159,-0.061246,0.058163,-0.078677,1.475803,-0.067274,9.114105,2.000329,-0.666743,1,0,,38.990369,-76.939826,-6.764000,,,
2026-09-11T19:02:26.724,2.974067,1.181143,2.723825,10.936509,0.000000,9.731682,-3.348056,1.179127,-0.033918,-0.071407,-0.103703,2.663040,0.075988,-0.037969,0.062912,-0.069924,1.146986,0.976252,8.950922,2.005862,-0.588368,1,0,,38.990369,-76.939826,-6.764000,,,
2026-09-11T19:02:26.758,3.007485,1.220672,2.764653,11.302522,0.000000,7.848214,-2.700074,1.219317,-0.022921,-0.048254,-0.105703,2.702798,0.070854,-0.006957,0.034086,-0.046771,1.855320,-0.908390,8.701245,2.054580,-0.634437,1,0,,38.990369,-76.939826,-6.764000,,,
2026-09-11T19:02:26.791,3.040909,1.230565,2.806061,11.394121,0.000000,7.494591,-2.578414,1.229319,-0.022733,-0.047860,-0.107309,2.743406,0.065745,0.056594,0.040806,-0.046376,0.817188,0.519262,9.065267,2.033473,-0.587610,1,0,,38.990369,-76.939826,-6.764000,,,
2026-09-11T19:02:26.824,3.074323,1.269990,2.849233,11.759167,0.000000,7.312630,-2.515813,1.268766,-0.027856,-0.058644,-0.109088,2.784806,0.060397,0.039895,0.049405,-0.057161,2.390567,-0.369515,11.331780,2.108872,-0.597810,1,0,,38.990369,-76.939826,-6.764000,,,
2026-09-11T19:02:26.858,3.107735,1.309342,2.894044,12.123533,0.000000,7.387475,-2.541562,1.308054,-0.025643,-0.053984,-0.110970,2.827496,0.054782,0.074636,0.117570,-0.052501,1.162971,-0.486410,9.318965,2.098010,-0.615704,1,0,,38.990369,-76.939826,-6.764000,,,
2026-09-11T19:02:26.891,3.141147,1.348762,2.939113,12.488542,0.000000,7.387475,-2.541562,1.347436,-0.026914,-0.056661,-0.112818,2.871482,0.048955,0.111369,0.082454,-0.055178,0.296455,1.151301,9.967871,2.030192,-0.527081,1,0,,38.990369,-76.939826,-6.764000,,,
2026-09-11T19:02:26.924,3.174559,1.368107,2.984684,12.667659,0.000000,6.470116,-2.225957,1.367075,-0.023372,-0.049204,-0.114587,2.916444,0.042975,0.214627,-0.009693,-0.047721,1.510714,-0.678816,10.371807,2.042207,-0.558423,1,0,,38.990369,-76.939826,-6.764000,,,
2026-09-11T19:02:26.958,3.207973,1.368206,3.030289,12.668576,0.000000,4.577035,-1.574668,1.367690,-0.012518,-0.026353,-0.115849,2.961761,0.037126,0.232876,0.015973,-0.024869,0.779629,-0.826603,9.032905,2.009546,-0.601000,1,0,,38.990369,-76.939826,-6.764000,,,
2026-09-11T19:02:26.992,3.241382,1.368485,3.076300,12.671156,0.000000,2.582329,-0.888416,1.368320,-0.002029,-0.004271,-0.116361,3.007129,0.031591,0.229402,0.065079,-0.002788,0.588203,-0.648318,6.486609,1.970073,-0.633521,1,0,,38.990369,-76.939826,-6.764000,,,
2026-09-11T19:02:27.025,3.274794,1.368679,3.122363,12.672950,0.000000,2.015847,-0.693525,1.368578,0.008111,0.017076,-0.116147,3.052554,0.026388,0.218381,0.090573,0.018559,0.985666,-1.683606,7.669879,1.961209,-0.734551,1,0,,38.990369,-76.939826,-6.764000,,,
2026-09-11T19:02:27.058,3.308205,1.378866,3.168914,12.767279,0.000000,2.159356,-0.742898,1.378750,0.002555,0.005379,-0.115772,3.098163,0.021255,0.148623,0.101749,0.006863,-1.026560,-0.342546,-0.118170,1.827637,-0.746672,1,0,,38.990369,-76.939826,-6.764000,,,
2026-09-11T19:02:27.091,3.341617,1.427836,3.216681,13.220699,0.000000,3.507241,-1.206620,1.427519,-0.015945,-0.033568,-0.116243,3.144703,0.015606,0.076348,0.064876,-0.032084,0.996356,-3.465572,6.215945,1.834841,-0.957131,1,0,,38.990369,-76.939826,-6.764000,,,
2026-09-11T19:02:27.125,3.375030,1.457006,3.265175,13.490792,0.000000,6.079415,-2.091542,1.456035,-0.030082,-0.063330,-0.117862,3.192457,0.009216,0.048121,-0.032807,-0.061846,1.558571,1.851496,10.378378,1.888450,-0.818385,1,0,,38.990369,-76.939826,-6.764000,,,
2026-09-11T19:02:27.159,3.408441,1.476734,3.314850,13.673460,0.000000,7.469185,-2.569674,1.475249,-0.044512,-0.093710,-0.120485,3.240930,0.002157,0.064639,-0.009651,-0.092226,1.151987,1.261037,11.794360,1.924545,-0.716409,1,1,3.420748,38.990367,-76.939840,-7.031000,-2.910842,-1.307282,3.233112
2026-09-11T19:02:27.194,3.441857,1.476914,3.364717,13.675128,0.000000,8.770379,-3.017332,1.474866,-0.060245,-0.126831,-0.124170,3.289639,-0.005595,-0.004757,-0.036377,-0.125347,0.361081,0.510534,9.859214,1.913396,-0.660952,1,0,,38.990367,-76.939840,-7.031000,,,
2026-09-11T19:02:27.225,3.475274,1.467632,3.413660,13.589187,0.000000,9.463204,-3.255689,1.465263,-0.060355,-0.127063,-0.128412,3.338119,-0.013781,-0.052377,-0.112171,-0.125580,1.067454,-2.473041,10.564606,1.950735,-0.799218,1,0,,38.990367,-76.939840,-7.031000,,,
2026-09-11T19:02:27.258,3.508687,1.468550,3.462289,13.597682,0.000000,9.496850,-3.267265,1.466163,-0.054877,-0.115530,-0.132465,3.386427,-0.022060,-0.087695,-0.071379,-0.114046,0.985764,0.870144,9.392221,1.985510,-0.720725,1,0,,38.990367,-76.939840,-7.031000,,,
2026-09-11T19:02:27.293,3.542106,1.449743,3.510646,13.423550,0.000000,9.540795,-3.282384,1.447365,-0.051518,-0.108459,-0.136208,3.434433,-0.030342,-0.114441,-0.036197,-0.106975,-0.066979,3.100569,10.593045,1.952891,-0.499573,1,0,,38.990367,-76.939840,-7.031000,,,
2026-09-11T19:02:27.326,3.575520,1.430735,3.557930,13.247551,0.000000,9.496850,-3.267265,1.428410,-0.043286,-0.091129,-0.139542,3.481805,-0.038513,-0.136070,-0.022764,-0.089646,-0.091398,-0.366082,9.790077,1.922194,-0.506918,1,0,,38.990367,-76.939840,-7.031000,,,
2026-09-11T19:02:27.359,3.608935,1.402202,3.604204,12.983356,0.000000,9.378060,-3.226397,1.399980,-0.037724,-0.079418,-0.142392,3.528402,-0.046492,-0.133935,0.002044,-0.077935,-0.779727,4.520081,11.096617,1.852800,-0.199293,1,0,,38.990367,-76.939840,-7.031000,,,
2026-09-11T19:02:27.392,3.642351,1.353912,3.649194,12.536221,0.000000,9.150780,-3.148204,1.351869,-0.037216,-0.078349,-0.145028,3.573727,-0.054315,-0.103943,-0.012667,-0.076865,-0.094634,2.014580,11.819661,1.831021,-0.057513,1,0,,38.990367,-76.939840,-7.031000,,,
2026-09-11T19:02:27.426,3.675763,1.315025,3.693089,12.176160,0.000000,9.034737,-3.108281,1.313091,-0.035586,-0.074919,-0.147588,3.617595,-0.062008,-0.005367,0.010061,-0.073435,0.243009,-0.958110,9.389769,1.831926,-0.110107,1,0,,38.990367,-76.939840,-7.031000,,,
2026-09-11T19:02:27.459,3.709176,1.305498,3.736827,12.087949,0.000000,8.998345,-3.095761,1.303593,-0.044208,-0.093069,-0.150394,3.660627,-0.069815,-0.008583,0.006914,-0.091586,-0.187111,1.945541,8.972693,1.803611,0.027199,1,0,,38.990367,-76.939840,-7.031000,,,
2026-09-11T19:02:27.492,3.742592,1.276611,3.779496,11.820473,0.000000,9.021691,-3.103793,1.274738,-0.037235,-0.078390,-0.153259,3.703005,-0.077675,0.049068,0.055190,-0.076906,1.156498,-3.463120,10.424861,1.857702,-0.188303,1,0,,38.990367,-76.939840,-7.031000,,,
2026-09-11T19:02:27.525,3.776007,1.257502,3.821576,11.643536,0.000000,8.727120,-3.002450,1.255776,-0.049387,-0.103972,-0.156306,3.744555,-0.085622,-0.028334,0.001962,-0.102489,1.485119,2.407631,6.315090,1.925022,-0.019626,1,0,,38.990367,-76.939840,-7.031000,,,
2026-09-11T19:02:27.559,3.809431,1.267482,3.863848,11.735942,0.000000,8.555459,-2.943392,1.265810,-0.021732,-0.045752,-0.158808,3.785988,-0.093409,-0.020447,-0.018629,-0.044269,1.497868,-2.781460,7.374993,1.985565,-0.193271,1,0,,38.990367,-76.939840,-7.031000,,,
2026-09-11T19:02:27.593,3.842844,1.267905,3.906016,11.739863,0.000000,8.633736,-2.970322,1.266202,-0.062100,-0.130736,-0.161757,3.827522,-0.101542,-0.141429,-0.063983,-0.129252,-0.706373,4.576371,10.829190,1.895021,0.118002,1,0,,38.990367,-76.939840,-7.031000,,,
2026-09-11T19:02:27.626,3.876256,1.258382,3.947996,11.651689,0.000000,8.639229,-2.972212,1.256690,-0.035511,-0.074760,-0.165190,3.868843,-0.110010,-0.060479,-0.053137,-0.073276,2.142067,-1.939657,11.133294,1.980130,-0.000315,1,0,,38.990367,-76.939840,-7.031000,,,
2026-09-11T19:02:27.659,3.909668,1.278031,3.990622,11.833624,0.000000,8.463448,-2.911737,1.276381,-0.040211,-0.084654,-0.167853,3.910365,-0.118272,-0.002794,0.049401,-0.083170,1.717046,-0.480722,10.534206,2.027312,-0.022036,1,0,,38.990367,-76.939840,-7.031000,,,
2026-09-11T19:02:27.693,3.943082,1.268623,4.033573,11.746511,0.000000,8.448342,-2.906540,1.266991,-0.030800,-0.064841,-0.170351,3.952052,-0.126593,-0.061959,0.156529,-0.063358,0.645278,-2.071165,12.782968,1.995702,-0.148083,1,0,,38.990367,-76.939840,-7.031000,,,
2026-09-11T19:02:27.727,3.976495,1.288502,4.076607,11.930573,0.000000,8.243722,-2.836143,1.286924,-0.040012,-0.084235,-0.172841,3.993890,-0.135044,-0.003022,0.090905,-0.082751,1.699492,-4.157529,9.217074,2.022800,-0.406001,1,0,,38.990367,-76.939840,-7.031000,,,
2026-09-11T19:02:27.760,4.009904,1.337455,4.121373,12.383846,0.000000,8.398903,-2.889531,1.335755,-0.033625,-0.070790,-0.175431,4.036824,-0.143847,-0.024583,0.006773,-0.069306,1.263097,-2.849714,8.205813,2.012542,-0.577340,1,0,,38.990367,-76.939840,-7.031000,,,
2026-09-11T19:02:27.794,4.043315,1.386446,4.168259,12.837467,0.000000,8.415383,-2.895201,1.384677,-0.045264,-0.095294,-0.178205,4.081330,-0.153140,-0.027675,-0.019383,-0.093810,1.012537,-0.554174,7.101976,1.983014,-0.595876,1,0,,38.990367,-76.939840,-7.031000,,,
2026-09-11T19:02:27.826,4.076727,1.406335,4.214840,13.021619,0.000000,8.873375,-3.052767,1.404339,-0.054048,-0.113786,-0.181698,4.126873,-0.163112,-0.021181,-0.028341,-0.112302,3.371428,-3.816650,10.089964,2.106134,-0.823473,1,0,,38.990367,-76.939840,-7.031000,,,
2026-09-11T19:02:27.860,4.110138,1.455229,4.263069,13.474343,0.000000,8.990792,-3.093162,1.453109,-0.051565,-0.108558,-0.185412,4.173484,-0.173561,0.016281,0.015368,-0.107075,0.656947,1.326644,10.361216,2.050700,-0.715935,1,0,,38.990367,-76.939840,-7.031000,,,
2026-09-11T19:02:27.895,4.143631,1.484933,4.313354,13.749380,0.000000,9.145287,-3.146314,1.482695,-0.064439,-0.135661,-0.189502,4.221425,-0.184633,0.023474,0.068690,-0.134177,1.562984,-0.595950,11.948913,2.054612,-0.731200,1,0,,38.990367,-76.939840,-7.031000,,,
2026-09-11T19:02:27.927,4.177049,1.514261,4.364339,14.020940,0.000000,8.896721,-3.060799,1.512101,-0.055921,-0.117728,-0.193736,4.270166,-0.196138,0.011590,0.026790,-0.116244,1.163461,3.459002,10.505276,2.033079,-0.485385,1,0,,38.990367,-76.939840,-7.031000,,,
2026-09-11T19:02:27.960,4.210462,1.572422,4.416533,14.559459,0.000000,9.057396,-3.116077,1.570097,-0.056333,-0.118596,-0.197684,4.320310,-0.207993,0.012656,-0.004239,-0.117112,3.098411,-2.844517,10.133898,2.138459,-0.649604,1,0,,38.990367,-76.939840,-7.031000,,,
2026-09-11T19:02:27.995,4.243878,1.630732,4.471356,15.099372,0.000000,9.178246,-3.157653,1.628256,-0.056483,-0.118912,-0.201652,4.372312,-0.220442,-0.011112,0.034330,-0.117429,2.391057,-1.197294,9.058501,2.202404,-0.704964,1,0,,38.990367,-76.939840,-7.031000,,,
2026-09-11T19:02:28.028,4.277294,1.660134,4.526954,15.371612,0.000000,8.946847,-3.078044,1.657739,-0.057484,-0.121019,-0.205661,4.425694,-0.233411,0.039552,0.048214,-0.119535,0.854355,0.700881,7.851694,2.175988,-0.636441,1,0,,38.990367,-76.939840,-7.031000,,,
2026-09-11T19:02:28.061,4.310707,1.670241,4.582425,15.465192,0.000000,8.881615,-3.055602,1.667866,-0.059319,-0.124882,-0.209769,4.479656,-0.246779,0.081784,0.077602,-0.123398,-0.279980,2.193552,9.600809,2.083792,-0.471621,1,0,,38.990367,-76.939840,-7.031000,,,
2026-09-11T19:02:28.095,4.344122,1.680225,4.638895,15.557636,0.000000,8.925561,-3.070720,1.677812,-0.050827,-0.107004,-0.213644,4.533920,-0.260324,0.045467,0.007263,-0.105520,0.963307,-2.203358,9.957084,2.081323,-0.594951,1,0,,38.990367,-76.939840,-7.031000,,,
2026-09-11T19:02:28.128,4.377533,1.680603,4.695076,15.561136,0.000000,9.057396,-3.116077,1.678118,-0.058650,-0.123474,-0.217494,4.588293,-0.274103,0.052839,0.028764,-0.121990,0.277626,-1.367537,9.133718,2.045699,-0.661043,1,0,,38.990367,-76.939840,-7.031000,,,
2026-09-11T19:02:28.161,4.410945,1.690765,4.751504,15.655228,0.000000,8.702401,-2.993945,1.688457,-0.059334,-0.124913,-0.221643,4.642756,-0.288277,0.074592,-0.014529,-0.123429,-0.606443,0.440515,12.261255,1.961329,-0.609194,1,0,,38.990367,-76.939840,-7.031000,,,
2026-09-11T19:02:28.194,4.444372,1.681569,4.808181,15.570079,0.000000,8.449029,-2.906776,1.679405,-0.048846,-0.102834,-0.225450,4.697244,-0.302518,0.072734,0.012888,-0.101350,-0.071589,-1.684488,12.559279,1.921358,-0.697907,1,1,4.425167,38.990365,-76.939857,-6.825000,-4.296546,-1.475186,3.131368
2026-09-11T19:02:28.228,4.477783,1.682406,4.864055,15.577829,0.000000,8.124932,-2.795275,1.680404,-0.048901,-0.102949,-0.228888,4.751560,-0.316750,0.045351,0.123165,-0.101465,-2.037332,1.118252,3.646505,1.766335,-0.604261,1,0,,38.990365,-76.939857,-6.825000,,,
2026-09-11T19:02:28.261,4.511197,1.663443,4.919660,15.402249,0.000000,7.357949,-2.531404,1.661820,-0.050680,-0.106695,-0.232390,4.805540,-0.331134,-0.078859,0.033847,-0.105212,1.070690,0.863377,-1.843944,1.823264,-0.527853,1,0,,38.990365,-76.939857,-6.825000,,,
2026-09-11T19:02:28.295,4.544614,1.624909,4.974418,15.045450,0.000000,7.228173,-2.486757,1.623378,-0.037454,-0.078850,-0.235490,4.858595,-0.345290,-0.125256,-0.076874,-0.077367,0.269094,-2.412632,9.140975,1.832661,-0.667444,1,0,,38.990365,-76.939857,-6.825000,,,
2026-09-11T19:02:28.328,4.578023,1.615887,5.028461,14.961913,0.000000,6.366433,-2.190286,1.614706,-0.017684,-0.037229,-0.237429,4.910965,-0.358856,-0.140282,-0.052985,-0.035746,-0.240263,1.851299,9.383003,1.812150,-0.534021,1,0,,38.990365,-76.939857,-6.825000,,,
2026-09-11T19:02:28.362,4.611434,1.567558,5.080145,14.514427,0.000000,4.815301,-1.656640,1.566903,-0.006645,-0.013990,-0.238285,4.962523,-0.371774,-0.164867,-0.027308,-0.012506,0.030401,0.555056,10.502824,1.810166,-0.488398,1,0,,38.990365,-76.939857,-6.825000,,,
2026-09-11T19:02:28.395,4.644854,1.518808,5.131025,14.063039,0.000000,1.854485,-0.638011,1.518714,0.008632,0.018172,-0.238215,5.012636,-0.383911,-0.139817,0.035692,0.019655,-0.805224,1.835118,10.216078,1.756275,-0.363643,1,0,,38.990365,-76.939857,-6.825000,,,
2026-09-11T19:02:28.429,4.678273,1.499539,5.180930,13.884619,0.000000,-1.939918,0.667403,1.499437,0.027527,0.057952,-0.236943,5.061793,-0.395193,-0.145079,0.028355,0.059436,-0.619780,-0.627920,7.520818,1.717822,-0.403482,1,0,,38.990365,-76.939857,-6.825000,,,
2026-09-11T19:02:28.463,4.711691,1.470893,5.230085,13.619378,0.000000,-5.472022,1.882577,1.470099,0.031940,0.067241,-0.234851,5.110268,-0.405823,-0.164380,-0.019312,0.068725,-0.553880,0.580456,14.116379,1.683502,-0.365468,1,0,,38.990365,-76.939857,-6.825000,,,
2026-09-11T19:02:28.496,4.745108,1.432445,5.278044,13.263381,0.000000,-6.011726,2.068254,1.431512,0.044351,0.093371,-0.232168,5.157728,-0.415802,-0.133224,-0.006045,0.094854,-0.475132,1.798834,8.597392,1.652206,-0.251300,1,0,,38.990365,-76.939857,-6.825000,,,
2026-09-11T19:02:28.528,4.778520,1.423436,5.325705,13.179967,0.000000,-7.124778,2.451185,1.422134,0.048771,0.102676,-0.228892,5.204496,-0.425181,-0.140971,0.028356,0.104159,1.823350,-4.986780,7.178664,1.765240,-0.578186,1,0,,38.990365,-76.939857,-6.825000,,,
2026-09-11T19:02:28.562,4.811935,1.394712,5.372254,12.913996,0.000000,-8.455497,2.909001,1.392914,0.046640,0.098189,-0.225537,5.250678,-0.434223,-0.060775,0.007941,0.099673,0.116601,1.232892,11.238225,1.759558,-0.498481,1,0,,38.990365,-76.939857,-6.825000,,,
2026-09-11T19:02:28.597,4.845346,1.395186,5.419546,12.918390,0.000000,-10.241462,3.523439,1.392549,0.059772,0.125836,-0.221794,5.296445,-0.442811,-0.086361,0.031068,0.127320,0.365788,-0.916726,10.860571,1.761968,-0.561217,1,0,,38.990365,-76.939857,-6.825000,,,
2026-09-11T19:02:28.629,4.878763,1.395542,5.466232,12.921687,0.000000,-12.869941,4.427732,1.391377,0.062510,0.131599,-0.217493,5.342287,-0.450952,-0.054722,-0.020183,0.133083,-0.699410,1.441970,11.042288,1.684480,-0.471166,1,0,,38.990365,-76.939857,-6.825000,,,
2026-09-11T19:02:28.662,4.912176,1.376720,5.512148,12.747405,0.000000,-18.395383,6.328687,1.368330,0.070084,0.147545,-0.212829,5.387803,-0.458632,0.005114,0.019780,0.149028,0.316166,0.599873,13.171312,1.664552,-0.437816,1,0,,38.990365,-76.939857,-6.825000,,,
2026-09-11T19:02:28.696,4.945598,1.357895,5.557789,12.573105,0.000000,-18.870542,6.492159,1.349188,0.078107,0.164435,-0.207616,5.432731,-0.465688,0.004948,-0.035775,0.165919,1.146397,-1.706651,8.035667,1.689472,-0.555376,1,0,,38.990365,-76.939857,-6.825000,,,
2026-09-11T19:02:28.729,4.979009,1.377954,5.604526,12.758834,0.000000,-18.926160,6.511294,1.369066,0.085777,0.180583,-0.201852,5.477749,-0.472238,0.049173,-0.031865,0.182067,2.518348,-2.335846,9.849113,1.791479,-0.713947,1,0,,38.990365,-76.939857,-6.825000,,,
2026-09-11T19:02:28.762,5.012418,1.378747,5.650707,12.766179,0.000000,-19.046323,6.552634,1.369741,0.069305,0.145905,-0.196398,5.523109,-0.478749,0.008452,-0.081983,0.147389,1.810308,4.262559,9.117243,1.837655,-0.440845,1,0,,38.990365,-76.939857,-6.825000,,,
2026-09-11T19:02:28.795,5.045827,1.398747,5.697997,12.951357,0.000000,-19.312741,6.644292,1.389352,0.080899,0.170314,-0.191116,5.568818,-0.485160,0.040386,-0.070153,0.171797,1.211415,-0.162398,8.687613,1.837040,-0.459391,1,0,,38.990365,-76.939857,-6.825000,,,
2026-09-11T19:02:28.830,5.079239,1.437910,5.746746,13.313986,0.000000,-19.169919,6.595156,1.428395,0.065720,0.138357,-0.185959,5.615517,-0.491575,0.199531,-0.120170,0.139841,3.720055,-2.392823,5.506924,1.992839,-0.619501,1,0,,38.990365,-76.939857,-6.825000,,,
2026-09-11T19:02:28.862,5.112649,1.467197,5.796212,13.585159,0.000000,-18.147504,6.243407,1.458495,0.054386,0.114496,-0.181735,5.663296,-0.498418,0.129921,0.007844,0.115980,2.694671,-1.374598,7.945152,2.076052,-0.709982,1,0,,38.990365,-76.939857,-6.825000,,,
2026-09-11T19:02:28.895,5.146058,1.506023,5.846620,13.944655,0.000000,-15.223081,5.237298,1.499735,0.049372,0.103942,-0.178086,5.712225,-0.505554,0.144466,-0.076630,0.105425,3.632972,-3.227859,12.117293,2.216455,-0.918638,1,0,,38.990365,-76.939857,-6.825000,,,
2026-09-11T19:02:28.930,5.179471,1.535446,5.898773,14.217094,0.000000,-10.671994,3.671557,1.532295,0.037203,0.078323,-0.175041,5.762346,-0.513027,0.153322,-0.055994,0.079807,1.419513,-1.964860,10.550485,2.209680,-1.040974,1,0,,38.990365,-76.939857,-6.825000,,,
2026-09-11T19:02:28.963,5.212883,1.594041,5.952232,14.759643,0.000000,-5.291439,1.820449,1.593237,0.007715,0.016243,-0.173462,5.813902,-0.521339,0.122045,-0.024752,0.017726,2.516681,-2.083717,9.023295,2.274735,-1.163560,1,0,,38.990365,-76.939857,-6.825000,,,
2026-09-11T19:02:28.996,5.246294,1.643096,6.006956,15.213854,0.000000,-1.706463,0.587086,1.643010,-0.008708,-0.018333,-0.173496,5.867151,-0.530688,0.128694,-0.000336,-0.016850,2.647207,-0.322148,9.755067,2.350631,-1.167182,1,0,,38.990365,-76.939857,-6.825000,,,
2026-09-11T19:02:29.030,5.279707,1.682167,6.063955,15.575621,0.000000,4.566731,-1.571123,1.681535,-0.032060,-0.067494,-0.174930,5.921733,-0.540986,0.145529,0.054948,-0.066011,1.343707,-2.019974,11.633335,2.343649,-1.275234,1,0,,38.990365,-76.939857,-6.825000,,,
2026-09-11T19:02:29.063,5.313119,1.721254,6.121074,15.937534,0.000000,6.793524,-2.337221,1.719822,-0.047452,-0.099900,-0.177727,5.977441,-0.552262,0.104149,-0.011476,-0.098416,0.718239,-5.247931,9.435763,2.301343,-1.587219,1,0,,38.990365,-76.939857,-6.825000,,,
2026-09-11T19:02:29.098,5.346528,1.750418,6.179516,16.207573,0.000000,8.444219,-2.905121,1.748168,-0.058297,-0.122731,-0.181446,6.034125,-0.564349,0.019687,-0.051318,-0.121247,2.154913,-2.068615,8.235821,2.360704,-1.687238,1,0,,38.990365,-76.939857,-6.825000,,,
2026-09-11T19:02:29.130,5.379946,1.789851,6.239391,16.572692,0.000000,10.644232,-3.662006,1.786196,-0.075047,-0.157993,-0.186136,6.091777,-0.577333,0.072590,-0.021565,-0.156509,0.348136,-1.687626,9.285917,2.309891,-1.757134,1,0,,38.990365,-76.939857,-6.825000,,,
2026-09-11T19:02:29.164,5.413496,1.771068,6.299568,16.398780,0.000000,12.180944,-4.190692,1.766333,-0.076721,-0.161517,-0.191496,6.149834,-0.591019,0.031438,0.033372,-0.160034,-0.155337,-0.557508,6.941245,2.232140,-1.752883,1,1,5.422142,38.990363,-76.939873,-6.944000,-5.738139,-1.725004,3.119922
2026-09-11T19:02:29.197,5.446920,1.781472,6.358418,16.495107,0.000000,12.491308,-4.297468,1.776463,-0.080699,-0.169893,-0.197035,6.207419,-0.605030,0.106660,0.004292,-0.168410,0.273507,-1.060099,9.021530,2.192776,-1.780167,1,0,,38.990363,-76.939873,-6.944000,,,
2026-09-11T19:02:29.231,5.480332,1.762226,6.417499,16.316909,0.000000,11.801916,-4.060292,1.757803,-0.076792,-0.161667,-0.202574,6.264766,-0.619327,0.202777,-0.018122,-0.160183,1.017538,-0.431100,9.883044,2.214085,-1.767568,1,0,,38.990363,-76.939873,-6.944000,,,
2026-09-11T19:02:29.263,5.513742,1.752927,6.476017,16.230807,0.000000,10.835119,-3.727679,1.749219,-0.071900,-0.151368,-0.207803,6.321615,-0.633695,0.171478,-0.007518,-0.149885,0.939575,0.335191,7.928775,2.241337,-1.706770,1,0,,38.990363,-76.939873,-6.944000,,,
2026-09-11T19:02:29.297,5.547152,1.743003,6.534141,16.138917,0.000000,10.748602,-3.697913,1.739374,-0.059601,-0.125476,-0.212428,6.378153,-0.647998,0.119456,0.257189,-0.123992,1.696649,-5.589006,4.316789,2.327199,-2.033104,1,0,,38.990363,-76.939873,-6.944000,,,
2026-09-11T19:02:29.331,5.580563,1.733456,6.592281,16.050523,0.000000,13.239752,-4.554960,1.727982,-0.097008,-0.204228,-0.217936,6.434181,-0.662921,-0.075381,-0.205729,-0.202745,-0.438161,0.892994,20.110105,2.282800,-1.927540,1,0,,38.990363,-76.939873,-6.944000,,,
2026-09-11T19:02:29.364,5.613977,1.695108,6.648151,15.695443,0.000000,18.506323,-6.366854,1.684653,-0.100175,-0.210895,-0.224871,6.489081,-0.678653,-0.057705,0.047000,-0.209412,2.421360,2.672312,8.567286,2.434146,-1.707815,1,0,,38.990363,-76.939873,-6.944000,,,
2026-09-11T19:02:29.397,5.647389,1.695522,6.704475,15.699275,0.000000,21.555715,-7.415957,1.681339,-0.127697,-0.268837,-0.232886,6.542981,-0.695118,-0.114504,0.038845,-0.267353,0.821307,-8.129027,5.790042,2.481144,-2.183471,1,0,,38.990363,-76.939873,-6.944000,,,
2026-09-11T19:02:29.431,5.680801,1.695799,6.761853,15.701840,0.000000,26.582647,-9.145406,1.674242,-0.137035,-0.288495,-0.242196,6.596424,-0.712607,-0.103245,0.037048,-0.287012,0.296063,-2.925324,11.129469,2.490707,-2.315021,1,0,,38.990363,-76.939873,-6.944000,,,
2026-09-11T19:02:29.464,5.714214,1.657313,6.817292,15.345495,0.000000,30.992287,-10.662484,1.628699,-0.152177,-0.320373,-0.252368,6.648741,-0.730794,-0.134923,0.034390,-0.318889,-1.904746,-1.805502,9.216290,2.353886,-2.370101,1,0,,38.990363,-76.939873,-6.944000,,,
2026-09-11T19:02:29.497,5.747627,1.628783,6.871526,15.081320,0.000000,31.425561,-10.811546,1.599871,-0.149798,-0.315363,-0.262989,6.699613,-0.749415,-0.087323,-0.021713,-0.313880,-0.805126,3.226976,7.335767,2.282609,-2.099839,1,0,,38.990363,-76.939873,-6.944000,,,
2026-09-11T19:02:29.531,5.781040,1.571385,6.923963,14.549861,0.000000,31.513451,-10.841784,1.543336,-0.148191,-0.311981,-0.273470,6.748928,-0.768127,-0.046783,0.069518,-0.310497,-0.547898,-0.800517,11.292750,2.223504,-2.094838,1,0,,38.990363,-76.939873,-6.944000,,,
2026-09-11T19:02:29.564,5.814447,1.552780,6.975444,14.377596,0.000000,31.513451,-10.841784,1.525064,-0.136813,-0.288027,-0.283492,6.796900,-0.786792,0.098212,0.130265,-0.286544,-0.619878,0.499453,9.855683,2.157017,-2.008481,1,0,,38.990363,-76.939873,-6.944000,,,
2026-09-11T19:02:29.600,5.847858,1.495143,7.025558,13.843918,0.000000,31.424187,-10.811074,1.468606,-0.139196,-0.293043,-0.293199,6.843535,-0.805430,0.028497,-0.021513,-0.291560,0.119249,-0.253894,4.337677,2.129110,-1.972417,1,0,,38.990363,-76.939873,-6.944000,,,
2026-09-11T19:02:29.632,5.881275,1.466615,7.075434,13.579764,0.000000,31.469506,-10.826665,1.440509,-0.136028,-0.286374,-0.302880,6.888649,-0.824096,0.093064,0.040673,-0.284890,0.358825,-4.798394,13.203380,2.105625,-2.232155,1,0,,38.990363,-76.939873,-6.944000,,,
2026-09-11T19:02:29.664,5.914688,1.496467,7.125274,13.856175,0.000000,31.654900,-10.890447,1.469516,-0.146666,-0.308771,-0.312823,6.933546,-0.843330,0.118712,0.078563,-0.307287,-0.447477,-0.226043,10.353077,2.028821,-2.190290,1,0,,38.990363,-76.939873,-6.944000,,,
2026-09-11T19:02:29.698,5.948114,1.506393,7.175431,13.948085,0.000000,34.246300,-11.781984,1.474656,-0.165407,-0.348225,-0.323803,6.978645,-0.863683,0.060463,-0.014567,-0.346742,0.925846,0.012160,9.019176,2.041175,-2.129574,1,0,,38.990363,-76.939873,-6.944000,,,
2026-09-11T19:02:29.732,5.981529,1.554825,7.227619,14.396525,0.000000,37.671288,-12.960306,1.515217,-0.189284,-0.398492,-0.336279,7.023977,-0.885481,0.150220,0.050235,-0.397009,-0.008826,-2.207281,10.065252,1.992395,-2.207410,1,0,,38.990363,-76.939873,-6.944000,,,
2026-09-11T19:02:29.765,6.014941,1.613329,7.281451,14.938232,0.000000,42.778557,-14.717394,1.560397,-0.211913,-0.446132,-0.350390,7.070098,-0.909092,0.057286,0.053934,-0.444649,0.933789,-3.448410,9.056049,2.002816,-2.358768,1,0,,38.990363,-76.939873,-6.944000,,,
2026-09-11T19:02:29.798,6.048353,1.652636,7.336477,15.302183,0.000000,49.959496,-17.187900,1.578830,-0.252791,-0.532191,-0.366734,7.116476,-0.934766,-0.012261,0.049680,-0.530708,0.895249,-2.491772,7.888371,2.006519,-2.437186,1,0,,38.990363,-76.939873,-6.944000,,,
2026-09-11T19:02:29.831,6.081765,1.701425,7.393330,15.753939,0.000000,60.198754,-20.710580,1.591477,-0.295917,-0.622984,-0.386032,7.162352,-0.962756,-0.074037,0.030272,-0.621500,1.698806,-3.968849,6.384325,2.061290,-2.600603,1,0,,38.990363,-76.939873,-6.944000,,,
2026-09-11T19:02:29.865,6.115178,1.818357,7.454200,16.836638,0.000000,65.400094,-22.500032,1.679942,-0.348403,-0.733480,-0.408693,7.208563,-0.993841,-0.056742,-0.195534,-0.731997,2.722032,-1.057843,6.928006,2.182219,-2.558098,1,0,,38.990363,-76.939873,-6.944000,,,
2026-09-11T19:02:29.899,6.148589,1.886416,7.518164,17.466815,0.000000,70.195626,-24.149871,1.721314,-0.397748,-0.837365,-0.434936,7.255282,-1.028478,-0.132862,0.053153,-0.835881,-2.327903,-4.268246,15.882949,1.979007,-2.710444,1,0,,38.990363,-76.939873,-6.944000,,,
2026-09-11T19:02:29.932,6.182001,1.867486,7.580668,17.291533,0.000000,73.266310,-25.206299,1.689664,-0.405631,-0.853959,-0.463191,7.300787,-1.065295,0.059333,-0.002323,-0.852476,-2.438522,-0.167498,9.267284,1.772654,-2.595408,1,0,,38.990363,-76.939873,-6.944000,,,
2026-09-11T19:02:29.965,6.215413,1.868085,7.642968,17.297087,0.000000,75.331053,-25.916647,1.680214,-0.407273,-0.857417,-0.491781,7.344543,-1.103222,-0.152767,0.036719,-0.855933,-0.594087,-7.468549,0.640570,1.689645,-2.954712,1,0,,38.990363,-76.939873,-6.944000,,,
2026-09-11T19:02:29.999,6.248824,1.820125,7.703753,16.853009,0.000000,78.579573,-27.034257,1.621249,-0.427765,-0.900559,-0.521149,7.386003,-1.142154,0.071074,0.144499,-0.899075,-0.171322,-1.758823,16.189603,1.642255,-2.938926,1,0,,38.990363,-76.939873,-6.944000,,,
2026-09-11T19:02:30.032,6.282240,1.840146,7.765708,17.038390,0.000000,79.803175,-27.455221,1.632893,-0.419174,-0.882471,-0.550939,7.425515,-1.182088,0.107265,-0.072708,-0.880987,-0.680974,3.904027,9.582470,1.565839,-2.557701,1,0,,38.990363,-76.939873,-6.944000,,,
2026-09-11T19:02:30.067,6.315652,1.811596,7.825657,16.774032,0.000000,79.338316,-27.295292,1.609883,-0.400673,-0.843523,-0.579774,7.463926,-1.222669,0.027477,-0.023241,-0.842039,-1.875620,-2.954646,5.549387,1.413057,-2.630375,1,0,,38.990363,-76.939873,-6.944000,,,
2026-09-11T19:02:30.099,6.349068,1.772527,7.884806,16.412286,0.000000,79.681639,-27.413408,1.573486,-0.399653,-0.841375,-0.607926,7.500526,-1.263502,-0.010153,0.221926,-0.839891,-1.035582,-0.380106,17.073672,1.322264,-2.537699,1,0,,38.990363,-76.939873,-6.944000,,,
2026-09-11T19:02:30.133,6.382480,1.713860,7.942362,15.869077,0.000000,80.173277,-27.582549,1.519071,-0.408797,-0.860624,-0.636359,7.534641,-1.304570,-0.076361,0.068608,-0.859141,2.670351,-0.448066,5.861533,1.481456,-2.451542,1,0,,38.990363,-76.939873,-6.944000,,,
2026-09-11T19:02:30.166,6.415900,1.704138,7.999867,15.779053,0.000000,81.841139,-28.156355,1.502475,-0.388842,-0.818616,-0.664419,7.566756,-1.345745,-0.048545,-0.037608,-0.817132,0.195054,-4.335520,1.866990,1.479693,-2.623148,1,1,6.426689,38.990365,-76.939891,-6.948000,-7.320175,-1.473889,3.275877
2026-09-11T19:02:30.199,6.449324,1.733591,8.057653,16.051765,0.000000,82.254500,-28.298566,1.526408,-0.397072,-0.835941,-0.692070,7.597923,-1.387731,-0.188669,-0.068519,-0.834457,-2.112451,1.313209,5.781609,1.326312,-2.423937,1,0,,38.990365,-76.939891,-6.948000,,,
2026-09-11T19:02:30.233,6.482735,1.734050,8.115022,16.056016,0.000000,82.548384,-28.399673,1.525359,-0.404231,-0.851013,-0.720251,7.628022,-1.430993,-0.208847,-0.091665,-0.849530,-1.258585,3.038002,7.645363,1.225005,-2.113944,1,0,,38.990365,-76.939891,-6.948000,,,
2026-09-11T19:02:30.266,6.516146,1.704977,8.171928,15.786823,0.000000,82.634901,-28.429438,1.499364,-0.394569,-0.830671,-0.748345,7.656591,-1.474749,-0.144245,-0.022189,-0.829188,-2.230915,3.249139,16.135176,1.056019,-1.797192,1,0,,38.990365,-76.939891,-6.948000,,,
2026-09-11T19:02:30.300,6.549558,1.744340,8.230508,16.151301,0.000000,82.418608,-28.355026,1.535057,-0.405762,-0.854235,-0.776493,7.684006,-1.519430,-0.103407,0.027985,-0.852751,1.329389,-4.156549,11.994612,1.117740,-1.959066,1,0,,38.990365,-76.939891,-6.948000,,,
2026-09-11T19:02:30.333,6.582970,1.734877,8.288603,16.063678,0.000000,82.247633,-28.296204,1.527575,-0.403453,-0.849374,-0.804953,7.710380,-1.565303,-0.022271,0.024625,-0.847891,2.013207,-2.186981,10.352684,1.216962,-1.992554,1,0,,38.990365,-76.939891,-6.948000,,,
2026-09-11T19:02:30.366,6.616384,1.755126,8.347147,16.251165,0.000000,82.216047,-28.285337,1.545561,-0.413852,-0.871267,-0.833700,7.735448,-1.612138,-0.067540,0.122876,-0.869783,-1.879445,2.269259,13.319883,1.063111,-1.734020,1,0,,38.990365,-76.939891,-6.948000,,,
2026-09-11T19:02:30.400,6.649795,1.726427,8.404875,15.985433,0.000000,82.206434,-28.282030,1.520336,-0.403430,-0.849327,-0.862443,7.759089,-1.659574,-0.121818,0.087798,-0.847843,0.750993,-3.329848,8.265535,1.082329,-1.844369,1,0,,38.990365,-76.939891,-6.948000,,,
2026-09-11T19:02:30.434,6.683204,1.746426,8.464655,16.170615,0.000000,82.423414,-28.356679,1.536869,-0.403081,-0.848591,-0.890806,7.781400,-1.707442,-0.097586,0.064196,-0.847107,-2.048119,1.296733,12.295774,0.920574,-1.653219,1,0,,38.990365,-76.939891,-6.948000,,,
2026-09-11T19:02:30.466,6.716617,1.717710,8.521219,15.904720,0.000000,82.474226,-28.374160,1.511349,-0.411330,-0.865958,-0.919450,7.802151,-1.755888,-0.057310,0.028999,-0.864475,-0.257621,-2.265728,9.594434,0.883729,-1.694456,1,0,,38.990365,-76.939891,-6.948000,,,
2026-09-11T19:02:30.500,6.750026,1.756741,8.579895,16.266124,0.000000,82.379469,-28.341560,1.546166,-0.407057,-0.856962,-0.948231,7.821529,-1.805078,-0.074277,0.013013,-0.855479,0.696272,0.346763,9.270128,0.912890,-1.565112,1,0,,38.990365,-76.939891,-6.948000,,,
2026-09-11T19:02:30.534,6.783436,1.766310,8.639361,16.354719,0.000000,82.446074,-28.364475,1.554252,-0.423570,-0.891726,-0.977443,7.839718,-1.855509,-0.101138,0.074128,-0.890242,0.434729,-2.442738,11.899585,0.929815,-1.613779,1,0,,38.990365,-76.939891,-6.948000,,,
2026-09-11T19:02:30.567,6.816847,1.776446,8.698601,16.448576,0.000000,82.601942,-28.418099,1.562381,-0.430991,-0.907349,-1.007497,7.856219,-1.906904,-0.134435,-0.076788,-0.905865,-2.609452,0.631058,13.082071,0.756025,-1.460936,1,0,,38.990365,-76.939891,-6.948000,,,
2026-09-11T19:02:30.602,6.850261,1.805932,8.758575,16.721597,0.000000,82.371229,-28.338726,1.589504,-0.376010,-0.791599,-1.035881,7.872202,-1.958866,-0.118686,-0.537960,-0.790115,1.308599,-5.982841,21.636216,0.843948,-1.748152,1,0,,38.990365,-76.939891,-6.948000,,,
2026-09-11T19:02:30.634,6.883680,1.670605,8.814529,15.468561,0.000000,82.753691,-28.470306,1.468569,-0.369327,-0.777530,-1.062101,7.886898,-2.009357,-0.138027,0.246327,-0.776046,-0.860632,-6.493375,0.061684,0.794849,-2.072884,1,0,,38.990365,-76.939891,-6.948000,,,
2026-09-11T19:02:30.667,6.917094,1.709674,8.871019,15.830311,0.000000,82.618422,-28.423769,1.503574,-0.417476,-0.878897,-1.089775,7.898898,-2.059287,0.007323,-0.207702,-0.877413,-4.004938,0.735597,7.906023,0.547033,-1.914357,1,0,,38.990365,-76.939891,-6.948000,,,
2026-09-11T19:02:30.701,6.950516,1.671424,8.926920,15.476148,0.000000,83.066115,-28.577792,1.467792,-0.382934,-0.806177,-1.117934,7.909316,-2.109646,0.059534,-0.040528,-0.804694,-0.682445,-2.216597,19.848856,0.519419,-1.957661,1,0,,38.990365,-76.939891,-6.948000,,,
2026-09-11T19:02:30.734,6.984021,1.613711,8.980649,14.941771,0.000000,83.373732,-28.683623,1.415682,-0.400989,-0.844188,-1.145582,7.917971,-2.158939,0.042439,0.069342,-0.842704,-0.716670,0.258013,7.990360,0.490309,-1.839195,1,0,,38.990365,-76.939891,-6.948000,,,
2026-09-11T19:02:30.767,7.017436,1.575359,9.033731,14.586657,0.000000,83.474669,-28.718349,1.381578,-0.386593,-0.813880,-1.173284,7.924605,-2.207033,0.008070,-0.009827,-0.812396,-4.104770,-1.727539,13.990559,0.244772,-1.855472,1,0,,38.990365,-76.939891,-6.948000,,,
2026-09-11T19:02:30.801,7.050848,1.537456,9.084262,14.235700,0.000000,83.632597,-28.772683,1.347636,-0.352417,-0.741930,-1.199275,7.930273,-2.253929,-0.049101,0.049902,-0.740446,-1.424710,-2.004283,9.646704,0.176556,-1.897545,1,0,,38.990365,-76.939891,-6.948000,,,
2026-09-11T19:02:30.835,7.084260,1.489586,9.134196,13.792464,0.000000,83.208937,-28.626928,1.307496,-0.348439,-0.733555,-1.223924,7.934912,-2.299564,-0.052341,0.076827,-0.732072,-1.257703,-1.656834,8.832261,0.124689,-1.919298,1,0,,38.990365,-76.939891,-6.948000,,,
2026-09-11T19:02:30.868,7.117671,1.432047,9.181535,13.259698,0.000000,81.422972,-28.012490,1.264276,-0.314274,-0.661630,-1.247232,7.938601,-2.343778,-0.100584,0.057975,-0.660147,-1.281631,-1.078732,9.344561,0.069067,-1.911327,1,0,,38.990365,-76.939891,-6.948000,,,
2026-09-11T19:02:30.900,7.151082,1.384174,9.226927,12.816423,0.000000,78.962721,-27.166074,1.231481,-0.285945,-0.601990,-1.268341,7.941906,-2.386533,-0.063617,0.027160,-0.600507,-0.510730,-1.474234,10.628938,0.061899,-1.935205,1,0,,38.990365,-76.939891,-6.948000,,,
2026-09-11T19:02:30.934,7.184495,1.326140,9.271669,12.279076,0.000000,76.553969,-26.337375,1.188483,-0.279570,-0.588569,-1.288231,7.944524,-2.427966,-0.158566,0.048174,-0.587085,-3.383098,-5.131035,14.140405,-0.126142,-2.198272,1,0,,38.990365,-76.939891,-6.948000,,,
2026-09-11T19:02:30.968,7.217905,1.316344,9.315055,12.188375,0.000000,74.796843,-25.732859,1.185800,-0.258471,-0.544149,-1.307153,7.946569,-2.468584,-0.155685,-0.041284,-0.542665,0.608012,-0.881324,7.369894,-0.060196,-2.186811,1,0,,38.990365,-76.939891,-6.948000,,,
2026-09-11T19:02:31.002,7.251314,1.316159,9.358913,12.186654,0.000000,73.414625,-25.257325,1.190335,-0.276030,-0.581116,-1.325951,7.947909,-2.509243,-0.111003,-0.001784,-0.579632,0.233300,-2.187962,9.302490,-0.029564,-2.257061,1,0,,38.990365,-76.939891,-6.948000,,,
2026-09-11T19:02:31.035,7.284725,1.316400,9.402997,12.188888,0.000000,73.437285,-25.265121,1.190476,-0.268695,-0.565674,-1.345108,7.948331,-2.550040,-0.145735,-0.003105,-0.564191,0.285962,-1.190625,10.347095,-0.002205,-2.263150,1,0,,38.990365,-76.939891,-6.948000,,,
2026-09-11T19:02:31.068,7.318136,1.316859,9.447193,12.193135,0.000000,73.711256,-25.359377,1.189965,-0.275636,-0.580285,-1.364252,7.947976,-2.590828,-0.104022,0.063528,-0.578802,0.355883,-2.620533,10.000430,0.027448,-2.360647,1,0,,38.990365,-76.939891,-6.948000,,,
2026-09-11T19:02:31.103,7.351549,1.278358,9.490459,11.836645,0.000000,74.751524,-25.717267,1.151732,-0.235316,-0.495403,-1.382223,7.947292,-2.630867,0.076005,0.193524,-0.493919,-4.897147,-7.987713,6.702453,-0.285695,-2.812477,1,0,,38.990365,-76.939891,-6.948000,,,
2026-09-11T19:02:31.135,7.384965,1.269156,9.532640,11.751441,0.000000,76.008772,-26.149807,1.139251,-0.317378,-0.668163,-1.401664,7.945014,-2.670162,-0.255493,0.129475,-0.666680,3.857544,3.218543,8.261220,-0.032814,-2.521110,1,0,,38.990365,-76.939891,-6.948000,,,
2026-09-11T19:02:31.169,7.418376,1.220831,9.573894,11.303991,0.000000,75.458769,-25.960586,1.097644,-0.307175,-0.646685,-1.423629,7.940604,-2.708705,-0.022935,0.392287,-0.645201,-6.268509,0.200938,18.957824,-0.438025,-2.431806,1,0,,38.990365,-76.939891,-6.948000,,,
2026-09-11T19:02:31.202,7.451799,1.182469,9.613130,10.948784,0.000000,75.900282,-26.112482,1.061776,-0.223258,-0.470017,-1.442291,7.936790,-2.745679,-0.081131,0.130393,-0.468533,2.333394,-2.818039,8.103627,-0.280322,-2.552682,1,1,7.443990,38.990376,-76.939902,-6.736000,-8.193947,-0.277617,5.580844
2026-09-11T19:02:31.235,7.485211,1.231535,9.654537,11.403101,0.000000,74.945158,-25.783885,1.108925,-0.269168,-0.566670,-1.459610,7.932950,-2.782659,-0.117924,0.047171,-0.565186,2.617493,2.643677,8.944057,-0.101086,-2.310118,1,0,,38.990376,-76.939902,-6.736000,,,
2026-09-11T19:02:31.268,7.518624,1.261213,9.696710,11.677901,0.000000,74.952711,-25.786483,1.135623,-0.274825,-0.578578,-1.478743,7.927709,-2.820884,-0.096185,-0.010111,-0.577095,1.592110,-3.183827,7.098936,0.014323,-2.445752,1,0,,38.990376,-76.939902,-6.736000,,,
2026-09-11T19:02:31.302,7.552037,1.261911,9.737768,11.684365,0.000000,74.077925,-25.485525,1.139120,-0.265274,-0.558472,-1.497739,7.921850,-2.859501,-0.015844,0.018227,-0.556989,-0.378635,-2.148343,10.093200,0.002659,-2.514187,1,0,,38.990376,-76.939902,-6.736000,,,
2026-09-11T19:02:31.336,7.585449,1.204052,9.778718,11.148632,0.000000,72.621550,-24.984478,1.091380,-0.240412,-0.506132,-1.515524,7.915817,-2.897230,0.008069,0.053185,-0.504648,-0.020594,-1.713418,6.496710,0.014255,-2.559124,1,0,,38.990376,-76.939902,-6.736000,,,
2026-09-11T19:02:31.369,7.618872,1.204879,9.819430,11.156284,0.000000,71.884092,-24.730766,1.094372,-0.251450,-0.529368,-1.532829,7.909308,-2.934099,0.030788,0.048135,-0.527884,-0.413841,0.815521,10.503805,-0.000203,-2.438002,1,0,,38.990376,-76.939902,-6.736000,,,
2026-09-11T19:02:31.402,7.652287,1.186078,9.858344,10.982206,0.000000,71.524977,-24.607217,1.078363,-0.234867,-0.494457,-1.549934,7.902256,-2.970623,0.032118,0.078060,-0.492974,-1.183957,-0.231045,13.052847,-0.065824,-2.389026,1,0,,38.990376,-76.939902,-6.736000,,,
2026-09-11T19:02:31.436,7.685701,1.118548,9.896086,10.356924,0.000000,71.151442,-24.478707,1.018007,-0.227549,-0.479051,-1.566199,7.894985,-3.005743,0.018980,0.013113,-0.477567,-1.200530,-0.245755,9.146270,-0.137031,-2.344495,1,0,,38.990376,-76.939902,-6.736000,,,
2026-09-11T19:02:31.470,7.719113,1.099712,9.932691,10.182517,0.000000,69.339384,-23.855293,1.005763,-0.213318,-0.449091,-1.581704,7.887516,-3.039529,0.010494,0.029670,-0.447607,-1.113545,0.183580,8.827162,-0.203512,-2.274993,1,0,,38.990376,-76.939902,-6.736000,,,
2026-09-11T19:02:31.504,7.752528,1.022014,9.967198,9.463093,0.000000,65.705656,-22.605157,0.943498,-0.191243,-0.402616,-1.595934,7.880178,-3.071971,0.090008,0.040271,-0.401132,-0.010101,-1.438341,10.273153,-0.196727,-2.315934,1,0,,38.990376,-76.939902,-6.736000,,,
2026-09-11T19:02:31.536,7.785939,1.002561,10.000630,9.282969,0.000000,58.808302,-20.232214,0.940701,-0.174219,-0.366777,-1.608787,7.873083,-3.103241,0.127112,0.057228,-0.365293,-0.185640,-0.586732,8.685456,-0.202357,-2.303533,1,0,,38.990376,-76.939902,-6.736000,,,
2026-09-11T19:02:31.569,7.819351,0.973409,10.033059,9.013044,0.000000,57.527022,-19.791407,0.915911,-0.156110,-0.328652,-1.620405,7.866214,-3.133987,0.159440,0.006642,-0.327168,-0.564667,0.575160,11.587146,-0.237967,-2.218888,1,0,,38.990376,-76.939902,-6.736000,,,
2026-09-11T19:02:31.603,7.852763,0.953849,10.064413,8.831933,0.000000,54.871077,-18.877664,0.902543,-0.140468,-0.295721,-1.630836,7.859603,-3.164050,0.197243,-0.012393,-0.294238,-0.012553,-0.216923,10.155963,-0.241612,-2.188678,1,0,,38.990376,-76.939902,-6.736000,,,
2026-09-11T19:02:31.637,7.886179,0.915318,10.096047,8.475166,0.000000,51.181044,-17.608157,0.872433,-0.129831,-0.273329,-1.640344,7.853179,-3.193353,0.190881,0.040839,-0.271846,0.059821,-0.120720,9.769385,-0.242558,-2.154411,1,0,,38.990376,-76.939902,-6.736000,,,
2026-09-11T19:02:31.670,7.919594,0.905959,10.125634,8.388508,0.000000,46.100554,-15.860282,0.871470,-0.115446,-0.243044,-1.648971,7.846942,-3.222108,0.191358,0.020192,-0.241561,0.971545,0.100518,9.191969,-0.189280,-2.107927,1,0,,38.990376,-76.939902,-6.736000,,,
2026-09-11T19:02:31.703,7.953016,0.906230,10.156354,8.391018,0.000000,43.020949,-14.800785,0.876161,-0.110305,-0.232221,-1.656913,7.840786,-3.250905,0.186129,0.012519,-0.230738,0.707158,-0.554076,8.710659,-0.158857,-2.104880,1,0,,38.990376,-76.939902,-6.736000,,,
2026-09-11T19:02:31.736,7.986425,0.935956,10.187741,8.666255,0.000000,40.005202,-13.763257,0.909082,-0.100509,-0.211598,-1.664327,7.834601,-3.280290,0.169545,-0.029398,-0.210114,0.826504,0.526127,8.987991,-0.125817,-2.032665,1,0,,38.990376,-76.939902,-6.736000,,,
2026-09-11T19:02:31.770,8.019837,0.955723,10.219149,8.849290,0.000000,36.638579,-12.605016,0.932688,-0.096056,-0.202224,-1.671240,7.828352,-3.310596,0.163663,0.018337,-0.200741,1.383130,-3.653271,8.956904,-0.061391,-2.232062,1,0,,38.990376,-76.939902,-6.736000,,,
2026-09-11T19:02:31.804,8.053247,0.975453,10.251520,9.031974,0.000000,34.610228,-11.907188,0.954465,-0.101263,-0.213184,-1.678180,7.821802,-3.341609,0.119762,-0.045437,-0.211701,1.007241,1.385876,9.813417,-0.023296,-2.102048,1,0,,38.990376,-76.939902,-6.736000,,,
2026-09-11T19:02:31.837,8.086662,0.995118,10.284734,9.214056,0.000000,34.505858,-11.871281,0.973835,-0.111523,-0.234785,-1.685664,7.814695,-3.373231,0.110673,-0.010129,-0.233301,1.101287,0.605168,10.189208,0.023418,-2.022385,1,0,,38.990376,-76.939902,-6.736000,,,
2026-09-11T19:02:31.870,8.120074,0.995276,10.317423,9.215523,0.000000,34.391188,-11.831831,0.974130,-0.102119,-0.214987,-1.693178,7.807300,-3.405123,0.072525,0.008076,-0.213504,1.007829,-1.177190,10.531852,0.061907,-2.060240,1,0,,38.990376,-76.939902,-6.736000,,,
2026-09-11T19:02:31.903,8.153620,1.015236,10.351439,9.400334,0.000000,35.574278,-12.238857,0.992162,-0.108850,-0.229159,-1.700628,7.799641,-3.437396,0.022168,-0.032281,-0.227675,0.421196,-0.169263,12.675488,0.059292,-2.031148,1,0,,38.990376,-76.939902,-6.736000,,,
2026-09-11T19:02:31.937,8.187031,0.996242,10.385031,9.224461,0.000000,36.797194,-12.659585,0.972023,-0.114766,-0.241613,-1.708492,7.791563,-3.469418,0.008205,-0.081362,-0.240129,0.701470,-1.586814,6.959682,0.077579,-2.093779,1,0,,38.990376,-76.939902,-6.736000,,,
2026-09-11T19:02:31.970,8.220444,1.025871,10.419292,9.498801,0.000000,37.849135,-13.021491,0.999491,-0.118995,-0.250517,-1.716714,7.783041,-3.501471,0.003769,0.119669,-0.249033,1.013125,-6.079829,10.867239,0.118542,-2.445640,1,0,,38.990376,-76.939902,-6.736000,,,
2026-09-11T19:02:32.003,8.253854,0.997507,10.452440,9.236177,0.000000,38.324980,-13.185200,0.971211,-0.110302,-0.232215,-1.724778,7.774337,-3.533451,0.014898,-0.065016,-0.230731,-1.368616,1.529151,3.504505,0.007172,-2.302537,1,0,,38.990376,-76.939902,-6.736000,,,
2026-09-11T19:02:32.038,8.287266,1.027290,10.487039,9.511947,0.000000,37.987837,-13.069210,1.000681,-0.111919,-0.235618,-1.732593,7.765489,-3.565399,-0.040291,-0.074443,-0.234135,-0.053054,0.433846,11.061117,-0.016295,-2.231278,1,0,,38.990376,-76.939902,-6.736000,,,
2026-09-11T19:02:32.071,8.320677,0.989159,10.519428,9.158878,0.000000,37.950758,-13.056453,0.963587,-0.106019,-0.223197,-1.740258,7.756491,-3.597164,0.007062,0.019037,-0.221714,-0.276449,3.189711,9.690343,-0.053398,-1.983748,1,0,,38.990376,-76.939902,-6.736000,,,
2026-09-11T19:02:32.106,8.354087,0.941002,10.551115,8.712984,0.000000,37.806563,-13.006845,0.916859,-0.103036,-0.216917,-1.747610,7.747642,-3.627507,-0.075812,0.001204,-0.215433,-0.804930,-2.617885,9.501663,-0.125251,-2.115976,1,0,,38.990376,-76.939902,-6.736000,,,
2026-09-11T19:02:32.137,8.387504,0.970699,10.583878,8.987950,0.000000,37.509932,-12.904793,0.946181,-0.103012,-0.216868,-1.754858,7.738667,-3.657511,0.016206,0.059399,-0.215384,0.074825,0.661360,11.676778,-0.140003,-2.034031,1,0,,38.990376,-76.939902,-6.736000,,,
2026-09-11T19:02:32.171,8.420918,0.951833,10.615116,8.813265,0.000000,37.748884,-12.987002,0.927486,-0.117844,-0.248092,-1.762626,7.729195,-3.687573,-0.002637,-0.016950,-0.246608,0.563098,-0.715493,6.423846,-0.123766,-2.040530,1,1,8.429248,38.990386,-76.939902,-6.561000,-8.187609,0.817468,4.694824
2026-09-11T19:02:32.205,8.454339,0.932730,10.646307,8.636385,0.000000,38.882536,-13.377019,0.907423,-0.111422,-0.234573,-1.770692,7.719471,-3.716904,-0.002012,0.014646,-0.233090,0.478565,0.376673,8.701735,-0.115164,-1.977353,1,0,,38.990386,-76.939902,-6.561000,,,
2026-09-11T19:02:32.238,8.487751,0.952272,10.678510,8.817333,0.000000,41.254210,-14.192962,0.923204,-0.121981,-0.256802,-1.778901,7.709456,-3.746061,-0.012648,0.022129,-0.255319,0.655476,-0.346371,10.098398,-0.098382,-1.960132,1,0,,38.990386,-76.939902,-6.561000,,,
2026-09-11T19:02:32.271,8.521164,0.961914,10.710743,8.906608,0.000000,43.851103,-15.086389,0.928761,-0.127764,-0.268977,-1.787685,7.698852,-3.775424,-0.007278,0.012730,-0.267493,0.772372,-1.224753,10.485172,-0.075080,-1.999140,1,0,,38.990386,-76.939902,-6.561000,,,
2026-09-11T19:02:32.304,8.554574,0.981355,10.743091,9.086622,0.000000,45.510039,-15.657123,0.944941,-0.140338,-0.295449,-1.797114,7.687602,-3.804973,-0.054231,0.014914,-0.293965,1.127569,-1.390779,9.504017,-0.029524,-2.046561,1,0,,38.990386,-76.939902,-6.561000,,,
2026-09-11T19:02:32.338,8.587985,1.000723,10.776924,9.265956,0.000000,46.937575,-16.148248,0.961240,-0.150528,-0.316901,-1.807343,7.675568,-3.834852,-0.051276,-0.019439,-0.315417,0.716278,2.174330,10.349056,-0.016510,-1.861033,1,0,,38.990386,-76.939902,-6.561000,,,
2026-09-11T19:02:32.372,8.621400,1.020503,10.810819,9.449100,0.000000,47.377714,-16.299672,0.979486,-0.148394,-0.312408,-1.817857,7.662953,-3.865136,-0.094300,-0.004420,-0.310924,0.758446,0.821503,9.789096,-0.003149,-1.765041,1,0,,38.990386,-76.939902,-6.561000,,,
2026-09-11T19:02:32.404,8.654812,1.030680,10.845389,9.543336,0.000000,47.373594,-16.298255,0.989261,-0.147681,-0.310907,-1.828270,7.649954,-3.895750,-0.030672,-0.001809,-0.309424,0.266643,2.172173,9.544322,-0.020249,-1.582604,1,0,,38.990386,-76.939902,-6.561000,,,
2026-09-11T19:02:32.438,8.688224,1.030844,10.879989,9.544856,0.000000,47.366728,-16.295893,0.989431,-0.150559,-0.316967,-1.838760,7.636557,-3.926377,-0.066338,-0.023507,-0.315483,1.098541,-0.456500,11.510850,0.013772,-1.571933,1,0,,38.990386,-76.939902,-6.561000,,,
2026-09-11T19:02:32.471,8.721639,1.070170,10.915931,9.908985,0.000000,47.267164,-16.261639,1.027356,-0.144837,-0.304921,-1.849150,7.622712,-3.957491,-0.082974,-0.054596,-0.303437,0.498668,-0.021378,8.767341,0.009149,-1.533241,1,0,,38.990386,-76.939902,-6.561000,,,
2026-09-11T19:02:32.505,8.755053,1.080154,10.951318,10.001427,0.000000,46.831145,-16.111632,1.037729,-0.145883,-0.307123,-1.859375,7.608399,-3.989256,-0.068220,-0.006961,-0.305639,0.506415,1.789027,10.484094,0.006739,-1.377459,1,0,,38.990386,-76.939902,-6.561000,,,
2026-09-11T19:02:32.539,8.788464,1.080377,10.987538,10.003495,0.000000,44.600233,-15.344117,1.041866,-0.127878,-0.269217,-1.869003,7.593973,-4.021191,-0.058450,0.003681,-0.267733,0.363533,-1.171993,9.800080,-0.004430,-1.417507,1,0,,38.990386,-76.939902,-6.561000,,,
2026-09-11T19:02:32.572,8.821874,1.070928,11.022816,9.916001,0.000000,41.742415,-14.360922,1.037464,-0.115373,-0.242891,-1.877558,7.579747,-4.053139,-0.049772,-0.004446,-0.241408,0.010591,0.895543,9.443412,-0.034071,-1.325166,1,0,,38.990386,-76.939902,-6.561000,,,
2026-09-11T19:02:32.607,8.855287,1.071088,11.058288,9.917484,0.000000,38.905882,-13.385051,1.041994,-0.110574,-0.232787,-1.885505,7.565530,-4.085062,-0.072486,0.000794,-0.231303,0.631352,-1.195136,9.514412,-0.023149,-1.369745,1,0,,38.990386,-76.939902,-6.561000,,,
2026-09-11T19:02:32.639,8.888706,1.081147,11.094808,10.010623,0.000000,36.888518,-12.691004,1.054734,-0.106738,-0.224712,-1.893149,7.551109,-4.117197,-0.074145,0.051710,-0.223228,0.807774,-1.183859,9.570604,-0.002547,-1.413468,1,0,,38.990386,-76.939902,-6.561000,,,
2026-09-11T19:02:32.672,8.922120,1.052616,11.129458,9.746445,0.000000,35.259794,-12.130663,1.029112,-0.098070,-0.206464,-1.900353,7.536721,-4.149084,-0.049001,0.025067,-0.204981,-0.254581,-0.030401,11.924494,-0.050527,-1.383641,1,0,,38.990386,-76.939902,-6.561000,,,
2026-09-11T19:02:32.706,8.955533,1.082715,11.165360,10.025143,0.000000,33.359846,-11.477011,1.061066,-0.105461,-0.222023,-1.907512,7.522087,-4.180971,-0.091540,-0.000005,-0.220540,1.165422,-0.673815,10.365041,-0.005633,-1.394287,1,0,,38.990386,-76.939902,-6.561000,,,
2026-09-11T19:02:32.739,8.988945,1.034527,11.200547,9.578958,0.000000,31.415953,-10.808241,1.016175,-0.093693,-0.197248,-1.914516,7.507373,-4.212575,-0.146591,-0.003395,-0.195764,-3.142345,4.419073,11.873304,-0.242730,-1.077540,1,0,,38.990386,-76.939902,-6.561000,,,
2026-09-11T19:02:32.772,9.022362,1.073852,11.235715,9.943070,0.000000,29.819502,-10.259003,1.056684,-0.068711,-0.144654,-1.920229,7.493054,-4.244229,-0.049260,-0.027175,-0.143171,0.583005,2.132750,6.120428,-0.239847,-0.915311,1,0,,38.990386,-76.939902,-6.561000,,,
2026-09-11T19:02:32.805,9.055776,1.045072,11.270581,9.676588,0.000000,27.589277,-9.491724,1.030764,-0.074831,-0.157540,-1.925277,7.478781,-4.276139,-0.065806,0.044593,-0.156056,-1.095893,-1.750487,11.509281,-0.349057,-1.005543,1,0,,38.990386,-76.939902,-6.561000,,,
2026-09-11T19:02:32.839,9.089187,1.036213,11.305290,9.594562,0.000000,26.210493,-9.017372,1.023406,-0.069618,-0.146564,-1.930358,7.464528,-4.307448,-0.048040,0.040313,-0.145080,0.493863,-0.285275,8.510996,-0.358075,-1.000774,1,0,,38.990386,-76.939902,-6.561000,,,
2026-09-11T19:02:32.873,9.122599,1.075143,11.341009,9.955030,0.000000,23.555922,-8.104102,1.064406,-0.061096,-0.128623,-1.934955,7.450136,-4.339295,-0.011519,-0.027137,-0.127139,0.692644,-1.565828,11.513203,-0.355631,-1.079759,1,0,,38.990386,-76.939902,-6.561000,,,
2026-09-11T19:02:32.906,9.156013,1.085218,11.377492,10.048315,0.000000,21.075758,-7.250834,1.076540,-0.064203,-0.135164,-1.939362,7.435368,-4.371940,-0.016116,-0.014070,-0.133681,0.430022,0.336662,9.643369,-0.372324,-1.034213,1,0,,38.990386,-76.939902,-6.561000,,,
2026-09-11T19:02:32.939,9.189441,1.075418,11.413348,9.957577,0.000000,19.582304,-6.737031,1.067993,-0.055046,-0.115886,-1.943558,7.420527,-4.404628,-0.048583,0.012763,-0.114402,0.863966,1.011556,9.843033,-0.361606,-0.946874,1,0,,38.990386,-76.939902,-6.561000,,,
2026-09-11T19:02:32.973,9.222854,1.114222,11.450441,10.316871,0.000000,17.737288,-6.102278,1.107909,-0.042312,-0.089078,-1.946982,7.405715,-4.437865,-0.031486,0.007543,-0.087595,1.376069,0.574081,9.403695,-0.320010,-0.890472,1,0,,38.990386,-76.939902,-6.561000,,,
2026-09-11T19:02:33.006,9.256262,1.162911,11.489418,10.767691,0.000000,15.073790,-5.185937,1.158150,-0.035689,-0.075134,-1.949725,7.390549,-4.472570,0.037738,0.000056,-0.073651,1.045879,-0.302731,11.626078,-0.302465,-0.892180,1,0,,38.990386,-76.939902,-6.561000,,,
2026-09-11T19:02:33.041,9.289673,1.182492,11.528510,10.949004,0.000000,9.974760,-3.431684,1.180372,-0.023037,-0.048499,-1.951791,7.375148,-4.508487,0.064600,0.038480,-0.047016,1.869736,-2.829022,8.581996,-0.233431,-1.059249,1,0,,38.990386,-76.939902,-6.561000,,,
2026-09-11T19:02:33.073,9.323091,1.211839,11.569215,11.220727,0.000000,7.232985,-2.488412,1.210696,-0.020110,-0.042337,-1.953308,7.359594,-4.545295,0.094762,-0.020011,-0.040854,0.376870,3.233056,8.508054,-0.264006,-0.832595,1,0,,38.990386,-76.939902,-6.561000,,,
2026-09-11T19:02:33.107,9.356504,1.241366,11.610502,11.494134,0.000000,4.589400,-1.578922,1.240895,-0.004819,-0.010146,-1.954185,7.343904,-4.583129,0.100983,-0.033165,-0.008662,0.697155,1.171404,11.249699,-0.267022,-0.744386,1,0,,38.990386,-76.939902,-6.561000,,,
2026-09-11T19:02:33.140,9.389913,1.251271,11.652229,11.585843,0.000000,1.609358,-0.553678,1.251213,0.004841,0.010191,-1.954184,7.328332,-4.621736,0.169306,-0.004215,0.011675,1.588775,-0.098557,11.230183,-0.205779,-0.740958,1,0,,38.990386,-76.939902,-6.561000,,,
2026-09-11T19:02:33.174,9.423345,1.260913,11.695234,11.675118,0.000000,-0.649019,0.223286,1.260903,0.010478,0.022060,-1.953645,7.312872,-4.660781,0.156468,0.029634,0.023543,-0.016377,1.751075,10.817716,-0.249539,-0.618807,1,1,9.424476,38.990395,-76.939899,-6.540000,-8.003520,1.815443,4.851418
2026-09-11T19:02:33.206,9.456765,1.270908,11.737119,11.767671,0.000000,-1.429735,0.491881,1.270862,0.019976,0.042055,-1.952574,7.297561,-4.700222,0.157726,-0.038756,0.043539,0.102676,0.440417,8.971026,-0.280601,-0.584526,1,0,,38.990395,-76.939899,-6.540000,,,
2026-09-11T19:02:33.240,9.490177,1.280989,11.779974,11.861010,0.000000,-1.863695,0.641179,1.280909,0.017520,0.036885,-1.951255,7.282286,-4.740026,0.153688,-0.026017,0.038368,0.814344,-1.322329,9.775073,-0.254438,-0.664272,1,0,,38.990395,-76.939899,-6.540000,,,
2026-09-11T19:02:33.274,9.523595,1.300953,11.823712,12.045858,0.000000,-1.662508,0.571964,1.300888,0.003905,0.008222,-1.950502,7.266614,-4.780220,0.075721,-0.018069,0.009705,0.489744,1.542684,10.167927,-0.243625,-0.555400,1,0,,38.990395,-76.939899,-6.540000,,,
2026-09-11T19:02:33.307,9.557009,1.320954,11.867566,12.231053,0.000000,-1.866442,0.642124,1.320871,0.004213,0.008869,-1.950216,7.250511,-4.820955,0.077309,-0.012553,0.010352,0.198977,1.462073,11.320012,-0.247732,-0.453031,1,0,,38.990395,-76.939899,-6.540000,,,
2026-09-11T19:02:33.340,9.590421,1.302230,11.910502,12.057688,0.000000,-1.199022,0.412508,1.302197,-0.005546,-0.011675,-1.950263,7.234259,-4.861649,0.017705,-0.051963,-0.010192,0.231339,2.337513,8.453529,-0.245834,-0.293436,1,0,,38.990395,-76.939899,-6.540000,,,
2026-09-11T19:02:33.374,9.624010,1.253967,11.952538,11.610806,0.000000,1.166472,-0.401309,1.253936,-0.015670,-0.032988,-1.951013,7.218012,-4.901387,-0.049607,0.022582,-0.031505,-0.248893,-0.057859,8.920031,-0.271962,-0.288845,1,0,,38.990395,-76.939899,-6.540000,,,
2026-09-11T19:02:33.408,9.657441,1.254600,11.995052,11.616667,0.000000,3.896574,-1.340565,1.254257,-0.014155,-0.029799,-1.952063,7.201969,-4.940125,-0.055355,0.003283,-0.028316,0.214177,-1.019303,10.027006,-0.267056,-0.346815,1,0,,38.990395,-76.939899,-6.540000,,,
2026-09-11T19:02:33.441,9.690855,1.264754,12.037509,11.710687,0.000000,4.794707,-1.649555,1.264230,-0.009750,-0.020526,-1.952903,7.185926,-4.979024,-0.095546,0.030373,-0.019043,-0.473269,-1.360084,9.727118,-0.308612,-0.426901,1,0,,38.990395,-76.939899,-6.540000,,,
2026-09-11T19:02:33.474,9.724267,1.216485,12.077433,11.263751,0.000000,4.706129,-1.619081,1.215999,-0.002019,-0.004251,-1.953317,7.170285,-5.017395,-0.114176,0.030550,-0.002767,-0.351274,-1.429515,9.217859,-0.342459,-0.511934,1,0,,38.990395,-76.939899,-6.540000,,,
2026-09-11T19:02:33.507,9.757679,1.187240,12.117150,10.992966,0.000000,4.794707,-1.649555,1.186748,-0.004794,-0.010093,-1.953557,7.155192,-5.054590,-0.112565,0.010606,-0.008609,0.565550,0.090908,8.571208,-0.317216,-0.497224,1,0,,38.990395,-76.939899,-6.540000,,,
2026-09-11T19:02:33.542,9.791092,1.196868,12.157128,11.082112,0.000000,4.670424,-1.606797,1.196397,-0.002325,-0.004894,-1.953807,7.140207,-5.091477,-0.123121,-0.021089,-0.003411,-0.783649,1.607212,8.601511,-0.379525,-0.384980,1,0,,38.990395,-76.939899,-6.540000,,,
2026-09-11T19:02:33.574,9.824505,1.177480,12.196931,10.902594,0.000000,4.508375,-1.551047,1.177049,0.001753,0.003690,-1.953827,7.125380,-5.128252,-0.118949,0.028921,0.005174,-0.154455,-0.024517,11.638042,-0.402924,-0.380199,1,0,,38.990395,-76.939899,-6.540000,,,
2026-09-11T19:02:33.607,9.857916,1.197206,12.236822,11.085242,0.000000,4.373106,-1.504509,1.196793,-0.000650,-0.001368,-1.953789,7.110577,-5.165041,-0.089729,-0.000870,0.000116,0.829054,-0.492588,6.984394,-0.370602,-0.405363,1,0,,38.990395,-76.939899,-6.540000,,,
2026-09-11T19:02:33.641,9.891329,1.168329,12.276290,10.817857,0.000000,4.376539,-1.505690,1.167925,-0.011945,-0.025148,-1.954232,7.095610,-5.201603,-0.091447,0.013640,-0.023665,0.337447,-0.923198,9.526866,-0.377380,-0.456314,1,0,,38.990395,-76.939899,-6.540000,,,
2026-09-11T19:02:33.675,9.924740,1.207473,12.316543,11.180302,0.000000,4.376539,-1.505690,1.207056,-0.001996,-0.004203,-1.954722,7.080542,-5.238307,-0.056678,0.020762,-0.002719,0.919177,-0.356178,9.550500,-0.349602,-0.471590,1,0,,38.990395,-76.939899,-6.540000,,,
2026-09-11T19:02:33.708,9.958148,1.217557,12.357048,11.273678,0.000000,3.453001,-1.187959,1.217296,0.008666,0.018244,-1.954487,7.065481,-5.275899,-0.030892,-0.003375,0.019727,0.608993,0.845137,8.176883,-0.348491,-0.410753,1,0,,38.990395,-76.939899,-6.540000,,,
2026-09-11T19:02:33.742,9.991559,1.237206,12.398031,11.455613,0.000000,1.987013,-0.683605,1.237118,0.006234,0.013125,-1.953963,7.050373,-5.314016,0.007754,-0.032162,0.014609,0.686269,0.256150,9.908737,-0.350559,-0.388301,1,0,,38.990395,-76.939899,-6.540000,,,
2026-09-11T19:02:33.774,10.024971,1.256845,12.440194,11.637457,0.000000,1.034636,-0.355953,1.256821,0.011366,0.023928,-1.953344,7.035082,-5.352774,0.006406,-0.024351,0.025412,0.510534,-0.879166,11.616958,-0.369013,-0.440437,1,0,,38.990395,-76.939899,-6.540000,,,
2026-09-11T19:02:33.808,10.058382,1.276548,12.483054,11.819888,0.000000,0.625395,-0.215159,1.276539,0.008386,0.017654,-1.952650,7.019604,-5.392164,0.008633,-0.027203,0.019138,1.739994,-0.711571,6.309403,-0.310833,-0.480664,1,0,,38.990395,-76.939899,-6.540000,,,
2026-09-11T19:02:33.842,10.091794,1.296790,12.526882,12.007317,0.000000,0.509352,-0.175236,1.296784,-0.006020,-0.012673,-1.952566,7.003622,-5.432074,-0.035444,-0.028466,-0.011189,1.249858,1.420591,9.544518,-0.287490,-0.379991,1,0,,38.990395,-76.939899,-6.540000,,,
2026-09-11T19:02:33.875,10.125207,1.336320,12.571591,12.373329,0.000000,0.421461,-0.144998,1.336315,0.011084,0.023335,-1.952388,6.987316,-5.472929,-0.023765,0.028290,0.024819,0.795712,-1.720577,7.457859,-0.298805,-0.486724,1,0,,38.990395,-76.939899,-6.540000,,,
2026-09-11T19:02:33.908,10.158619,1.356224,12.616714,12.557628,0.000000,0.419401,-0.144289,1.356220,0.001651,0.003476,-1.951940,6.970771,-5.514758,-0.020252,-0.025394,0.004959,1.375873,1.499241,10.733477,-0.275594,-0.382266,1,0,,38.990395,-76.939899,-6.540000,,,
2026-09-11T19:02:33.942,10.192031,1.395570,12.662739,12.921940,0.000000,0.408415,-0.140510,1.395565,0.007183,0.015123,-1.951630,6.953814,-5.557489,-0.026650,-0.023621,0.016606,0.402171,-0.057565,8.524627,-0.313763,-0.380737,1,0,,38.990395,-76.939899,-6.540000,,,
2026-09-11T19:02:33.976,10.225441,1.415371,12.709923,13.105289,0.000000,0.268339,-0.092319,1.415369,0.005110,0.010758,-1.951197,6.936561,-5.601161,0.019310,-0.021384,0.012241,1.849926,-0.142000,8.095292,-0.255925,-0.384308,1,0,,38.990395,-76.939899,-6.540000,,,
2026-09-11T19:02:34.009,10.258849,1.444615,12.757880,13.376061,0.000000,0.161223,-0.055466,1.444614,0.008590,0.018084,-1.950716,6.919046,-5.645609,0.007783,-0.046549,0.019568,1.543273,2.191198,10.632664,-0.217319,-0.237626,1,0,,38.990395,-76.939899,-6.540000,,,
2026-09-11T19:02:34.042,10.292261,1.473779,12.806903,13.646100,0.000000,0.406355,-0.139801,1.473774,0.012413,0.026133,-1.949977,6.901309,-5.691023,0.004963,0.108686,0.027617,0.809441,0.029420,4.540871,-0.224148,-0.233199,1,0,,38.990395,-76.939899,-6.540000,,,
2026-09-11T19:02:34.077,10.325673,1.483357,12.856136,13.734792,0.000000,0.664534,-0.228624,1.483346,0.018306,0.038538,-1.948897,6.883524,-5.737115,-0.011798,0.029266,0.040022,-2.972298,0.619878,-0.884070,-0.469987,-0.191831,1,0,,38.990395,-76.939899,-6.540000,,,
2026-09-11T19:02:34.110,10.359089,1.512599,12.907245,14.005546,0.000000,0.491499,-0.169094,1.512592,0.018694,0.039356,-1.947595,6.865651,-5.783876,0.014378,-0.097915,0.040840,3.297682,-3.704854,18.646070,-0.298552,-0.430872,1,0,,38.990395,-76.939899,-6.540000,,,
2026-09-11T19:02:34.143,10.392501,1.551830,12.958963,14.368798,0.000000,0.488066,-0.167913,1.551823,0.010839,0.022820,-1.946556,6.847298,-5.831670,0.040188,-0.019995,0.024303,1.366851,2.778420,12.535743,-0.245185,-0.246271,1,0,,38.990395,-76.939899,-6.540000,,,
2026-09-11T19:02:34.178,10.425923,1.571559,13.011374,14.551468,0.000000,0.333571,-0.114761,1.571555,0.005248,0.011048,-1.945990,6.828408,-5.880327,0.023491,0.049979,0.012532,1.576419,-0.157691,8.344969,-0.171294,-0.252486,1,1,10.435687,38.990406,-76.939900,-6.803000,-8.035066,3.112531,3.304073
2026-09-11T19:02:34.211,10.459341,1.571921,13.063787,14.554820,0.000000,0.333571,-0.114761,1.571917,0.011143,0.023459,-1.945414,6.809429,-5.929303,0.008637,-0.014384,0.024943,1.583088,-1.210827,8.892376,-0.089650,-0.328031,1,0,,38.990406,-76.939900,-6.803000,,,
2026-09-11T19:02:34.244,10.492756,1.572144,13.116111,14.556889,0.000000,0.289625,-0.099642,1.572142,0.016026,0.033740,-1.944458,6.790654,-5.978365,0.073686,-0.011392,0.035223,0.520635,0.156416,11.489177,-0.070782,-0.315326,1,0,,38.990406,-76.939900,-6.803000,,,
2026-09-11T19:02:34.276,10.526171,1.592060,13.169625,14.741300,0.000000,0.289625,-0.099642,1.592058,0.012768,0.026881,-1.943445,6.771829,-6.027768,0.047008,-0.073732,0.028364,0.360100,1.335960,9.601691,-0.056840,-0.225788,1,0,,38.990406,-76.939900,-6.803000,,,
2026-09-11T19:02:34.309,10.559588,1.573236,13.221736,14.567005,0.000000,0.365156,-0.125627,1.573233,0.002620,0.005515,-1.942904,6.752827,-6.077124,-0.015369,-0.085176,0.006999,0.639688,1.890526,10.186266,-0.020535,-0.099151,1,0,,38.990406,-76.939900,-6.803000,,,
2026-09-11T19:02:34.343,10.593005,1.544810,13.273854,14.303801,0.000000,0.420775,-0.144762,1.544806,0.007664,0.016136,-1.942542,6.734054,-6.125722,-0.119070,-0.017014,0.017619,-0.104539,-0.426785,10.191855,-0.028434,-0.124893,1,0,,38.990406,-76.939900,-6.803000,,,
2026-09-11T19:02:34.377,10.626423,1.496736,13.323872,13.858662,0.000000,0.532698,-0.183268,1.496728,0.014561,0.030655,-1.941760,6.715958,-6.173213,-0.137524,-0.008022,0.032138,-0.759623,0.527990,9.986602,-0.074273,-0.089933,1,0,,38.990406,-76.939900,-6.803000,,,
2026-09-11T19:02:34.410,10.659839,1.468031,13.372880,13.592876,0.000000,0.575957,-0.198150,1.468022,0.007928,0.016690,-1.940969,6.698369,-6.219522,-0.191867,-0.007460,0.018173,0.156612,-0.534168,9.721921,-0.059020,-0.122698,1,0,,38.990406,-76.939900,-6.803000,,,
2026-09-11T19:02:34.443,10.693254,1.439407,13.421588,13.327839,0.000000,0.619902,-0.213269,1.439397,0.013701,0.028844,-1.940209,6.681149,-6.264945,-0.225239,-0.001927,0.030328,-1.091186,0.019417,9.112437,-0.129055,-0.120384,1,0,,38.990406,-76.939900,-6.803000,,,
2026-09-11T19:02:34.476,10.726675,1.400963,13.468273,12.971879,0.000000,0.398802,-0.137203,1.400959,0.022006,0.046329,-1.938952,6.664596,-6.309432,-0.174853,0.021666,0.047812,-1.037446,-2.165995,9.599828,-0.199840,-0.261017,1,0,,38.990406,-76.939900,-6.803000,,,
2026-09-11T19:02:34.510,10.760097,1.381700,13.514643,12.793516,0.000000,-1.968752,0.677323,1.381603,0.025196,0.053044,-1.937292,6.648633,-6.353113,-0.157204,0.019785,0.054527,0.852786,-1.139827,8.818532,-0.151249,-0.334242,1,0,,38.990406,-76.939900,-6.803000,,,
2026-09-11T19:02:34.544,10.793517,1.371844,13.561110,12.702264,0.000000,-3.872133,1.332156,1.371474,0.040417,0.085089,-1.934984,6.633221,-6.396471,-0.185811,-0.038979,0.086573,-2.883253,5.387577,11.429258,-0.351285,0.012885,1,0,,38.990406,-76.939900,-6.803000,,,
2026-09-11T19:02:34.577,10.826937,1.352472,13.605742,12.522893,0.000000,-4.868456,1.674927,1.351895,0.037197,0.078309,-1.932253,6.618282,-6.439477,-0.048935,0.059977,0.079792,0.818953,-6.142395,9.719371,-0.318195,-0.389173,1,0,,38.990406,-76.939900,-6.803000,,,
2026-09-11T19:02:34.610,10.860363,1.343282,13.651206,12.437795,0.000000,-5.379320,1.850683,1.342581,0.028323,0.059627,-1.929948,6.603429,-6.482005,-0.169615,0.009969,0.061110,0.350588,2.540217,10.152237,-0.324537,-0.223262,1,0,,38.990406,-76.939900,-6.803000,,,
2026-09-11T19:02:34.644,10.893770,1.353287,13.696420,12.530438,0.000000,-5.417772,1.863912,1.352571,0.035804,0.075377,-1.927693,6.588657,-6.524544,-0.102409,-0.026023,0.076860,2.182372,1.333018,8.307311,-0.221068,-0.138782,1,0,,38.990406,-76.939900,-6.803000,,,
2026-09-11T19:02:34.677,10.927181,1.382703,13.742955,12.802801,0.000000,-5.986315,2.059512,1.381809,0.034790,0.073241,-1.925210,6.573858,-6.567775,-0.096593,0.057424,0.074725,1.728716,1.685567,9.342599,-0.155596,-0.032375,1,0,,38.990406,-76.939900,-6.803000,,,
2026-09-11T19:02:34.711,10.960600,1.441317,13.791612,13.345530,0.000000,-6.778704,2.332123,1.440123,0.052561,0.110655,-1.922137,6.558933,-6.612527,-0.066509,-0.095742,0.112139,2.034292,-2.045667,10.374259,-0.077259,-0.172300,1,0,,38.990406,-76.939900,-6.803000,,,
2026-09-11T19:02:34.744,10.994009,1.461132,13.840023,13.529004,0.000000,-7.330080,2.521816,1.459717,0.050995,0.107358,-1.918496,6.543971,-6.658631,-0.010963,-0.054370,0.108842,1.377246,-0.099930,7.040488,-0.047896,-0.184609,1,0,,38.990406,-76.939900,-6.803000,,,
2026-09-11T19:02:34.778,11.027420,1.520222,13.890642,14.076134,0.000000,-7.532640,2.591505,1.518668,0.044110,0.092864,-1.915151,6.528591,-6.705977,-0.028107,-0.032985,0.094347,1.105308,0.441299,10.069272,-0.038913,-0.160757,1,0,,38.990406,-76.939900,-6.803000,,,
2026-09-11T19:02:34.811,11.060843,1.559394,13.943046,14.438835,0.000000,-7.620531,2.621742,1.557762,0.045030,0.094801,-1.912015,6.512715,-6.754898,0.008737,0.002983,0.096284,1.426475,0.566236,8.772245,-0.009812,-0.129507,1,0,,38.990406,-76.939900,-6.803000,,,
2026-09-11T19:02:34.844,11.094257,1.608265,13.996454,14.891345,0.000000,-7.687822,2.644893,1.606552,0.047537,0.100078,-1.908759,6.496565,-6.805261,0.083312,-0.031727,0.101562,1.661639,0.178089,11.536936,0.034892,-0.124569,1,0,,38.990406,-76.939900,-6.803000,,,
2026-09-11T19:02:34.878,11.127668,1.618435,14.050692,14.985512,0.000000,-7.708422,2.651980,1.616702,0.046233,0.097332,-1.905461,6.480274,-6.856608,0.118170,0.012375,0.098816,1.754606,0.446791,11.031109,0.085834,-0.102083,1,0,,38.990406,-76.939900,-6.803000,,,
2026-09-11T19:02:34.911,11.161088,1.667617,14.107174,15.440896,0.000000,-7.708422,2.651980,1.665831,0.046441,0.097771,-1.902201,6.463808,-6.908951,0.113693,-0.026556,0.099254,0.356472,1.484335,10.265013,0.050904,-0.013066,1,0,,38.990406,-76.939900,-6.803000,,,
2026-09-11T19:02:34.944,11.194505,1.677615,14.163279,15.533469,0.000000,-7.796312,2.682217,1.675777,0.048613,0.102342,-1.898857,6.447232,-6.962291,0.143981,-0.028832,0.103826,1.527092,0.848962,9.885103,0.102285,0.033292,1,0,,38.990406,-76.939900,-6.803000,,,
2026-09-11T19:02:34.978,11.227919,1.697060,14.220183,15.713520,0.000000,-8.517290,2.930260,1.694841,0.058493,0.123144,-1.895090,6.430884,-7.016208,0.175765,-0.015995,0.124627,0.480526,0.023536,12.044037,0.091560,0.023328,1,0,,38.990406,-76.939900,-6.803000,,,
2026-09-11T19:02:35.012,11.261343,1.707046,14.277482,15.805982,0.000000,-9.681841,3.330909,1.704162,0.063298,0.133259,-1.890805,6.414831,-7.070734,0.183819,-0.117671,0.134742,-0.228985,0.029616,10.514592,0.040623,0.012675,1,0,,38.990406,-76.939900,-6.803000,,,
2026-09-11T19:02:35.044,11.294764,1.707406,14.334015,15.809315,0.000000,-11.190401,3.849909,1.703553,0.066457,0.139910,-1.886240,6.399100,-7.125505,0.173554,-0.081510,0.141393,-0.184561,1.982120,8.708109,-0.000611,0.127750,1,0,,38.990406,-76.939900,-6.803000,,,
2026-09-11T19:02:35.077,11.328177,1.688327,14.390710,15.632655,0.000000,-12.690035,4.365838,1.683428,0.076374,0.160786,-1.881217,6.383950,-7.180076,0.108062,-0.133238,0.162270,-0.835625,0.180246,9.322398,-0.079746,0.122869,1,0,,38.990406,-76.939900,-6.803000,,,
2026-09-11T19:02:35.112,11.361599,1.669321,14.447189,15.456674,0.000000,-13.861452,4.768848,1.663542,0.082209,0.173071,-1.875638,6.369539,-7.234183,0.088670,-0.131268,0.174554,-0.987824,0.909665,13.157288,-0.163440,0.164123,1,0,,38.990406,-76.939900,-6.803000,,,
2026-09-11T19:02:35.145,11.395009,1.679653,14.502727,15.552342,0.000000,-14.783617,5.086107,1.673039,0.082959,0.174651,-1.869829,6.355599,-7.288220,0.024545,-0.170511,0.176135,0.179952,-0.824445,13.974575,-0.161802,0.092460,1,0,,38.990406,-76.939900,-6.803000,,,
2026-09-11T19:02:35.179,11.428429,1.631525,14.557360,15.106710,0.000000,-17.620149,6.061978,1.622402,0.075913,0.159817,-1.864240,6.342061,-7.341662,-0.070063,0.152716,0.161301,0.947420,2.354773,2.193355,-0.101706,0.229401,1,1,11.425008,38.990419,-76.939900,-6.847000,-8.080728,4.562143,4.909874
2026-09-11T19:02:35.212,11.461843,1.612600,14.611054,14.931481,0.000000,-17.721097,6.096708,1.603479,0.066068,0.139090,-1.859246,6.328872,-7.393972,0.000991,0.000290,0.140573,1.531603,-1.742544,12.836905,0.001739,0.102088,1,0,,38.990419,-76.939900,-6.847000,,,
2026-09-11T19:02:35.245,11.495255,1.613336,14.664813,14.938297,0.000000,-17.771909,6.114189,1.604159,0.092960,0.195704,-1.853653,6.316322,-7.446135,-0.074234,0.050213,0.197188,0.203684,-0.893974,7.095406,0.022972,0.025204,1,0,,38.990419,-76.939900,-6.847000,,,
2026-09-11T19:02:35.279,11.528673,1.604235,14.718535,14.854026,0.000000,-17.727964,6.099070,1.595154,0.090351,0.190213,-1.847205,6.304511,-7.498360,-0.101818,0.007846,0.191697,-0.194368,0.089633,5.855943,0.020580,0.013477,1,0,,38.990419,-76.939900,-6.847000,,,
2026-09-11T19:02:35.313,11.562085,1.614413,14.773096,14.948267,0.000000,-17.710111,6.092928,1.605293,0.097279,0.204799,-1.840606,6.293109,-7.550691,-0.055259,-0.059900,0.206282,-0.058448,-0.592322,7.085795,0.028745,-0.043872,1,0,,38.990419,-76.939900,-6.847000,,,
2026-09-11T19:02:35.345,11.595500,1.634478,14.827133,15.134052,0.000000,-18.304746,6.297504,1.624615,0.102400,0.215579,-1.833582,6.282127,-7.603630,0.000566,-0.004286,0.217063,-0.205645,-0.553389,11.466720,0.028283,-0.099461,1,0,,38.990419,-76.939900,-6.847000,,,
2026-09-11T19:02:35.379,11.628921,1.605513,14.880489,14.865862,0.000000,-18.518979,6.371208,1.595597,0.092229,0.194167,-1.826735,6.271469,-7.656476,0.001827,-0.030589,0.195651,-0.364219,-0.040600,14.095000,0.020966,-0.118648,1,0,,38.990419,-76.939900,-6.847000,,,
2026-09-11T19:02:35.413,11.662342,1.557003,14.932281,14.416692,0.000000,-18.445508,6.345932,1.547462,0.089290,0.187980,-1.820349,6.261269,-7.708086,-0.022638,0.021633,0.189463,0.228201,-0.815913,8.871292,0.052305,-0.186566,1,0,,38.990419,-76.939900,-6.847000,,,
2026-09-11T19:02:35.445,11.695754,1.527854,14.982975,14.146798,0.000000,-18.452375,6.348294,1.518486,0.089413,0.188238,-1.814064,6.251669,-7.758487,-0.013093,0.019062,0.189721,-1.736758,2.114412,8.230035,-0.046050,-0.063826,1,0,,38.990419,-76.939900,-6.847000,,,
2026-09-11T19:02:35.479,11.729170,1.489387,15.032512,13.790621,0.000000,-18.404309,6.331758,1.480302,0.083182,0.175120,-1.807993,6.242547,-7.807837,0.065188,-0.028090,0.176603,0.375595,0.530834,8.505602,-0.003551,-0.043164,1,0,,38.990419,-76.939900,-6.847000,,,
2026-09-11T19:02:35.514,11.762589,1.480222,15.082886,13.705763,0.000000,-18.372037,6.320655,1.471225,0.081996,0.172623,-1.802183,6.233782,-7.856450,0.095251,0.009847,0.174106,-0.554762,0.794535,9.341913,-0.019293,-0.005326,1,0,,38.990419,-76.939900,-6.847000,,,
2026-09-11T19:02:35.546,11.796002,1.461119,15.131039,13.528883,0.000000,-18.364484,6.318056,1.452245,0.084661,0.178233,-1.796321,6.225432,-7.904651,0.114089,0.020833,0.179716,-0.437965,0.989295,10.575295,-0.029848,0.044370,1,0,,38.990419,-76.939900,-6.847000,,,
2026-09-11T19:02:35.579,11.829443,1.432331,15.178652,13.262325,0.000000,-18.320539,6.302938,1.423673,0.069325,0.145947,-1.790901,6.217315,-7.952119,0.056458,-0.000886,0.147430,-0.435219,-0.602815,10.292079,-0.043325,-0.006217,1,0,,38.990419,-76.939900,-6.847000,,,
2026-09-11T19:02:35.613,11.862865,1.403640,15.224883,12.996664,0.000000,-16.417844,5.648341,1.396825,0.053032,0.111647,-1.786596,6.209119,-7.998580,-0.013853,-0.000941,0.113130,0.868281,0.568295,6.176621,0.024565,0.022918,1,0,,38.990419,-76.939900,-6.847000,,,
2026-09-11T19:02:35.647,11.896276,1.364793,15.270462,12.636969,0.000000,-13.219449,4.547975,1.360495,0.062344,0.131250,-1.782538,6.201230,-8.044001,-0.040382,0.031409,0.132734,-5.181540,1.560532,10.852039,-0.306072,0.114439,1,0,,38.990419,-76.939900,-6.847000,,,
2026-09-11T19:02:35.680,11.929700,1.355312,15.315600,12.549181,0.000000,-11.078488,3.811406,1.352314,0.009794,0.020618,-1.780000,6.192936,-8.088590,0.095948,0.075000,0.022101,1.231519,2.891393,13.405495,-0.225496,0.300857,1,0,,38.990419,-76.939900,-6.847000,,,
2026-09-11T19:02:35.713,11.963120,1.326330,15.359837,12.280830,0.000000,-8.879162,3.054758,1.324445,0.040097,0.084415,-1.778245,6.184501,-8.132524,0.126718,0.044735,0.085898,-0.417175,-4.366117,6.147691,-0.261235,0.010172,1,0,,38.990419,-76.939900,-6.847000,,,
2026-09-11T19:02:35.746,11.996533,1.288066,15.403377,11.926538,0.000000,-7.199627,2.476936,1.286863,0.031155,0.065588,-1.775739,6.176733,-8.175468,0.042640,0.069496,0.067072,-1.942697,-4.676203,11.207530,-0.403342,-0.295515,1,0,,38.990419,-76.939900,-6.847000,,,
2026-09-11T19:02:35.780,12.029941,1.279034,15.446248,11.842907,0.000000,-6.051555,2.081957,1.278190,0.016738,0.035239,-1.774055,6.168832,-8.217589,0.030389,0.014427,0.036722,2.324961,-3.531865,5.794455,-0.274584,-0.521231,1,0,,38.990419,-76.939900,-6.847000,,,
2026-09-11T19:02:35.814,12.063364,1.327926,15.490639,12.295614,0.000000,-5.000301,1.720287,1.327328,-0.003666,-0.007719,-1.773595,6.160266,-8.260280,0.071172,0.021587,-0.006235,0.114542,2.873348,12.013048,-0.298977,-0.326469,1,0,,38.990419,-76.939900,-6.847000,,,
2026-09-11T19:02:35.846,12.096778,1.357474,15.535734,12.569205,0.000000,-3.325573,1.144119,1.357203,0.009331,0.019645,-1.773396,6.151330,-8.304232,0.093338,0.032727,0.021128,1.002338,-0.982332,13.750002,-0.274819,-0.385746,1,0,,38.990419,-76.939900,-6.847000,,,
2026-09-11T19:02:35.880,12.130192,1.367195,15.581186,12.659214,0.000000,-1.893230,0.651341,1.367107,-0.006260,-0.013180,-1.773288,6.142224,-8.348827,0.068835,0.001251,-0.011696,1.989573,-1.907786,8.929838,-0.195507,-0.501348,1,0,,38.990419,-76.939900,-6.847000,,,
2026-09-11T19:02:35.914,12.163607,1.376752,15.627232,12.747702,0.000000,-0.695720,0.239353,1.376740,-0.012787,-0.026921,-1.773958,6.132678,-8.393666,0.086671,0.014490,-0.025437,0.213687,0.265074,9.916583,-0.239339,-0.473863,1,0,,38.990419,-76.939900,-6.847000,,,
2026-09-11T19:02:35.947,12.197022,1.405999,15.674573,13.018508,0.000000,1.191182,-0.409810,1.405963,-0.013660,-0.028758,-1.774888,6.122844,-8.439108,0.084871,0.003481,-0.027275,2.178057,-1.033621,7.355478,-0.161748,-0.530487,1,0,,38.990419,-76.939900,-6.847000,,,
2026-09-11T19:02:35.980,12.230432,1.445065,15.722999,13.380236,0.000000,5.499197,-1.891925,1.444278,-0.026763,-0.056343,-1.776309,6.112499,-8.485588,0.067968,-0.016317,-0.054860,0.659105,-0.690388,10.162632,-0.188891,-0.561624,1,0,,38.990419,-76.939900,-6.847000,,,
2026-09-11T19:02:36.015,12.263853,1.484490,15.773091,13.745278,0.000000,6.046453,-2.080202,1.483512,-0.034103,-0.071795,-1.778451,6.101467,-8.533264,0.064129,0.010703,-0.070311,2.275143,-2.375367,9.289840,-0.112945,-0.699840,1,0,,38.990419,-76.939900,-6.847000,,,
2026-09-11T19:02:36.047,12.297268,1.523640,15.824446,14.107780,0.000000,6.400762,-2.202097,1.522515,-0.042450,-0.089369,-1.781143,6.089795,-8.582128,0.020316,0.018060,-0.087886,0.969976,0.081591,9.622089,-0.114765,-0.675621,1,0,,38.990419,-76.939900,-6.847000,,,
2026-09-11T19:02:36.080,12.330682,1.572529,15.876808,14.560453,0.000000,8.266378,-2.843937,1.570592,-0.056857,-0.119699,-1.784636,6.077293,-8.632297,-0.004177,-0.044476,-0.118215,1.470213,2.804702,13.130614,-0.073453,-0.472133,1,0,,38.990419,-76.939900,-6.847000,,,
2026-09-11T19:02:36.114,12.364109,1.611616,15.930658,14.922366,0.000000,8.979803,-3.089382,1.609273,-0.052770,-0.111094,-1.788494,6.064124,-8.683819,-0.034578,0.009181,-0.109611,4.097513,-4.084568,7.495713,0.142620,-0.717312,1,0,,38.990419,-76.939900,-6.847000,,,
2026-09-11T19:02:36.148,12.397521,1.641037,15.985820,15.194788,0.000000,9.034734,-3.108280,1.638623,-0.058319,-0.122778,-1.792401,6.050489,-8.736370,0.071647,0.044669,-0.121294,2.198945,0.429433,11.838098,0.236436,-0.666186,1,0,,38.990419,-76.939900,-6.847000,,,
2026-09-11T19:02:36.181,12.430946,1.680530,16.042225,15.560460,0.000000,8.473058,-2.915043,1.678355,-0.052394,-0.110302,-1.796296,6.036394,-8.790015,0.083448,0.058829,-0.108819,1.536800,1.150614,16.752897,0.291359,-0.569972,1,1,12.425357,38.990431,-76.939903,-6.983000,-8.284550,5.910752,6.952204
2026-09-11T19:02:36.215,12.464363,1.700413,16.098669,15.744560,0.000000,7.945715,-2.733617,1.698478,-0.033091,-0.069665,-1.799303,6.022303,-8.844668,0.018810,0.011464,-0.068181,1.160225,-0.465816,7.901120,0.326198,-0.583757,1,0,,38.990431,-76.939903,-6.983000,,,
2026-09-11T19:02:36.248,12.497776,1.701076,16.154942,15.750700,0.000000,7.610632,-2.618337,1.699300,-0.024820,-0.052253,-1.801340,6.008446,-8.899724,-0.004528,-0.009356,-0.050770,-0.049131,1.484629,7.284282,0.287924,-0.473116,1,0,,38.990431,-76.939903,-6.983000,,,
2026-09-11T19:02:36.282,12.531189,1.682068,16.211189,15.574701,0.000000,7.440344,-2.559751,1.680389,-0.024005,-0.050538,-1.803057,5.994703,-8.954495,-0.019354,0.054034,-0.049054,-0.483566,-0.710100,11.501337,0.230092,-0.505937,1,0,,38.990431,-76.939903,-6.983000,,,
2026-09-11T19:02:36.315,12.564611,1.624169,16.265334,15.038603,0.000000,7.476049,-2.572035,1.622533,-0.023985,-0.050496,-1.804746,5.981174,-9.008013,-0.014275,0.044710,-0.049012,-0.466797,-2.593271,8.777834,0.183309,-0.660465,1,0,,38.990431,-76.939903,-6.983000,,,
2026-09-11T19:02:36.348,12.598025,1.594744,16.319270,14.766148,0.000000,7.275549,-2.503056,1.593222,-0.023136,-0.048707,-1.806403,5.967910,-9.060081,0.016795,0.097208,-0.047224,-2.051159,-1.212592,5.367180,0.043172,-0.724197,1,0,,38.990431,-76.939903,-6.983000,,,
2026-09-11T19:02:36.381,12.631441,1.585263,16.372877,14.678358,0.000000,7.248083,-2.493606,1.583762,-0.030525,-0.064263,-1.808290,5.954599,-9.111474,0.016055,0.095344,-0.062779,-0.510142,1.648302,6.741287,0.011788,-0.600556,1,0,,38.990431,-76.939903,-6.983000,,,
2026-09-11T19:02:36.415,12.664861,1.565978,16.425004,14.499792,0.000000,7.101141,-2.443053,1.564554,-0.030968,-0.065196,-1.810454,5.941169,-9.162349,-0.042178,-0.069651,-0.063712,0.329503,-3.516174,7.347338,0.042001,-0.812452,1,0,,38.990431,-76.939903,-6.983000,,,
2026-09-11T19:02:36.449,12.698308,1.546924,16.477390,14.323369,0.000000,7.084661,-2.437383,1.545524,-0.031372,-0.066047,-1.812649,5.927756,-9.212612,-0.004463,0.019371,-0.064564,-0.131703,1.913474,10.346604,0.046468,-0.670523,1,0,,38.990431,-76.939903,-6.983000,,,
2026-09-11T19:02:36.482,12.731745,1.557282,16.529342,14.419277,0.000000,7.035909,-2.420611,1.555892,-0.024612,-0.051815,-1.814619,5.914379,-9.262716,-0.093788,-0.036793,-0.050331,-0.138666,1.326153,11.005219,0.051744,-0.569628,1,0,,38.990431,-76.939903,-6.983000,,,
2026-09-11T19:02:36.515,12.765166,1.538197,16.580237,14.242562,0.000000,6.953512,-2.392263,1.536856,-0.013837,-0.029131,-1.815972,5.901245,-9.312706,-0.014352,-0.006162,-0.027648,-0.310086,-1.385385,12.001673,0.044655,-0.647686,1,0,,38.990431,-76.939903,-6.983000,,,
2026-09-11T19:02:36.549,12.798587,1.509308,16.630718,13.975071,0.000000,6.715933,-2.310527,1.508081,-0.027992,-0.058931,-1.817443,5.888181,-9.361887,0.054485,0.039233,-0.057447,-0.209568,1.280356,9.315827,0.038543,-0.549521,1,0,,38.990431,-76.939903,-6.983000,,,
2026-09-11T19:02:36.582,12.832018,1.480577,16.680221,13.709045,0.000000,6.573797,-2.261627,1.479424,-0.019100,-0.040210,-1.819100,5.875185,-9.410110,0.021353,0.046263,-0.038727,-0.130625,-2.298090,16.009160,0.031320,-0.685951,1,0,,38.990431,-76.939903,-6.983000,,,
2026-09-11T19:02:36.615,12.865445,1.461677,16.728796,13.534050,0.000000,6.500326,-2.236351,1.460564,-0.006706,-0.014117,-1.820008,5.862670,-9.457630,0.041871,0.036001,-0.012633,-0.391678,-2.804996,9.678673,0.004094,-0.856186,1,0,,38.990431,-76.939903,-6.983000,,,
2026-09-11T19:02:36.649,12.898870,1.433144,16.777182,13.269855,0.000000,6.552511,-2.254304,1.432035,-0.017743,-0.037354,-1.820869,5.850331,-9.504373,0.022195,-0.025898,-0.035871,1.210435,0.542014,3.447920,0.077750,-0.805771,1,0,,38.990431,-76.939903,-6.983000,,,
2026-09-11T19:02:36.683,12.932293,1.423705,16.825141,13.182452,0.000000,6.596456,-2.269423,1.422588,-0.017095,-0.035990,-1.822094,5.837933,-9.550443,0.030401,-0.010950,-0.034506,0.797085,-1.482177,7.089227,0.120057,-0.887071,1,0,,38.990431,-76.939903,-6.983000,,,
2026-09-11T19:02:36.716,12.965703,1.424065,16.872920,13.185786,0.000000,6.499639,-2.236114,1.422980,-0.020688,-0.043554,-1.823423,5.825471,-9.596318,-0.006224,0.025801,-0.042071,-0.249677,-3.428013,9.702602,0.092228,-1.092631,1,0,,38.990431,-76.939903,-6.983000,,,
2026-09-11T19:02:36.751,12.999457,1.424522,16.921905,13.190017,0.000000,6.509252,-2.239422,1.423434,-0.020986,-0.044180,-1.824904,5.812748,-9.642648,0.025881,-0.000986,-0.042697,0.743442,0.772078,14.664276,0.128752,-1.023420,1,0,,38.990431,-76.939903,-6.983000,,,
2026-09-11T19:02:36.784,13.032876,1.424787,16.969598,13.192471,0.000000,6.508566,-2.239185,1.423699,-0.018815,-0.039610,-1.826304,5.800113,-9.688518,0.030160,-0.109713,-0.038126,0.208097,2.501578,7.558279,0.126159,-0.844164,1,0,,38.990431,-76.939903,-6.983000,,,
2026-09-11T19:02:36.816,13.066297,1.434514,17.017705,13.282534,0.000000,6.266180,-2.155796,1.433498,-0.016578,-0.034900,-1.827549,5.787445,-9.734557,-0.001509,-0.012232,-0.033417,0.766586,1.185526,8.836674,0.156623,-0.752466,1,0,,38.990431,-76.939903,-6.983000,,,
2026-09-11T19:02:36.850,13.099723,1.434852,17.065739,13.285664,0.000000,6.200948,-2.133354,1.433857,-0.037750,-0.079473,-1.829460,5.774354,-9.780664,0.105686,0.156681,-0.077990,2.190511,1.438832,11.440634,0.278954,-0.641244,1,0,,38.990431,-76.939903,-6.983000,,,
2026-09-11T19:02:36.883,13.133135,1.445004,17.113777,13.379663,0.000000,6.165243,-2.121070,1.444014,-0.009486,-0.019971,-1.831122,5.761254,-9.826930,-0.056402,-0.075160,-0.018487,-0.261151,3.756045,5.112893,0.239926,-0.386903,1,0,,38.990431,-76.939903,-6.983000,,,
2026-09-11T19:02:36.917,13.166557,1.455122,17.161899,13.473349,0.000000,6.290212,-2.164064,1.454084,-0.011185,-0.023548,-1.831849,5.748438,-9.873634,-0.061511,-0.030005,-0.022064,-0.612720,1.218967,9.039770,0.176658,-0.299139,1,0,,38.990431,-76.939903,-6.983000,,,
2026-09-11T19:02:36.951,13.199973,1.465206,17.211100,13.566725,0.000000,6.276479,-2.159339,1.464166,-0.017773,-0.037418,-1.832868,5.735362,-9.920609,-0.002187,-0.058044,-0.035934,-1.660070,1.188076,11.031109,0.045015,-0.213031,1,0,,38.990431,-76.939903,-6.983000,,,
2026-09-11T19:02:36.983,13.233389,1.475093,17.260197,13.658271,0.000000,6.106878,-2.100990,1.474102,-0.034834,-0.073335,-1.834718,5.721750,-9.967784,-0.001732,-0.055696,-0.071851,0.096596,2.103330,11.366104,0.028549,-0.065217,1,0,,38.990431,-76.939903,-6.983000,,,
2026-09-11T19:02:37.016,13.266815,1.465780,17.308704,13.572035,0.000000,6.233907,-2.144693,1.464753,-0.027588,-0.058079,-1.836914,5.707878,-10.014914,-0.013921,-0.030790,-0.056596,0.942713,1.159833,13.477770,0.068964,0.018455,1,0,,38.990431,-76.939903,-6.983000,,,
2026-09-11T19:02:37.051,13.300229,1.485397,17.358872,13.753679,0.000000,6.259313,-2.153433,1.484348,-0.028375,-0.059738,-1.838883,5.693972,-10.062191,-0.010671,-0.048807,-0.058254,0.536718,4.603242,8.962788,0.085169,0.324161,1,0,,38.990431,-76.939903,-6.983000,,,
2026-09-11T19:02:37.084,13.333640,1.456856,17.407333,13.489407,0.000000,6.332784,-2.178710,1.455803,-0.015090,-0.031769,-1.840411,5.680226,-10.109350,-0.011007,-0.051847,-0.030285,-0.288610,1.684488,11.397093,0.048423,0.434907,1,0,,38.990431,-76.939903,-6.983000,,,
2026-09-11T19:02:37.117,13.367069,1.438053,17.455826,13.315309,0.000000,6.447454,-2.218161,1.436976,-0.026777,-0.056373,-1.841885,5.666638,-10.155758,0.042876,-0.006171,-0.054890,-0.550349,1.840022,10.799083,-0.003623,0.556803,1,0,,38.990431,-76.939903,-6.983000,,,
2026-09-11T19:02:37.150,13.400482,1.428966,17.504054,13.231165,0.000000,6.488653,-2.232335,1.427881,-0.040289,-0.084819,-1.844244,5.652688,-10.201556,0.013389,-0.048334,-0.083335,0.226239,-0.804832,12.490338,0.000203,0.508789,1,0,,38.990431,-76.939903,-6.983000,,,
2026-09-11T19:02:37.185,13.433902,1.429484,17.552427,13.235967,0.000000,6.529852,-2.246509,1.428386,-0.037422,-0.078784,-1.846977,5.638487,-10.247140,-0.005854,0.011196,-0.077300,0.258896,0.945263,12.696082,0.009867,0.573979,1,1,13.425281,38.990444,-76.939906,-7.391000,-8.558234,7.334232,18.301166
2026-09-11T19:02:37.218,13.467320,1.439941,17.600416,13.332787,0.000000,6.596456,-2.269423,1.438812,-0.027191,-0.057244,-1.849250,5.624332,-10.292923,0.044636,0.028087,-0.055760,0.781492,-4.911367,14.652116,0.055140,0.257570,1,0,,38.990444,-76.939906,-7.391000,,,
2026-09-11T19:02:37.251,13.500737,1.430401,17.648307,13.244449,0.000000,6.772238,-2.329898,1.429218,-0.035592,-0.074930,-1.851459,5.610101,-10.338693,-0.006512,-0.002799,-0.073447,-0.348332,3.698088,10.716315,0.026777,0.503286,1,0,,38.990444,-76.939906,-7.391000,,,
2026-09-11T19:02:37.284,13.534152,1.411015,17.695367,13.064952,0.000000,6.772238,-2.329898,1.409848,-0.032397,-0.068204,-1.853850,5.595817,-10.383939,-0.051451,-0.061966,-0.066721,0.497884,-0.520537,8.205126,0.052867,0.472640,1,0,,38.990444,-76.939906,-7.391000,,,
2026-09-11T19:02:37.319,13.567575,1.401233,17.742607,12.974377,0.000000,6.696707,-2.303913,1.400100,-0.033818,-0.071196,-1.856180,5.581588,-10.428704,-0.028907,0.003797,-0.069713,-0.517203,1.407156,10.585102,0.012328,0.567295,1,0,,38.990444,-76.939906,-7.391000,,,
2026-09-11T19:02:37.352,13.600991,1.411133,17.789687,13.066049,0.000000,6.749578,-2.322103,1.409975,-0.034927,-0.073531,-1.858598,5.567214,-10.473415,-0.056586,-0.036731,-0.072047,-0.414331,-4.006801,10.464578,-0.022974,0.310880,1,0,,38.990444,-76.939906,-7.391000,,,
2026-09-11T19:02:37.384,13.634412,1.392226,17.835625,12.890980,0.000000,6.749578,-2.322103,1.391083,-0.024927,-0.052478,-1.860703,5.552922,-10.517998,0.047637,0.003682,-0.050994,-1.143946,1.439714,12.228010,-0.106405,0.407699,1,0,,38.990444,-76.939906,-7.391000,,,
2026-09-11T19:02:37.417,13.667833,1.353784,17.880492,12.535037,0.000000,6.777044,-2.331552,1.352663,-0.032585,-0.068601,-1.862727,5.538851,-10.561645,0.019260,-0.010315,-0.067117,0.461795,-1.129628,8.664568,-0.086235,0.338478,1,0,,38.990444,-76.939906,-7.391000,,,
2026-09-11T19:02:37.451,13.701247,1.354027,17.926210,12.537291,0.000000,6.772238,-2.329898,1.352908,-0.029091,-0.061244,-1.864896,5.524808,-10.604622,0.027045,0.010228,-0.059760,-0.005688,0.504062,10.001704,-0.096545,0.375081,1,0,,38.990444,-76.939906,-7.391000,,,
2026-09-11T19:02:37.485,13.734661,1.344570,17.971354,12.449719,0.000000,6.705633,-2.306984,1.343480,-0.032579,-0.068588,-1.867065,5.510717,-10.647423,0.020693,-0.057231,-0.067105,0.894072,0.183384,4.746321,-0.049796,0.391135,1,0,,38.990444,-76.939906,-7.391000,,,
2026-09-11T19:02:37.519,13.768088,1.354585,18.017292,12.542455,0.000000,6.788717,-2.335568,1.353460,-0.033318,-0.070143,-1.869384,5.496454,-10.690196,0.028945,0.037240,-0.068659,-0.379615,0.859847,6.793067,-0.088599,0.450975,1,0,,38.990444,-76.939906,-7.391000,,,
2026-09-11T19:02:37.552,13.801500,1.364747,18.062781,12.636545,0.000000,6.948019,-2.390373,1.363559,-0.030896,-0.065044,-1.871642,5.482028,-10.733246,-0.005299,-0.101731,-0.063561,-0.016475,3.406732,7.942700,-0.103491,0.674474,1,0,,38.990444,-76.939906,-7.391000,,,
2026-09-11T19:02:37.586,13.834950,1.355368,18.109102,12.549707,0.000000,6.950079,-2.391082,1.354188,-0.033439,-0.070399,-1.873908,5.467482,-10.776324,0.002021,0.021739,-0.068915,0.088456,-1.996536,1.909943,-0.108930,0.546254,1,0,,38.990444,-76.939906,-7.391000,,,
2026-09-11T19:02:37.618,13.868380,1.346553,18.153945,12.468084,0.000000,7.082601,-2.436675,1.345336,-0.030092,-0.063351,-1.876143,5.452952,-10.819057,-0.061586,-0.129800,-0.061867,0.457382,1.870520,13.282912,-0.089137,0.669169,1,0,,38.990444,-76.939906,-7.391000,,,
2026-09-11T19:02:37.652,13.901791,1.347196,18.200082,12.474036,0.000000,6.684347,-2.299661,1.346111,-0.025578,-0.053848,-1.878101,5.438507,-10.861645,-0.096611,0.070422,-0.052364,-0.602619,0.297338,8.778521,-0.139402,0.688064,1,0,,38.990444,-76.939906,-7.391000,,,
2026-09-11T19:02:37.686,13.935216,1.357650,18.245587,12.570836,0.000000,6.904073,-2.375255,1.356484,-0.018863,-0.039711,-1.879665,5.424103,-10.904460,-0.142152,0.003071,-0.038228,1.871109,-2.250234,10.305122,-0.027707,0.540689,1,0,,38.990444,-76.939906,-7.391000,,,
2026-09-11T19:02:37.719,13.968636,1.358107,18.291143,12.575067,0.000000,6.720739,-2.312181,1.357002,-0.005299,-0.011156,-1.880515,5.409917,-10.947528,-0.040325,0.036332,-0.009672,0.060017,-0.359021,11.729048,-0.032618,0.514834,1,0,,38.990444,-76.939906,-7.391000,,,
2026-09-11T19:02:37.752,14.002047,1.377887,18.336753,12.758215,0.000000,4.916921,-1.691601,1.377287,-0.002208,-0.004647,-1.880779,5.395869,-10.990992,-0.085267,-0.032566,-0.003164,0.547996,-0.434631,11.665599,-0.005271,0.483814,1,0,,38.990444,-76.939906,-7.391000,,,
2026-09-11T19:02:37.786,14.035476,1.368252,18.381863,12.668997,0.000000,2.970281,-1.021886,1.368034,0.009472,0.019940,-1.880523,5.381993,-11.034731,-0.045433,-0.009229,0.021424,0.797183,0.834546,9.859998,0.040426,0.533085,1,0,,38.990444,-76.939906,-7.391000,,,
2026-09-11T19:02:37.819,14.068898,1.348727,18.426953,12.488217,0.000000,1.000295,-0.344138,1.348703,0.002324,0.004894,-1.880108,5.368352,-11.078033,-0.061091,0.008937,0.006377,0.588987,0.621447,7.776772,0.074651,0.569349,1,0,,38.990444,-76.939906,-7.391000,,,
2026-09-11T19:02:37.853,14.102309,1.329387,18.471666,12.309137,0.000000,-0.995783,0.342586,1.329363,0.009861,0.020759,-1.879679,5.354936,-11.120713,-0.040361,0.007262,0.022243,-0.981351,2.600135,9.783212,0.007497,0.731835,1,0,,38.990444,-76.939906,-7.391000,,,
2026-09-11T19:02:37.885,14.135738,1.320097,18.515476,12.223122,0.000000,-2.524943,0.868673,1.319945,0.028423,0.059837,-1.878332,5.342113,-11.163102,-0.034600,0.018302,0.061321,-0.474053,-0.846314,11.394053,-0.027335,0.666224,1,0,,38.990444,-76.939906,-7.391000,,,
2026-09-11T19:02:37.919,14.169159,1.291388,18.558126,11.957297,0.000000,-3.524699,1.212626,1.291099,0.029637,0.062393,-1.876290,5.329872,-11.204993,-0.003466,-0.000503,0.063876,-0.548878,0.300083,9.336421,-0.067872,0.675432,1,0,,38.990444,-76.939906,-7.391000,,,
2026-09-11T19:02:37.953,14.202574,1.262497,18.600901,11.689789,0.000000,-3.889994,1.338301,1.262153,0.025123,0.052890,-1.874364,5.317954,-11.245962,-0.039264,-0.036820,0.054373,0.997434,-1.424318,7.286145,-0.009137,0.573872,1,0,,38.990444,-76.939906,-7.391000,,,
2026-09-11T19:02:37.986,14.236002,1.253044,18.643068,11.602255,0.000000,-3.906473,1.343970,1.252699,0.027335,0.057547,-1.872518,5.306263,-11.286347,-0.019358,-0.003834,0.059030,-0.993414,0.947813,7.725483,-0.079307,0.626575,1,0,,38.990444,-76.939906,-7.391000,,,
2026-09-11T19:02:38.019,14.269450,1.253427,18.684654,11.605806,0.000000,-3.973078,1.366885,1.253070,0.029449,0.061997,-1.870519,5.294757,-11.326653,-0.012007,0.005592,0.063480,0.220159,-0.839842,9.207856,-0.071320,0.562598,1,0,,38.990444,-76.939906,-7.391000,,,
2026-09-11T19:02:38.052,14.302862,1.234358,18.725495,11.429236,0.000000,-3.973078,1.366885,1.234006,0.025430,0.053537,-1.868588,5.283403,-11.366632,0.024262,-0.003752,0.055021,-0.438946,0.702254,9.657883,-0.114188,0.599905,1,0,,38.990444,-76.939906,-7.391000,,,
2026-09-11T19:02:38.087,14.336292,1.215159,18.766189,11.251477,0.000000,-3.973078,1.366885,1.214814,0.011154,0.023482,-1.867301,5.272003,-11.405949,0.019752,0.037025,0.024965,0.577121,-0.183875,11.362671,-0.099548,0.581895,1,0,,38.990444,-76.939906,-7.391000,,,
2026-09-11T19:02:38.121,14.369716,1.206060,18.807235,11.167219,0.000000,-3.876261,1.333576,1.205733,0.014153,0.029796,-1.866411,5.260605,-11.444765,0.026126,-0.009844,0.031279,-0.093555,0.555449,10.737694,-0.133436,0.611451,1,0,,38.990444,-76.939906,-7.391000,,,
2026-09-11T19:02:38.153,14.403129,1.226114,18.848113,11.352911,0.000000,-3.288492,1.131362,1.225875,-0.003129,-0.006587,-1.866023,5.248954,-11.483683,0.039196,0.039701,-0.005104,1.530328,-1.356260,9.734375,-0.064879,0.519848,1,0,,38.990444,-76.939906,-7.391000,,,
2026-09-11T19:02:38.187,14.436556,1.236535,18.889200,11.449401,0.000000,-2.851786,0.981119,1.236354,0.021698,0.045679,-1.865370,5.237291,-11.523148,0.196810,0.188500,0.047163,0.799732,-2.086561,13.767850,-0.048716,0.377785,1,1,14.444038,38.990456,-76.939908,-7.626000,-8.718843,8.654301,6.466739
2026-09-11T19:02:38.221,14.469978,1.256558,18.930245,11.634796,0.000000,-2.207026,0.759298,1.256448,0.002605,0.005484,-1.864515,5.225602,-11.563134,0.102607,-0.052407,0.006968,2.883057,0.646847,9.817045,0.099598,0.417393,1,0,,38.990456,-76.939908,-7.626000,,,
2026-09-11T19:02:38.254,14.503404,1.247209,18.972816,11.548235,0.000000,-0.403895,0.138955,1.247206,-0.020156,-0.042435,-1.865132,5.213195,-11.603098,0.106085,0.069138,-0.040951,0.123956,2.560614,9.871766,0.066351,0.584291,1,0,,38.990456,-76.939908,-7.626000,,,
2026-09-11T19:02:38.287,14.536835,1.286563,19.015808,11.912618,0.000000,3.950811,-1.359224,1.286201,-0.018546,-0.039044,-1.866494,5.200263,-11.643427,0.044150,-0.031185,-0.037560,3.054379,1.450698,6.016282,0.220112,0.677347,1,0,,38.990456,-76.939908,-7.626000,,,
2026-09-11T19:02:38.320,14.570256,1.345065,19.061200,12.454303,0.000000,5.804754,-1.997048,1.344248,-0.028246,-0.059465,-1.868140,5.186670,-11.685236,-0.018983,0.057653,-0.057981,2.417143,0.232025,10.321597,0.328965,0.692413,1,0,,38.990456,-76.939908,-7.626000,,,
2026-09-11T19:02:38.353,14.603665,1.384049,19.107205,12.815265,0.000000,7.053762,-2.426753,1.382807,-0.039841,-0.083875,-1.870535,5.172184,-11.728440,-0.012201,-0.077590,-0.082391,1.756665,-2.553259,13.111884,0.395082,0.529477,1,0,,38.990456,-76.939908,-7.626000,,,
2026-09-11T19:02:38.388,14.637089,1.393767,19.154241,12.905253,0.000000,8.348089,-2.872049,1.392017,-0.045944,-0.096723,-1.873553,5.157055,-11.772299,-0.029072,-0.083483,-0.095240,0.133567,1.554746,6.481607,0.357941,0.635319,1,0,,38.990456,-76.939908,-7.626000,,,
2026-09-11T19:02:38.420,14.670511,1.393747,19.200906,12.905069,0.000000,9.111639,-3.134738,1.391662,-0.050331,-0.105960,-1.876940,5.141576,-11.816195,-0.014050,-0.007545,-0.104476,0.615661,-3.300526,9.972481,0.354964,0.426642,1,0,,38.990456,-76.939908,-7.626000,,,
2026-09-11T19:02:38.454,14.703931,1.403830,19.248040,12.998425,0.000000,9.101339,-3.131195,1.401734,-0.046891,-0.098718,-1.880360,5.125884,-11.860185,0.028660,-0.002097,-0.097235,-0.423941,2.465784,10.266190,0.288466,0.592797,1,0,,38.990456,-76.939908,-7.626000,,,
2026-09-11T19:02:38.488,14.737355,1.394643,19.294763,12.913364,0.000000,8.700338,-2.993236,1.392741,-0.043708,-0.092017,-1.883548,5.110144,-11.904181,0.071987,-0.061980,-0.090533,0.337447,-1.900431,8.370859,0.275718,0.473926,1,0,,38.990456,-76.939908,-7.626000,,,
2026-09-11T19:02:38.521,14.770777,1.414276,19.342230,13.095152,0.000000,8.287664,-2.851261,1.412526,-0.029758,-0.062648,-1.886132,5.094495,-11.948388,0.083886,-0.069607,-0.061165,-0.593008,2.313389,6.115721,0.209039,0.626480,1,0,,38.990456,-76.939908,-7.626000,,,
2026-09-11T19:02:38.553,14.804189,1.424276,19.389272,13.187742,0.000000,8.023992,-2.760548,1.422623,-0.033394,-0.070304,-1.888353,5.078753,-11.993071,0.011224,-0.091396,-0.068820,-0.107383,-0.454636,11.536347,0.185112,0.598985,1,0,,38.990456,-76.939908,-7.626000,,,
2026-09-11T19:02:38.587,14.837609,1.405383,19.436495,13.012802,0.000000,7.980047,-2.745429,1.403770,-0.029967,-0.063087,-1.890582,5.062951,-12.037591,0.006278,-0.033044,-0.061604,-0.154553,0.201625,11.706394,0.168356,0.613510,1,0,,38.990456,-76.939908,-7.626000,,,
2026-09-11T19:02:38.621,14.871032,1.376553,19.482966,12.745860,0.000000,8.118063,-2.792911,1.374918,-0.039766,-0.083718,-1.893036,5.047194,-12.081288,-0.072185,0.013060,-0.082235,-1.261331,0.221042,9.945120,0.085736,0.630849,1,0,,38.990456,-76.939908,-7.626000,,,
2026-09-11T19:02:38.655,14.904445,1.377021,19.528796,12.750198,0.000000,8.310323,-2.859056,1.375307,-0.032273,-0.067943,-1.895569,5.031446,-12.124468,-0.094249,0.002926,-0.066459,0.017946,-1.681644,8.784405,0.089331,0.523505,1,0,,38.990456,-76.939908,-7.626000,,,
2026-09-11T19:02:38.687,14.937869,1.368017,19.574670,12.666821,0.000000,8.243719,-2.836142,1.366341,-0.039370,-0.082885,-1.898090,5.015637,-12.167489,-0.057871,-0.028501,-0.081401,0.411487,0.384519,9.119792,0.121486,0.552300,1,0,,38.990456,-76.939908,-7.626000,,,
2026-09-11T19:02:38.721,14.971288,1.349214,19.619970,12.492722,0.000000,8.025366,-2.761020,1.347648,-0.016375,-0.034475,-1.900051,5.000135,-12.210117,-0.078418,0.003285,-0.032991,-0.891621,1.538663,8.456274,0.068960,0.651126,1,0,,38.990456,-76.939908,-7.626000,,,
2026-09-11T19:02:38.754,15.004701,1.320685,19.663181,12.228565,0.000000,6.497579,-2.235406,1.319680,-0.009986,-0.021022,-1.900978,4.985290,-12.252136,-0.056213,0.049706,-0.019539,-0.406290,-0.771391,9.584333,0.049099,0.598190,1,0,,38.990456,-76.939908,-7.626000,,,
2026-09-11T19:02:38.788,15.038123,1.282358,19.705926,11.873686,0.000000,4.960867,-1.706720,1.281789,-0.006499,-0.013683,-1.901558,4.970923,-12.293168,-0.032211,0.042755,-0.012199,-1.212004,2.036155,13.719504,-0.020186,0.726840,1,0,,38.990456,-76.939908,-7.626000,,,
2026-09-11T19:02:38.824,15.071543,1.253531,19.747511,11.606765,0.000000,3.840948,-1.321427,1.253197,0.000721,0.001519,-1.901761,4.957071,-12.333199,-0.046264,0.030097,0.003002,0.428943,1.453247,12.079439,0.015081,0.815082,1,0,,38.990456,-76.939908,-7.626000,,,
