timestamp,time_s,speed_mps,distance_m,wheel_omega_rad_s,motor_current_A,steer_motor_deg,steer_column_deg,vx_mps,vy_mps,yaw_rate_rad_s,heading_rad,x_m,y_m,gyro_x_rad_s,gyro_y_rad_s,gyro_z_rad_s,accel_x_mps2,accel_y_mps2,accel_z_mps2,grade_deg,bank_deg,moving,gps_new_fix,gps_time_s,gps_latitude_deg,gps_longitude_deg,gps_altitude_m,gps_east_m,gps_north_m,gps_sigma_m
2026-09-11T19:02:11.535,0.000011,-0.000000,-0.000000,-0.000000,0.000000,10.438670,-3.591286,-0.000000,-0.000526,-0.001108,0.000000,0.000000,0.000000,-0.002716,0.003044,0.000375,0.408741,0.210941,9.684067,-2.720151,0.174091,0,1,-0.683237,38.990286,-76.940886,-7.667000,0.000000,0.000000,2.957542
2026-09-11T19:02:11.569,0.033439,-0.000000,-0.000000,-0.000000,0.000000,10.102900,-3.475768,-0.000000,0.000234,0.000492,-0.000010,0.000000,-0.000005,-0.005197,-0.001502,0.001976,0.416685,0.201821,9.680929,-2.719636,0.173501,0,0,,38.990286,-76.940886,-7.667000,,,
2026-09-11T19:02:11.602,0.066855,-0.000000,-0.000000,-0.000000,0.000000,9.580363,-3.295997,-0.000000,0.000768,0.001618,0.000025,-0.000000,0.000012,-0.005779,-0.000787,0.003101,0.404426,0.222905,9.697600,-2.719921,0.174282,0,0,,38.990286,-76.940886,-7.667000,,,
2026-09-11T19:02:11.635,0.100273,-0.000000,-0.000000,-0.000000,0.000000,8.326548,-2.864638,-0.000000,0.000554,0.001167,0.000071,-0.000000,0.000034,-0.001264,0.001467,0.002650,0.401386,0.215452,9.681125,-2.720400,0.174572,0,0,,38.990286,-76.940886,-7.667000,,,
2026-09-11T19:02:11.669,0.133695,-0.000000,-0.000000,-0.000000,0.000000,4.694880,-1.615211,-0.000000,0.002063,0.004342,0.000164,-0.000000,0.000078,-0.003411,-0.001161,0.005826,0.409232,0.192210,9.679556,-2.720366,0.173354,0,0,,38.990286,-76.940886,-7.667000,,,
2026-09-11T19:02:11.703,0.167111,-0.000000,-0.000000,-0.000000,0.000000,3.474025,-1.195192,-0.000000,0.002693,0.005670,0.000331,-0.000000,0.000157,0.000495,-0.000048,0.007154,0.425118,0.262524,9.661414,-2.719303,0.176700,0,0,,38.990286,-76.940886,-7.667000,,,
2026-09-11T19:02:11.737,0.200523,-0.000000,-0.000000,-0.000000,0.000000,3.210353,-1.104479,-0.000000,0.002282,0.004805,0.000506,-0.000000,0.000240,-0.003723,-0.001829,0.006288,0.419823,0.155435,9.640427,-2.718595,0.173080,0,0,,38.990286,-76.940886,-7.667000,,,
2026-09-11T19:02:11.769,0.233966,-0.000000,-0.000000,-0.000000,0.000000,2.873210,-0.988490,-0.000000,0.000858,0.001807,0.000616,-0.000000,0.000293,-0.009943,-0.000123,0.003291,0.439436,0.185150,9.692697,-2.716623,0.171421,0,0,,38.990286,-76.940886,-7.667000,,,
2026-09-11T19:02:11.803,0.267394,-0.000000,-0.000000,-0.000000,0.000000,2.775706,-0.954945,-0.000000,-0.000437,-0.000921,0.000631,-0.000000,0.000300,-0.011744,0.002179,0.000563,0.445124,0.158181,9.694952,-2.714305,0.168035,0,0,,38.990286,-76.940886,-7.667000,,,
2026-09-11T19:02:11.837,0.300807,-0.000000,-0.000000,-0.000000,0.000000,2.770900,-0.953291,-0.000000,0.000743,0.001565,0.000642,-0.000000,0.000305,-0.011706,-0.001936,0.003048,0.416783,0.203292,9.691422,-2.713850,0.167607,0,0,,38.990286,-76.940886,-7.667000,,,
2026-09-11T19:02:11.870,0.334235,-0.000000,-0.000000,-0.000000,0.000000,2.770900,-0.953291,-0.000000,-0.000242,-0.000509,0.000660,-0.000000,0.000313,-0.013182,0.001692,0.000975,0.424040,0.182992,9.696620,-2.712928,0.165870,0,1,0.322523,38.990286,-76.940886,-7.716000,-0.002593,0.004633,2.957542
2026-09-11T19:02:11.903,0.367649,-0.000000,-0.000000,-0.000000,0.000000,2.770900,-0.953291,-0.000000,-0.001290,-0.002716,0.000606,-0.000000,0.000288,-0.010131,0.002343,-0.001232,0.417273,0.173382,9.695149,-2.712456,0.163531,0,0,,38.990286,-76.940886,-7.716000,,,
2026-09-11T19:02:11.937,0.401065,-0.000000,-0.000000,-0.000000,0.000000,2.770900,-0.953291,-0.000000,-0.001375,-0.002895,0.000512,-0.000000,0.000243,-0.002178,-0.000250,-0.001412,0.400994,0.153964,9.699856,-2.713043,0.159961,0,0,,38.990286,-76.940886,-7.716000,,,
2026-09-11T19:02:11.970,0.434485,-0.000000,-0.000000,-0.000000,0.000000,2.770900,-0.953291,-0.000000,-0.001632,-0.003436,0.000406,-0.000000,0.000193,-0.000821,0.001097,-0.001953,0.405701,0.189955,9.698287,-2.713319,0.158759,0,0,,38.990286,-76.940886,-7.716000,,,
2026-09-11T19:02:12.003,0.467899,-0.000000,-0.000000,-0.000000,0.000000,2.770900,-0.953291,-0.000000,-0.000840,-0.001769,0.000319,-0.000000,0.000152,0.006870,0.001008,-0.000285,0.411879,0.156220,9.673476,-2.713191,0.155388,0,0,,38.990286,-76.940886,-7.716000,,,
2026-09-11T19:02:12.037,0.501313,-0.000000,-0.000000,-0.000000,0.000000,2.770900,-0.953291,-0.000000,-0.001603,-0.003375,0.000233,-0.000000,0.000111,0.004086,-0.000418,-0.001892,0.405505,0.174166,9.692991,-2.713478,0.153216,0,0,,38.990286,-76.940886,-7.716000,,,
2026-09-11T19:02:12.072,0.534832,-0.000000,-0.000000,-0.000000,0.000000,2.770900,-0.953291,-0.000000,-0.001427,-0.003005,0.000126,-0.000000,0.000060,0.006237,0.002129,-0.001522,0.409232,0.174166,9.696031,-2.713520,0.151061,0,0,,38.990286,-76.940886,-7.716000,,,
2026-09-11T19:02:12.104,0.568256,-0.000000,-0.000000,-0.000000,0.000000,2.770900,-0.953291,-0.000000,-0.001893,-0.003986,0.000010,-0.000000,0.000005,0.005649,0.000270,-0.002502,0.412958,0.192112,9.681027,-2.713320,0.150097,0,0,,38.990286,-76.940886,-7.716000,,,
2026-09-11T19:02:12.137,0.601670,-0.000000,-0.000000,-0.000000,0.000000,2.770900,-0.953291,-0.000000,0.000373,0.000786,-0.000044,-0.000000,-0.000021,0.002134,-0.001392,0.002270,0.413743,0.195839,9.680929,-2.713072,0.149386,0,0,,38.990286,-76.940886,-7.716000,,,
2026-09-11T19:02:12.171,0.635097,-0.000000,-0.000000,-0.000000,0.000000,2.733134,-0.940298,-0.000000,-0.000195,-0.000411,-0.000038,-0.000000,-0.000018,0.008536,0.001821,0.001073,0.419038,0.220552,9.686224,-2.713110,0.150282,0,0,,38.990286,-76.940886,-7.716000,,,
2026-09-11T19:02:12.204,0.668512,-0.000000,-0.000000,-0.000000,0.000000,2.192744,-0.754384,-0.000000,0.000833,0.001754,-0.000015,-0.000000,-0.000007,0.013281,0.000626,0.003238,0.397267,0.242420,9.700640,-2.715184,0.152582,0,0,,38.990286,-76.940886,-7.716000,,,
2026-09-11T19:02:12.238,0.701938,-0.000000,-0.000000,-0.000000,0.000000,1.559657,-0.536579,-0.000000,0.005294,0.011145,0.000200,-0.000000,0.000095,0.017894,0.000125,0.012629,0.438750,0.288610,9.686028,-2.714544,0.157848,0,0,,38.990286,-76.940886,-7.716000,,,
2026-09-11T19:02:12.271,0.735360,-0.000000,-0.000000,-0.000000,0.000000,0.007838,-0.002697,-0.000000,0.005681,0.011960,0.000586,-0.000000,0.000279,0.020930,0.001359,0.013444,0.503473,0.218982,9.770856,-2.709715,0.158548,0,0,,38.990286,-76.940886,-7.716000,,,
2026-09-11T19:02:12.304,0.768787,-0.000000,-0.000000,-0.000000,0.000000,-2.015020,0.693241,-0.000000,0.004825,0.010158,0.000956,-0.000000,0.000454,0.018437,0.002455,0.011642,0.616446,0.058055,9.644644,-2.697616,0.148824,0,0,,38.990286,-76.940886,-7.716000,,,
2026-09-11T19:02:12.338,0.802209,-0.000000,-0.000000,-0.000000,0.000000,-2.704412,0.930417,-0.000000,0.000537,0.001130,0.001145,-0.000000,0.000544,0.001559,0.002503,0.002614,0.820915,0.357452,9.724667,-2.672402,0.158586,0,0,,38.990286,-76.940886,-7.716000,,,
2026-09-11T19:02:12.371,0.835632,-0.000000,-0.000000,-0.000000,0.000000,-3.994619,1.374295,-0.000000,0.002429,0.005113,0.001249,-0.000000,0.000593,0.022249,0.001343,0.006597,0.761683,0.338526,9.690736,-2.647646,0.167016,0,0,,38.990286,-76.940886,-7.716000,,,
2026-09-11T19:02:12.405,0.869048,-0.000000,-0.000000,-0.000000,0.000000,-5.385762,1.852900,-0.000000,0.001711,0.003602,0.001395,-0.000000,0.000663,0.026867,-0.000633,0.005085,0.511809,0.116797,9.537752,-2.632751,0.161002,0,0,,38.990286,-76.940886,-7.716000,,,
2026-09-11T19:02:12.438,0.902471,0.009719,0.000272,0.089988,0.000000,-10.414067,3.582821,0.009700,0.008805,0.018537,0.001765,0.000161,0.000839,-0.009138,-0.001375,0.020020,0.087083,0.609287,9.555796,-2.642572,0.186919,0,0,,38.990286,-76.940886,-7.716000,,,
2026-09-11T19:02:12.471,0.935897,0.009719,0.000595,0.089988,0.000000,-12.761022,4.390260,0.009690,0.015434,0.032492,0.002618,0.000484,0.001244,-0.073979,0.000562,0.033976,-0.033245,0.555841,9.716429,-2.664231,0.209081,0,0,,38.990286,-76.940886,-7.716000,,,
2026-09-11T19:02:12.504,0.969308,0.009719,0.000920,0.089988,0.000000,-19.454442,6.693042,0.009653,0.011347,0.023888,0.003559,0.000806,0.001693,-0.111874,0.003137,0.025372,0.049327,0.179167,9.718586,-2.707200,0.206623,0,0,,38.990286,-76.940886,-7.716000,,,
2026-09-11T19:02:12.539,1.002732,0.009719,0.001246,0.089988,0.000000,-25.183126,8.663919,0.009608,0.020799,0.043788,0.004690,0.001126,0.002231,-0.145699,0.004591,0.045272,0.148571,0.376968,9.681125,-2.752759,0.216981,0,0,,38.990286,-76.940886,-7.716000,,,
2026-09-11T19:02:12.571,1.036155,0.009719,0.001570,0.089988,0.000000,-29.193135,10.043510,0.009570,0.019306,0.040645,0.006101,0.001443,0.002903,-0.168926,0.013918,0.042128,0.289100,-0.081297,9.765854,-2.769379,0.197566,0,0,,38.990286,-76.940886,-7.716000,,,
2026-09-11T19:02:12.605,1.069569,0.009719,0.001896,0.089988,0.000000,-36.437245,12.535750,0.009487,0.019259,0.040545,0.007458,0.001757,0.003550,-0.171482,0.012490,0.042029,0.330680,0.158475,9.623952,-2.775870,0.193886,0,0,,38.990286,-76.940886,-7.716000,,,
2026-09-11T19:02:12.639,1.102990,-0.048594,0.002221,-0.449942,0.000000,-42.381536,14.580804,-0.047029,0.024037,0.050605,0.008981,0.001123,0.004267,-0.138200,0.016260,0.052088,0.506612,-0.173382,9.674751,-2.769302,0.168947,0,0,,38.990286,-76.940886,-7.716000,,,
2026-09-11T19:02:12.672,1.136417,-0.097188,-0.003093,-0.899885,0.000000,-50.799810,17.476999,-0.092701,0.020226,0.042581,0.010539,-0.001219,0.004984,-0.123814,0.009958,0.044065,0.616446,-0.604482,9.757617,-2.754678,0.116477,0,0,,38.990286,-76.940886,-7.716000,,,
2026-09-11T19:02:12.705,1.169841,-0.097188,-0.006337,-0.899885,0.000000,-50.350743,17.322503,-0.092780,0.014703,0.030954,0.011767,-0.004325,0.005533,-0.137294,0.013645,0.032438,0.718141,-0.073256,9.711231,-2.733004,0.098907,0,0,,38.990286,-76.940886,-7.716000,,,
2026-09-11T19:02:12.739,1.203262,-0.029834,-0.007354,-0.276245,0.000000,-51.341573,17.663385,-0.028428,0.023493,0.049460,0.013111,-0.006358,0.006147,-0.144533,0.023981,0.050943,0.525244,0.246049,9.966302,-2.724681,0.102103,0,0,,38.990286,-76.940886,-7.716000,,,
2026-09-11T19:02:12.773,1.236677,0.340157,0.003159,3.149598,0.000000,-51.545507,17.733546,0.323993,0.040230,0.084695,0.015353,-0.001436,0.007288,-0.137663,0.025653,0.086178,0.406191,0.708923,9.749477,-2.745926,0.133347,0,0,,38.990286,-76.940886,-7.716000,,,
2026-09-11T19:02:12.806,1.270092,0.124126,0.008054,1.149311,0.000000,-51.434957,17.695513,0.118253,0.078228,0.164691,0.019519,0.005916,0.009388,-0.078217,0.016540,0.166174,0.362258,1.010673,9.354269,-2.779349,0.184288,0,0,,38.990286,-76.940886,-7.716000,,,
2026-09-11T19:02:12.839,1.303514,0.025930,0.007994,0.240090,0.000000,-51.434957,17.695513,0.024703,0.133821,0.281729,0.026979,0.008218,0.012981,-0.004561,0.010791,0.283213,0.832487,-0.010297,9.951592,-2.768551,0.169405,0,0,,38.990286,-76.940886,-7.716000,,,
2026-09-11T19:02:12.872,1.336939,0.006291,0.007987,0.058246,0.000000,-51.338826,17.662440,0.005994,0.156068,0.328565,0.037179,0.008574,0.017838,0.021331,-0.029802,0.330048,0.966543,1.220340,9.301117,-2.759000,0.234666,0,1,1.322233,38.990285,-76.940886,-7.747000,-0.055457,-0.031691,2.958121
2026-09-11T19:02:12.906,1.370352,-0.000000,0.007869,-0.000000,0.000000,-51.003743,17.547159,-0.000000,0.216746,0.456308,0.050291,0.008395,0.024063,0.091195,-0.027777,0.457792,0.711178,0.928298,9.456062,-2.776437,0.280412,0,0,,38.990285,-76.940886,-7.747000,,,
2026-09-11T19:02:12.939,1.403773,-0.000000,0.007869,-0.000000,0.000000,-49.743062,17.113439,-0.000000,0.229497,0.483151,0.065990,0.007960,0.031507,0.089382,-0.045200,0.484634,0.839743,0.403544,10.459773,-2.785856,0.291700,0,0,,38.990285,-76.940886,-7.747000,,,
2026-09-11T19:02:12.973,1.437195,-0.000000,0.007869,-0.000000,0.000000,-47.707158,16.413013,-0.000000,0.258676,0.544581,0.083165,0.007348,0.039642,0.066772,-0.017673,0.546065,0.614387,-0.243401,9.116262,-2.807344,0.260990,0,0,,38.990285,-76.940886,-7.747000,,,
2026-09-11T19:02:13.007,1.470606,0.009820,0.008310,0.090922,0.000000,-42.906133,14.761284,0.009496,0.276963,0.583081,0.102003,0.006676,0.048567,0.088834,-0.050674,0.584564,1.075691,-1.862969,10.402110,-2.769925,0.125486,0,0,,38.990285,-76.940886,-7.747000,,,
2026-09-11T19:02:13.041,1.504028,0.347342,0.016909,3.216127,0.000000,-40.952626,14.089206,0.336893,0.244349,0.514418,0.120343,0.011461,0.057917,0.098228,-0.044010,0.515902,0.962523,-0.654496,9.823518,-2.730094,0.058797,0,0,,38.990285,-76.940886,-7.747000,,,
2026-09-11T19:02:13.074,1.537453,0.162575,0.023305,1.505327,0.000000,-41.310369,14.212283,0.157599,0.226376,0.476581,0.136905,0.018653,0.066755,0.160986,-0.019394,0.478065,0.635863,-1.164638,8.619653,-2.732970,-0.033819,0,0,,38.990285,-76.940886,-7.747000,,,
2026-09-11T19:02:13.107,1.570867,0.133402,0.027242,1.235201,0.000000,-41.344701,14.224094,0.129312,0.209037,0.440077,0.152220,0.022351,0.074640,0.160925,-0.018773,0.441560,0.563490,-0.872007,8.018506,-2.748322,-0.105265,0,0,,38.990285,-76.940886,-7.747000,,,
2026-09-11T19:02:13.140,1.604286,0.260851,0.036985,2.415284,0.000000,-41.569921,14.301578,0.252767,0.167431,0.352487,0.165463,0.027663,0.081876,-0.069393,0.015924,0.353970,1.442068,-2.319665,11.015614,-2.709389,-0.271690,0,0,,38.990285,-76.940886,-7.747000,,,
2026-09-11T19:02:13.173,1.637706,0.193498,0.042809,1.791644,0.000000,-42.052632,14.467649,0.187362,0.165465,0.348347,0.177174,0.033962,0.088604,0.039878,-0.025503,0.349830,0.403249,0.331563,7.738624,-2.740965,-0.263170,0,0,,38.990285,-76.940886,-7.747000,,,
2026-09-11T19:02:13.207,1.671117,0.222654,0.050298,2.061609,0.000000,-44.412633,15.279576,0.214783,0.092071,0.193834,0.186231,0.039798,0.094053,0.098596,-0.026524,0.195318,0.471700,0.583888,9.505978,-2.766001,-0.236894,0,0,,38.990285,-76.940886,-7.747000,,,
2026-09-11T19:02:13.241,1.704542,0.222654,0.057806,2.061609,0.000000,-46.323567,15.937007,0.214096,0.108025,0.227421,0.193272,0.046205,0.098689,-0.025818,0.025071,0.228904,-0.230554,1.360477,9.410461,-2.833880,-0.161095,0,0,,38.990285,-76.940886,-7.747000,,,
2026-09-11T19:02:13.274,1.737965,0.193723,0.064314,1.793735,0.000000,-48.784505,16.783660,0.185471,0.050313,0.105922,0.198842,0.052242,0.102584,0.010072,-0.036022,0.107406,0.396777,0.030106,10.489683,-2.840443,-0.170356,0,0,,38.990285,-76.940886,-7.747000,,,
2026-09-11T19:02:13.307,1.771385,0.213172,0.071265,1.973819,0.000000,-49.311162,16.964849,0.203896,0.036978,0.077849,0.201913,0.058328,0.105309,0.023280,0.000778,0.079333,0.297338,1.746957,10.257364,-2.842644,-0.068167,0,0,,38.990285,-76.940886,-7.747000,,,
2026-09-11T19:02:13.341,1.804807,0.222976,0.078594,2.064595,0.000000,-50.095311,17.234625,0.212964,0.041382,0.087120,0.204670,0.064886,0.107998,0.021429,-0.005117,0.088603,0.963209,-0.499158,8.739883,-2.815145,-0.112638,0,0,,38.990285,-76.940886,-7.747000,,,
2026-09-11T19:02:13.374,1.838227,0.222976,0.086084,2.064595,0.000000,-50.584890,17.403058,0.212769,0.035321,0.074361,0.207368,0.071587,0.110708,0.040659,-0.015164,0.075844,0.802380,-0.182502,10.642667,-2.794672,-0.135945,0,0,,38.990285,-76.940886,-7.747000,,,
2026-09-11T19:02:13.408,1.871647,0.242414,0.093908,2.244572,0.000000,-50.622655,17.416051,0.231301,0.033018,0.069511,0.209772,0.078611,0.113362,0.081881,-0.024383,0.070994,0.634883,-0.187307,9.426348,-2.779244,-0.159323,0,0,,38.990285,-76.940886,-7.747000,,,
2026-09-11T19:02:13.441,1.905067,0.262053,0.102501,2.426416,0.000000,-50.418721,17.345890,0.250135,0.038099,0.080209,0.212274,0.086228,0.116209,0.070715,0.025517,0.081692,0.485527,-0.876518,9.887555,-2.775707,-0.227297,0,0,,38.990285,-76.940886,-7.747000,,,
2026-09-11T19:02:13.475,1.938491,0.213836,0.109966,1.979958,0.000000,-50.110417,17.239823,0.204228,0.033681,0.070908,0.214799,0.093395,0.118990,0.087464,-0.010667,0.072392,0.258503,-0.045307,10.493116,-2.789642,-0.240371,0,0,,38.990285,-76.940886,-7.747000,,,
2026-09-11T19:02:13.508,1.971916,0.233285,0.117581,2.160043,0.000000,-49.539128,17.043278,0.223040,0.032818,0.069090,0.217139,0.100131,0.121606,0.080128,-0.017457,0.070573,0.057271,-0.583692,10.098202,-2.816693,-0.288204,0,0,,38.990285,-76.940886,-7.747000,,,
2026-09-11T19:02:13.541,2.005337,0.243088,0.125620,2.250818,0.000000,-49.343434,16.975952,0.232496,0.027309,0.057493,0.219255,0.107346,0.124235,0.031046,-0.012125,0.058976,0.911822,0.392560,9.457926,-2.787065,-0.272194,0,0,,38.990285,-76.940886,-7.747000,,,
2026-09-11T19:02:13.575,2.038755,0.214223,0.133031,1.983544,0.000000,-49.002858,16.858782,0.205016,0.032019,0.067409,0.221342,0.114263,0.126799,0.040971,-0.009303,0.068893,0.629195,0.613602,9.729472,-2.778164,-0.242091,0,0,,38.990285,-76.940886,-7.747000,,,
2026-09-11T19:02:13.608,2.072178,0.243379,0.140825,2.253509,0.000000,-48.684941,16.749406,0.233054,0.033698,0.070944,0.223654,0.121160,0.129486,0.007492,-0.013069,0.072427,0.541915,-0.186424,9.692501,-2.772715,-0.264265,0,0,,38.990285,-76.940886,-7.747000,,,
2026-09-11T19:02:13.642,2.105599,0.253199,0.149216,2.344432,0.000000,-47.442113,16.321828,0.242994,0.026824,0.056471,0.225783,0.128690,0.132245,-0.027991,-0.007056,0.057954,0.228299,0.373045,10.168319,-2.784618,-0.249807,0,0,,38.990285,-76.940886,-7.747000,,,
2026-09-11T19:02:13.675,2.139021,0.204981,0.156450,1.897974,0.000000,-44.261571,15.227605,0.197784,0.026108,0.054964,0.227645,0.135669,0.134762,-0.065186,0.002716,0.056447,0.465620,-0.768841,9.727412,-2.782351,-0.309220,0,0,,38.990285,-76.940886,-7.747000,,,
2026-09-11T19:02:13.708,2.172441,0.243879,0.164169,2.258142,0.000000,-40.439702,13.912742,0.236725,0.021175,0.044580,0.229308,0.142562,0.137177,-0.083313,0.005333,0.046063,0.481801,-0.239773,9.947768,-2.778390,-0.333713,0,0,,38.990285,-76.940886,-7.747000,,,
2026-09-11T19:02:13.742,2.205863,0.273291,0.173096,2.530469,0.000000,-36.379567,12.515906,0.266796,0.023568,0.049618,0.230882,0.150584,0.139824,-0.096237,0.006638,0.051101,0.462187,-0.276253,10.210978,-2.775671,-0.360472,0,0,,38.990285,-76.940886,-7.747000,,,
2026-09-11T19:02:13.775,2.239280,0.215559,0.180526,1.995920,0.000000,-34.002401,11.698074,0.211082,0.017426,0.036687,0.232324,0.158198,0.142323,-0.088316,-0.002123,0.038171,0.680189,-0.453361,9.327693,-2.761393,-0.398033,0,0,,38.990285,-76.940886,-7.747000,,,
2026-09-11T19:02:13.809,2.272705,0.244716,0.188482,2.265886,0.000000,-30.892583,10.628182,0.240518,0.021726,0.045739,0.233702,0.165390,0.144703,-0.049309,-0.003293,0.047222,0.464737,-0.125035,9.622677,-2.759339,-0.414150,0,0,,38.990285,-76.940886,-7.747000,,,
2026-09-11T19:02:13.842,2.306124,0.274174,0.197606,2.538652,0.000000,-25.195485,8.668172,0.271043,0.020914,0.044029,0.235202,0.173539,0.147382,-0.043777,0.000042,0.045512,0.405211,-0.322933,10.209213,-2.754965,-0.442950,0,1,2.309664,38.990285,-76.940888,-7.760000,-0.218947,-0.073574,2.704167
2026-09-11T19:02:13.875,2.339545,0.216314,0.204798,2.002903,0.000000,-25.387059,8.734080,0.213805,0.015911,0.033497,0.236497,0.181273,0.149873,-0.023447,-0.005232,0.034981,0.293121,0.435023,9.371137,-2.756089,-0.422078,0,0,,38.990285,-76.940888,-7.760000,,,
2026-09-11T19:02:13.909,2.372967,0.245487,0.212925,2.273030,0.000000,-25.310155,8.707622,0.242658,0.016835,0.035442,0.237649,0.188559,0.152197,-0.001868,-0.002001,0.036926,0.134645,0.107481,9.662394,-2.771631,-0.422725,0,0,,38.990285,-76.940888,-7.760000,,,
2026-09-11T19:02:13.942,2.406389,0.274898,0.222167,2.545356,0.000000,-25.155660,8.654470,0.271768,0.020068,0.042248,0.238948,0.196767,0.154825,0.022844,-0.008475,0.043731,0.335093,0.391089,9.434390,-2.768917,-0.405199,0,0,,38.990285,-76.940888,-7.760000,,,
2026-09-11T19:02:13.976,2.439814,0.207545,0.228806,1.921716,0.000000,-25.155660,8.654470,0.205182,0.017780,0.037431,0.240279,0.204360,0.157331,0.023686,-0.014201,0.038915,0.689309,-0.285079,9.704661,-2.737725,-0.431378,0,0,,38.990285,-76.940888,-7.760000,,,
2026-09-11T19:02:14.009,2.473233,0.246420,0.237123,2.281670,0.000000,-25.402852,8.739513,0.243559,0.030871,0.064991,0.241991,0.211447,0.159911,0.056831,0.005313,0.066475,0.456009,-0.957521,9.712408,-2.728089,-0.501301,0,0,,38.990285,-76.940888,-7.760000,,,
2026-09-11T19:02:14.043,2.506651,0.275879,0.246432,2.554437,0.000000,-25.809346,8.879362,0.272573,0.024913,0.052449,0.243953,0.219594,0.162891,0.046613,0.000910,0.053932,0.507004,-0.661949,11.318051,-2.714474,-0.551222,0,0,,38.990285,-76.940888,-7.760000,,,
2026-09-11T19:02:14.076,2.540077,0.198731,0.252514,1.840104,0.000000,-25.688497,8.837786,0.196372,0.017414,0.036662,0.245442,0.227027,0.165475,0.052045,-0.008605,0.038146,-0.380694,-0.519752,10.164985,-2.749617,-0.590939,0,0,,38.990285,-76.940888,-7.760000,,,
2026-09-11T19:02:14.110,2.573498,0.179282,0.258559,1.660020,0.000000,-25.675450,8.833297,0.177156,0.009645,0.020306,0.246394,0.232971,0.167433,0.035068,0.002795,0.021789,-0.113365,-0.522793,9.617088,-2.765664,-0.630175,0,0,,38.990285,-76.940888,-7.760000,,,
2026-09-11T19:02:14.143,2.606918,0.208693,0.265189,1.932347,0.000000,-25.062963,8.622579,0.206335,0.016310,0.034336,0.247307,0.239078,0.169420,0.000748,-0.011424,0.035819,0.339408,0.686760,9.541674,-2.753422,-0.590938,0,0,,38.990285,-76.940888,-7.760000,,,
2026-09-11T19:02:14.176,2.640335,0.208693,0.272155,1.932347,0.000000,-24.668141,8.486746,0.206408,0.002818,0.005932,0.247980,0.245686,0.171420,-0.009192,-0.000924,0.007415,0.439730,-0.539954,9.657981,-2.734216,-0.631125,0,0,,38.990285,-76.940888,-7.760000,,,
2026-09-11T19:02:14.210,2.673754,0.122097,0.275018,1.130524,0.000000,-21.741658,7.479928,0.121058,-0.000745,-0.001568,0.248053,0.250982,0.172797,-0.017540,0.000306,-0.000085,0.371182,0.457480,9.763893,-2.720158,-0.606242,0,0,,38.990285,-76.940888,-7.760000,,,
2026-09-11T19:02:14.243,2.707175,0.190128,0.280614,1.760444,0.000000,-16.111165,5.542832,0.189239,-0.004760,-0.010022,0.247859,0.256031,0.173980,-0.032971,0.001566,-0.008538,0.223592,-0.523773,9.551971,-2.713202,-0.645015,0,0,,38.990285,-76.940888,-7.760000,,,
2026-09-11T19:02:14.277,2.740594,0.190128,0.286983,1.760444,0.000000,-8.934346,3.073743,0.189854,-0.008731,-0.018380,0.247385,0.262228,0.175314,-0.036791,-0.001369,-0.016897,0.318226,-0.014808,9.746143,-2.696477,-0.650323,0,0,,38.990285,-76.940888,-7.760000,,,
2026-09-11T19:02:14.310,2.774014,0.150850,0.291517,1.396755,0.000000,-3.665715,1.261141,0.150813,-0.010061,-0.021181,0.246724,0.267824,0.176402,-0.014280,-0.000619,-0.019698,0.269585,0.158574,9.777426,-2.686134,-0.644372,0,0,,38.990285,-76.940888,-7.760000,,,
2026-09-11T19:02:14.344,2.807435,0.112276,0.295889,1.039589,0.000000,2.846431,-0.979277,0.112259,-0.011437,-0.024078,0.245968,0.272175,0.177126,0.010231,-0.001493,-0.022595,0.208195,0.234085,9.742024,-2.686047,-0.633633,0,0,,38.990285,-76.940888,-7.760000,,,
2026-09-11T19:02:14.378,2.840862,0.102632,0.298960,0.950297,0.000000,2.970714,-1.022034,0.102616,-0.007005,-0.014747,0.245319,0.275734,0.177700,0.043049,-0.003420,-0.013263,0.170440,0.057369,9.823910,-2.687762,-0.634525,0,0,,38.990285,-76.940888,-7.760000,,,
2026-09-11T19:02:14.411,2.874281,0.102632,0.302398,0.950297,0.000000,3.189067,-1.097156,0.102613,-0.003797,-0.007995,0.244939,0.279104,0.178358,0.077385,-0.004121,-0.006511,0.204567,0.205842,9.661806,-2.682218,-0.625845,0,0,,38.990285,-76.940888,-7.760000,,,
2026-09-11T19:02:14.444,2.907705,0.151255,0.308278,1.400508,0.000000,3.112162,-1.070698,0.151228,-0.002148,-0.004523,0.244729,0.283244,0.179289,0.082252,-0.007571,-0.003039,0.168969,-0.139352,9.689755,-2.682032,-0.639607,0,0,,38.990285,-76.940888,-7.760000,,,
2026-09-11T19:02:14.477,2.941130,0.072825,0.311448,0.674302,0.000000,2.977580,-1.024397,0.072813,0.000705,0.001485,0.244679,0.286882,0.180173,0.080468,-0.003652,0.002968,0.101499,0.211824,9.649940,-2.687949,-0.630542,0,0,,38.990285,-76.940888,-7.760000,,,
2026-09-11T19:02:14.511,2.974552,0.082628,0.314201,0.765078,0.000000,2.509974,-0.863523,0.082619,0.000559,0.001176,0.244723,0.289397,0.180823,0.074131,-0.004144,0.002660,0.199565,0.100812,9.701523,-2.696900,-0.628761,0,0,,38.990285,-76.940888,-7.760000,,,
2026-09-11T19:02:14.544,3.007974,0.082628,0.316949,0.765078,0.000000,2.132319,-0.733596,0.082622,0.002743,0.005774,0.244839,0.292063,0.181546,0.054871,-0.003463,0.007258,0.218786,0.164948,9.768796,-2.709710,-0.622874,0,0,,38.990285,-76.940888,-7.760000,,,
2026-09-11T19:02:14.577,3.041396,0.082628,0.319704,0.765078,0.000000,0.765895,-0.263496,0.082627,0.006343,0.013355,0.245159,0.294705,0.182363,0.043374,-0.001551,0.014838,0.212608,0.243793,9.738984,-2.716607,-0.611991,0,0,,38.990285,-76.940888,-7.760000,,,
2026-09-11T19:02:14.611,3.074818,0.082628,0.322461,0.765078,0.000000,-0.860082,0.295900,0.082627,0.005583,0.011754,0.245579,0.297336,0.183227,0.025797,-0.002472,0.013238,0.328229,0.254483,9.579822,-2.730276,-0.600528,0,0,,38.990285,-76.940888,-7.760000,,,
2026-09-11T19:02:14.644,3.108241,0.082628,0.325239,0.765078,0.000000,-2.928945,1.007664,0.082616,0.003979,0.008376,0.245915,0.299975,0.184054,0.023579,0.000422,0.009860,0.486704,0.087377,9.720744,-2.744127,-0.599987,0,0,,38.990285,-76.940888,-7.760000,,,
2026-09-11T19:02:14.678,3.141665,0.034035,0.326851,0.315135,0.000000,-5.510732,1.895894,0.034016,0.006325,0.013316,0.246277,0.301824,0.184695,0.022485,0.000583,0.014800,0.794143,0.127585,9.730060,-2.731044,-0.596835,0,0,,38.990285,-76.940888,-7.760000,,,
2026-09-11T19:02:14.710,3.175088,0.043753,0.328258,0.405124,0.000000,-11.320439,3.894647,0.043652,0.010366,0.021824,0.246865,0.303014,0.185283,0.034019,-0.000405,0.023307,0.969485,0.166027,9.688872,-2.715601,-0.591263,0,0,,38.990285,-76.940888,-7.760000,,,
2026-09-11T19:02:14.744,3.208508,0.043753,0.329718,0.405124,0.000000,-12.384740,4.260805,0.043632,0.010367,0.021826,0.247594,0.304344,0.185976,0.033823,-0.000607,0.023309,1.013615,0.072079,9.670436,-2.709439,-0.591831,0,0,,38.990285,-76.940888,-7.760000,,,
2026-09-11T19:02:14.778,3.241929,0.259784,0.340189,2.405410,0.000000,-14.723455,5.065409,0.258770,0.010344,0.021776,0.248323,0.309157,0.187553,0.033242,0.003224,0.023260,1.279964,0.259288,9.792627,-2.688623,-0.580583,0,0,,38.990285,-76.940888,-7.760000,,,
2026-09-11T19:02:14.811,3.275355,0.086201,0.342486,0.798161,0.000000,-16.654988,5.729927,0.085771,0.013569,0.028565,0.249164,0.314640,0.189356,0.007176,0.002668,0.030049,1.392054,0.339898,9.569820,-2.666408,-0.564035,0,0,,38.990285,-76.940888,-7.760000,,,
2026-09-11T19:02:14.845,3.308777,0.086201,0.345566,0.798161,0.000000,-19.073354,6.561934,0.085637,0.010074,0.021208,0.249996,0.317318,0.190447,-0.050208,0.003288,0.022692,1.321936,0.135626,9.695541,-2.654604,-0.560849,0,1,3.309967,38.990285,-76.940890,-7.766000,-0.336775,-0.020571,2.704167
2026-09-11T19:02:14.878,3.342200,0.261243,0.355849,2.418920,0.000000,-19.047261,6.552957,0.259537,0.013150,0.027684,0.250813,0.322810,0.192253,-0.086977,0.002901,0.029168,0.811206,0.279293,9.541184,-2.684161,-0.548749,0,0,,38.990285,-76.940890,-7.766000,,,
2026-09-11T19:02:14.911,3.375620,0.241636,0.363695,2.237368,0.000000,-19.113866,6.575871,0.240046,0.017168,0.036144,0.251879,0.330770,0.194820,-0.105186,0.004641,0.037628,1.145417,0.140922,9.582372,-2.699269,-0.545834,0,0,,38.990285,-76.940890,-7.766000,,,
2026-09-11T19:02:14.944,3.409043,0.203148,0.370098,1.881002,0.000000,-19.111119,6.574926,0.201812,0.018776,0.039529,0.253144,0.337770,0.197246,-0.095012,-0.005613,0.041013,2.434697,-0.231045,9.975030,-2.636328,-0.566976,0,0,,38.990285,-76.940890,-7.766000,,,
2026-09-11T19:02:14.978,3.442468,0.349535,0.382235,3.236432,0.000000,-19.157811,6.590990,0.347225,0.017842,0.037562,0.254432,0.346498,0.200144,-0.057490,-0.010465,0.039046,1.400194,0.267427,10.385831,-2.643573,-0.555955,1,0,,38.990285,-76.940890,-7.766000,,,
2026-09-11T19:02:15.011,3.475889,0.320604,0.392953,2.968557,0.000000,-19.201757,6.606109,0.318476,0.023168,0.048775,0.255875,0.357089,0.203614,-0.045864,-0.004711,0.050258,1.530034,-0.250266,9.339069,-2.630302,-0.578716,1,0,,38.990285,-76.940890,-7.766000,,,
2026-09-11T19:02:15.045,3.509311,0.398876,0.405820,3.693296,0.000000,-19.245702,6.621228,0.396216,0.022836,0.048076,0.257494,0.368445,0.207391,-0.018805,-0.005291,0.049559,1.933577,1.184545,9.541478,-2.589573,-0.508606,1,0,,38.990285,-76.940890,-7.766000,,,
2026-09-11T19:02:15.078,3.542734,0.408401,0.419901,3.781490,0.000000,-19.153005,6.589336,0.405703,0.029212,0.061500,0.259325,0.381179,0.211657,-0.002818,0.080692,0.062983,1.396859,-0.051681,10.073293,-2.595251,-0.519652,1,0,,38.990285,-76.940890,-7.766000,,,
2026-09-11T19:02:15.112,3.576160,0.486328,0.436079,4.503042,0.000000,-18.822042,6.475473,0.483226,0.019826,0.041738,0.261050,0.395325,0.216272,0.041939,0.091055,0.043222,1.900823,0.969387,7.773732,-2.556382,-0.464187,1,0,,38.990285,-76.940890,-7.766000,,,
2026-09-11T19:02:15.145,3.609581,0.535189,0.453575,4.955454,0.000000,-18.556310,6.384052,0.531870,0.019205,0.040432,0.262423,0.411541,0.221291,0.057464,-0.022971,0.041915,0.843666,1.285063,10.209017,-2.578356,-0.389004,1,0,,38.990285,-76.940890,-7.766000,,,
2026-09-11T19:02:15.179,3.643003,0.554433,0.472278,5.133636,0.000000,-18.168355,6.250581,0.551137,0.039772,0.083730,0.264498,0.428758,0.226956,0.032704,-0.013802,0.085214,0.849942,-0.922806,8.955041,-2.607199,-0.459118,1,0,,38.990285,-76.940890,-7.766000,,,
2026-09-11T19:02:15.212,3.676426,0.583634,0.492233,5.404021,0.000000,-18.676473,6.425392,0.579968,0.041876,0.088159,0.267371,0.446637,0.233241,0.042755,-0.028102,0.089643,0.782767,0.117680,9.533143,-2.637539,-0.461447,1,0,,38.990285,-76.940890,-7.766000,,,
2026-09-11T19:02:15.246,3.709850,0.603060,0.512589,5.583888,0.000000,-18.850194,6.485159,0.599201,0.030280,0.063747,0.269909,0.465316,0.239635,0.019662,-0.015436,0.065231,0.291944,1.398624,10.581768,-2.696787,-0.380018,1,0,,38.990285,-76.940890,-7.766000,,,
2026-09-11T19:02:15.279,3.743273,0.612779,0.533218,5.673877,0.000000,-18.850194,6.485159,0.608858,0.034971,0.073622,0.272205,0.484476,0.246091,-0.046141,-0.055270,0.075106,-0.000294,1.399017,15.609932,-2.775512,-0.299896,1,0,,38.990285,-76.940890,-7.766000,,,
2026-09-11T19:02:15.312,3.776700,0.622764,0.554060,5.766337,0.000000,-19.080907,6.564532,0.618681,0.022842,0.048088,0.274239,0.503970,0.252558,-0.083968,-0.202835,0.049572,-0.934770,4.469381,11.524383,-2.912030,-0.020945,1,0,,38.990285,-76.940890,-7.766000,,,
2026-09-11T19:02:15.345,3.810122,0.613046,0.574496,5.676349,0.000000,-19.043141,6.551539,0.609042,0.053600,0.112842,0.276929,0.523364,0.259369,-0.040802,-0.042119,0.114325,1.104033,-1.484335,10.207154,-2.913834,-0.132942,1,0,,38.990285,-76.940890,-7.766000,,,
2026-09-11T19:02:15.379,3.843545,0.613368,0.594540,5.679335,0.000000,-19.465428,6.696822,0.609183,0.034914,0.073503,0.280043,0.542532,0.266388,-0.144581,-0.063843,0.074987,2.181784,-1.541900,7.820607,-2.842172,-0.245874,1,0,,38.990285,-76.940890,-7.766000,,,
2026-09-11T19:02:15.412,3.876969,0.642827,0.615563,5.952101,0.000000,-19.179097,6.598313,0.638569,0.041996,0.088413,0.282749,0.562207,0.273414,-0.173195,-0.059575,0.089897,2.402531,0.089437,7.536018,-2.757161,-0.252739,1,0,,38.990285,-76.940890,-7.766000,,,
2026-09-11T19:02:15.446,3.910395,0.672238,0.637178,6.224428,0.000000,-18.989583,6.533113,0.667873,0.037806,0.079591,0.285556,0.582792,0.280816,-0.115359,-0.039065,0.081075,2.087149,-1.824920,10.307182,-2.695547,-0.383208,1,0,,38.990285,-76.940890,-7.766000,,,
2026-09-11T19:02:15.480,3.943812,0.711319,0.660585,6.586286,0.000000,-19.356252,6.659261,0.706520,0.045763,0.096342,0.288496,0.604421,0.288658,-0.017381,-0.055132,0.097826,1.154831,2.680354,9.696423,-2.695687,-0.221658,1,0,,38.990285,-76.940890,-7.766000,,,
2026-09-11T19:02:15.513,3.977235,0.750455,0.685841,6.948656,0.000000,-19.845830,6.827694,0.745133,0.047619,0.100250,0.291781,0.627220,0.297094,0.013786,-0.055074,0.101734,2.549925,-3.032412,9.000936,-2.608670,-0.431997,1,0,,38.990285,-76.940890,-7.766000,,,
2026-09-11T19:02:15.547,4.010655,0.779817,0.711705,7.220525,0.000000,-19.838277,6.825095,0.774291,0.043487,0.091552,0.294986,0.651084,0.305895,0.025905,-0.084909,0.093035,1.850809,0.880049,9.644742,-2.571077,-0.386574,1,0,,38.990285,-76.940890,-7.766000,,,
2026-09-11T19:02:15.580,4.044080,0.808989,0.739064,7.490635,0.000000,-19.358312,6.659970,0.803529,0.050131,0.105538,0.298280,0.675844,0.315100,0.017565,0.048038,0.107022,2.079794,-2.165799,9.378590,-2.522232,-0.539665,1,0,,38.990285,-76.940890,-7.766000,,,
2026-09-11T19:02:15.613,4.077505,0.848016,0.767146,7.851996,0.000000,-17.399999,5.986238,0.843391,0.045280,0.095326,0.301637,0.701668,0.324757,0.089124,-0.034515,0.096810,2.143538,-1.727343,9.091941,-2.473007,-0.662394,1,0,,38.990285,-76.940890,-7.766000,,,
2026-09-11T19:02:15.647,4.110926,0.877342,0.796588,8.123536,0.000000,-16.271840,5.598110,0.873157,0.037966,0.079928,0.304566,0.728629,0.334647,0.067044,-0.068678,0.081412,1.865715,-2.111470,8.338006,-2.437979,-0.807916,1,0,,38.990285,-76.940890,-7.766000,,,
2026-09-11T19:02:15.680,4.144345,0.916684,0.827557,8.487811,0.000000,-13.217641,4.547354,0.913798,0.028723,0.060470,0.306912,0.756768,0.344698,0.035007,-0.099797,0.061954,1.088636,1.829627,11.370124,-2.444898,-0.695882,1,0,,38.990285,-76.940890,-7.766000,,,
2026-09-11T19:02:15.714,4.177770,0.955588,0.859470,8.848039,0.000000,-12.921697,4.445538,0.952713,0.037157,0.078225,0.309230,0.786159,0.355206,0.001744,-0.084555,0.079709,2.563164,-0.916824,11.906352,-2.349329,-0.764049,1,0,,38.990285,-76.940890,-7.766000,,,
2026-09-11T19:02:15.747,4.211191,0.975360,0.892136,9.031110,0.000000,-12.894918,4.436325,0.972438,0.025809,0.054334,0.311445,0.816471,0.366033,0.030169,-0.082962,0.055818,0.959679,4.341502,11.830154,-2.352958,-0.489803,1,0,,38.990285,-76.940890,-7.766000,,,
2026-09-11T19:02:15.780,4.244642,1.034230,0.927185,9.576202,0.000000,-12.763082,4.390968,1.031194,0.044767,0.094246,0.313930,0.847994,0.377466,0.024910,-0.090365,0.095729,1.983689,-1.372245,7.701751,-2.284949,-0.591274,1,0,,38.990285,-76.940890,-7.766000,,,
2026-09-11T19:02:15.814,4.278061,1.044265,0.962179,9.669122,0.000000,-12.894918,4.436325,1.041137,0.049127,0.103426,0.317233,0.880425,0.389705,-0.007479,-0.025685,0.104910,1.238286,-2.057631,11.102109,-2.263464,-0.736544,1,0,,38.990285,-76.940890,-7.766000,,,
2026-09-11T19:02:15.848,4.311488,1.083719,0.998771,10.034438,0.000000,-12.756215,4.388606,1.080542,0.057073,0.120155,0.320970,0.913537,0.402516,-0.126219,-0.084953,0.121638,0.560156,0.059428,9.866275,-2.284822,-0.744663,1,1,4.316188,38.990286,-76.940896,-7.793000,-0.849141,0.085991,3.051342
2026-09-11T19:02:15.881,4.344917,1.084362,1.034683,10.040390,0.000000,-12.587300,4.330493,1.081266,0.054085,0.113863,0.324881,0.947213,0.415744,-0.149914,-0.045827,0.115347,-1.741269,1.004495,9.691030,-2.453722,-0.691092,1,0,,38.990286,-76.940896,-7.793000,,,
2026-09-11T19:02:15.914,4.378334,1.045806,1.069309,9.683390,0.000000,-12.873632,4.429002,1.042683,0.035978,0.075743,0.328049,0.980345,0.428550,-0.138576,-0.021789,0.077226,1.021166,0.017554,7.648403,-2.441695,-0.699130,1,0,,38.990286,-76.940896,-7.793000,,,
2026-09-11T19:02:15.948,4.411756,1.007292,1.102908,9.326773,0.000000,-13.151723,4.524675,1.004152,0.046840,0.098610,0.330963,1.012263,0.440926,-0.185526,-0.099130,0.100093,0.295180,2.988184,12.606547,-2.476876,-0.516148,1,0,,38.990286,-76.940896,-7.793000,,,
2026-09-11T19:02:15.981,4.445197,1.007920,1.136921,9.332595,0.000000,-14.436437,4.966664,1.004136,0.062831,0.132276,0.334823,1.043399,0.453632,-0.109796,-0.115012,0.133760,0.709805,0.832879,6.041681,-2.482456,-0.476830,1,0,,38.990286,-76.940896,-7.793000,,,
2026-09-11T19:02:16.014,4.478618,0.998184,1.170325,9.242444,0.000000,-17.511235,6.024508,0.992671,0.059221,0.124676,0.339117,1.074216,0.466589,-0.132958,-0.039395,0.126160,1.980061,-4.007978,7.425792,-2.400749,-0.750622,1,0,,38.990286,-76.940896,-7.793000,,,
2026-09-11T19:02:16.048,4.512038,0.998279,1.203914,9.243324,0.000000,-19.465428,6.696822,0.991468,0.057571,0.121202,0.343226,1.104806,0.479521,-0.070419,-0.036645,0.122686,1.010183,1.568181,7.108743,-2.374051,-0.660337,1,0,,38.990286,-76.940896,-7.793000,,,
2026-09-11T19:02:16.081,4.545463,1.017823,1.237916,9.424288,0.000000,-19.377538,6.666584,1.010941,0.069999,0.147367,0.347714,1.135572,0.492861,-0.016567,-0.046602,0.148850,0.620173,-1.215632,8.375370,-2.367993,-0.753053,1,0,,38.990286,-76.940896,-7.793000,,,
2026-09-11T19:02:16.114,4.578882,1.047165,1.272766,9.695974,0.000000,-19.442769,6.689026,1.040037,0.056938,0.119870,0.352180,1.167038,0.506604,-0.035563,0.024199,0.121354,0.742363,-3.659548,13.802272,-2.357382,-1.001269,1,0,,38.990286,-76.940896,-7.793000,,,
2026-09-11T19:02:16.149,4.612300,1.066854,1.308484,9.878275,0.000000,-19.128286,6.580832,1.059824,0.070052,0.147478,0.356647,1.199207,0.520771,0.030953,0.002511,0.148962,0.219669,1.397840,12.144948,-2.386464,-0.921569,1,0,,38.990286,-76.940896,-7.793000,,,
2026-09-11T19:02:16.182,4.645744,1.115722,1.345888,10.330761,0.000000,-17.908803,6.161285,1.109277,0.042446,0.089359,0.360607,1.232511,0.535265,0.085976,-0.175152,0.090843,2.821275,0.450812,5.399640,-2.255286,-0.900311,1,0,,38.990286,-76.940896,-7.793000,,,
2026-09-11T19:02:16.215,4.679168,1.145420,1.383868,10.605745,0.000000,-15.800801,5.436056,1.140269,0.055846,0.117570,0.364065,1.267082,0.550128,0.140457,-0.020329,0.119054,-0.081101,0.715787,13.920442,-2.321532,-0.864414,1,0,,38.990286,-76.940896,-7.793000,,,
2026-09-11T19:02:16.249,4.712584,1.135824,1.421831,10.516890,0.000000,-14.590245,5.019580,1.131468,0.048788,0.102712,0.367746,1.301900,0.565341,0.237946,-0.021503,0.104195,2.409200,-0.910744,7.880330,-2.231237,-0.932999,1,0,,38.990286,-76.940896,-7.793000,,,
2026-09-11T19:02:16.282,4.746006,1.145824,1.459848,10.609480,0.000000,-13.374196,4.601214,1.142131,0.043823,0.092258,0.371004,1.336773,0.580501,0.237787,0.033224,0.093742,-4.076526,-0.918491,11.013849,-2.565994,-1.000634,1,0,,38.990286,-76.940896,-7.793000,,,
2026-09-11T19:02:16.315,4.779424,1.068652,1.494664,9.894925,0.000000,-13.389302,4.606411,1.065200,0.035644,0.075041,0.373799,1.370645,0.595156,0.138385,0.036825,0.076524,2.013305,0.520341,6.549567,-2.503311,-0.972776,1,0,,38.990286,-76.940896,-7.793000,,,
2026-09-11T19:02:16.349,4.812843,1.117520,1.531914,10.347411,0.000000,-10.372182,3.568411,1.115354,0.019773,0.041628,0.375749,1.404213,0.609357,0.083939,-0.031315,0.043112,2.981026,-2.614943,13.306546,-2.379357,-1.145913,1,0,,38.990286,-76.940896,-7.793000,,,
2026-09-11T19:02:16.382,4.846265,1.156670,1.569987,10.709910,0.000000,-4.235631,1.457213,1.156296,0.006108,0.012859,0.376660,1.439360,0.623706,0.006424,-0.071092,0.014342,2.539040,-0.978998,11.027480,-2.284834,-1.209249,1,0,,38.990286,-76.940896,-7.793000,,,
2026-09-11T19:02:16.415,4.879687,1.166488,1.609721,10.800815,0.000000,4.161357,-1.431659,1.166124,-0.007253,-0.015269,0.376619,1.475457,0.637962,-0.019311,-0.000787,-0.013786,0.945067,0.172695,8.514722,-2.290229,-1.195246,1,0,,38.990286,-76.940896,-7.793000,,,
2026-09-11T19:02:16.449,4.913103,1.215639,1.650315,11.255920,0.000000,9.786357,-3.366866,1.213541,-0.040907,-0.086120,0.374925,1.512737,0.651804,-0.111954,-0.041934,-0.084637,2.052532,-1.481295,7.659876,-2.215564,-1.282797,1,0,,38.990286,-76.940896,-7.793000,,,
2026-09-11T19:02:16.483,4.946534,1.255066,1.692521,11.620982,0.000000,16.286143,-5.603031,1.249070,-0.058296,-0.122729,0.371434,1.551672,0.665267,-0.045779,-0.004759,-0.121246,2.954253,-4.089962,8.845697,-2.074973,-1.535111,1,0,,38.990286,-76.940896,-7.793000,,,
2026-09-11T19:02:16.516,4.979957,1.294309,1.735077,11.984344,0.000000,17.191142,-5.914384,1.287420,-0.066800,-0.140631,0.367033,1.591959,0.678613,0.030703,0.034345,-0.139147,1.186801,-2.872466,10.867730,-2.045411,-1.703991,1,0,,38.990286,-76.940896,-7.793000,,,
2026-09-11T19:02:16.549,5.013378,1.304196,1.778905,12.075890,0.000000,17.383403,-5.980528,1.297098,-0.078967,-0.166246,0.361905,1.633178,0.691732,0.023182,-0.079990,-0.164762,2.621906,0.076002,9.704465,-1.922475,-1.677963,1,0,,38.990286,-76.940896,-7.793000,,,
2026-09-11T19:02:16.583,5.046812,1.324100,1.823804,12.260188,0.000000,17.004374,-5.850129,1.317204,-0.070442,-0.148298,0.356647,1.674969,0.704759,0.069741,-0.017199,-0.146814,1.811582,0.709413,9.989740,-1.850823,-1.612525,1,0,,38.990286,-76.940896,-7.793000,,,
2026-09-11T19:02:16.616,5.080248,1.363084,1.869633,12.621150,0.000000,15.918788,-5.476647,1.356862,-0.062555,-0.131695,0.351966,1.717670,0.718182,0.075725,-0.044986,-0.130212,1.560728,-1.937206,8.197575,-1.789948,-1.720221,1,0,,38.990286,-76.940896,-7.793000,,,
2026-09-11T19:02:16.650,5.113675,1.362922,1.915565,12.619650,0.000000,14.807109,-5.094189,1.357539,-0.047636,-0.100286,0.348089,1.760918,0.732009,0.080296,-0.035122,-0.098802,0.500433,0.032852,9.599240,-1.793607,-1.701946,1,0,,38.990286,-76.940896,-7.793000,,,
2026-09-11T19:02:16.683,5.147108,1.363019,1.961170,12.620546,0.000000,14.120463,-4.857958,1.358123,-0.039764,-0.083713,0.345013,1.804112,0.746054,0.067041,-0.046186,-0.082230,0.884070,-0.060801,12.161913,-1.767549,-1.691386,1,0,,38.990286,-76.940896,-7.793000,,,
2026-09-11T19:02:16.717,5.180532,1.314850,2.005123,12.174541,0.000000,14.180201,-4.878510,1.310087,-0.047814,-0.100660,0.341932,1.846591,0.759694,0.002296,-0.032594,-0.099177,-0.236046,-3.765459,8.843539,-1.810354,-1.919522,1,0,,38.990286,-76.940896,-7.793000,,,
2026-09-11T19:02:16.750,5.213948,1.257052,2.046906,11.639373,0.000000,14.240626,-4.899298,1.252459,-0.052262,-0.110025,0.338411,1.887509,0.772404,-0.014070,0.060016,-0.108541,-0.752170,1.636632,11.955679,-1.880145,-1.795173,1,0,,38.990286,-76.940896,-7.793000,,,
2026-09-11T19:02:16.783,5.247367,1.237949,2.088032,11.462494,0.000000,14.571589,-5.013161,1.233214,-0.037593,-0.079144,0.335250,1.927207,0.784715,-0.072681,0.002126,-0.077660,0.164065,-0.263014,8.762732,-1.887367,-1.797710,1,0,,38.990286,-76.940896,-7.793000,,,
2026-09-11T19:02:16.817,5.280792,1.179817,2.127283,10.924234,0.000000,14.564036,-5.010563,1.175309,-0.035873,-0.075523,0.332666,1.965637,0.796750,-0.085436,-0.044757,-0.074039,1.356652,-0.090515,17.904393,-1.818468,-1.789627,1,0,,38.990286,-76.940896,-7.793000,,,
2026-09-11T19:02:16.850,5.314207,1.170445,2.166633,10.837449,0.000000,12.850169,-4.420930,1.166962,-0.038653,-0.081375,0.330044,2.003047,0.808304,-0.052875,0.037457,-0.079891,2.043412,-0.491607,7.008323,-1.703886,-1.807186,1,1,5.315845,38.990289,-76.940908,-7.746000,-1.903401,0.353044,3.127636
2026-09-11T19:02:16.884,5.347629,1.170824,2.205785,10.840964,0.000000,8.294963,-2.853772,1.169372,-0.013819,-0.029094,0.328198,2.040277,0.820093,-0.034883,0.036972,-0.027610,0.513672,-0.016966,10.677481,-1.691539,-1.797782,1,0,,38.990289,-76.940908,-7.746000,,,
2026-09-11T19:02:16.917,5.381064,1.142097,2.243673,10.574972,0.000000,0.385493,-0.132624,1.142094,-0.001546,-0.003256,0.327657,2.076943,0.832296,-0.060869,0.009389,-0.001772,1.122960,0.244088,9.785762,-1.645439,-1.773540,1,0,,38.990289,-76.940908,-7.746000,,,
2026-09-11T19:02:16.950,5.414508,1.152332,2.282306,10.669741,0.000000,0.840052,-0.289009,1.152317,0.006655,0.014011,0.327837,2.113240,0.844728,-0.080790,0.004048,0.015494,1.538075,0.031087,9.776838,-1.581031,-1.764640,1,0,,38.990289,-76.940908,-7.746000,,,
2026-09-11T19:02:16.984,5.447926,1.162593,2.321165,10.764748,0.000000,-0.277806,0.095576,1.162591,0.014017,0.029510,0.328564,2.149744,0.857523,-0.104566,0.007725,0.030994,0.849550,0.635373,8.029391,-1.574507,-1.717920,1,0,,38.990289,-76.940908,-7.746000,,,
2026-09-11T19:02:17.017,5.481363,1.133915,2.358871,10.499216,0.000000,-1.785680,0.614339,1.133850,0.019733,0.041542,0.329752,2.185893,0.870467,-0.099117,-0.011576,0.043026,1.514441,1.086675,10.502824,-1.534324,-1.643306,1,0,,38.990289,-76.940908,-7.746000,,,
2026-09-11T19:02:17.051,5.514779,1.173273,2.398037,10.863636,0.000000,-3.231069,1.111606,1.173052,0.036044,0.075882,0.331714,2.222045,0.883865,-0.098413,-0.038196,0.077366,1.453051,-1.092363,6.058450,-1.508012,-1.713257,1,0,,38.990289,-76.940908,-7.746000,,,
2026-09-11T19:02:17.084,5.548204,1.183435,2.437320,10.957729,0.000000,-4.084569,1.405242,1.183079,0.031103,0.065480,0.334077,2.258893,0.897794,-0.069312,-0.018511,0.066964,1.757940,-0.659399,8.293778,-1.472186,-1.753684,1,0,,38.990289,-76.940908,-7.746000,,,
2026-09-11T19:02:17.117,5.581658,1.203040,2.477678,11.139264,0.000000,-4.406606,1.516034,1.202619,0.032359,0.068123,0.336312,2.296229,0.911924,0.025823,0.013371,0.069607,2.211007,-0.128957,10.282763,-1.411522,-1.759629,1,0,,38.990289,-76.940908,-7.746000,,,
2026-09-11T19:02:17.151,5.615072,1.252010,2.519829,11.592684,0.000000,-3.541432,1.218383,1.251727,0.022371,0.047096,0.338237,2.334621,0.926356,0.028381,-0.039726,0.048580,2.891589,-1.671740,13.299485,-1.312278,-1.863827,1,0,,38.990289,-76.940908,-7.746000,,,
2026-09-11T19:02:17.184,5.648493,1.290972,2.562921,11.953445,0.000000,-2.400914,0.826003,1.290838,0.022377,0.047110,0.339811,2.374441,0.941192,0.067160,0.030639,0.048593,2.676529,-2.886784,8.488048,-1.232322,-2.045643,1,0,,38.990289,-76.940908,-7.746000,,,
2026-09-11T19:02:17.218,5.681920,1.329855,2.607621,12.313473,0.000000,-0.717260,0.246764,1.329843,0.015440,0.032506,0.341141,2.415516,0.956415,0.067354,-0.043178,0.033990,2.751942,-0.405407,9.781839,-1.148924,-2.063736,1,0,,38.990289,-76.940908,-7.746000,,,
2026-09-11T19:02:17.251,5.715340,1.378565,2.654016,12.764492,0.000000,0.332621,-0.114434,1.378562,0.008208,0.017279,0.341973,2.458027,0.971947,0.090138,-0.017345,0.018763,2.591603,-0.374418,7.620356,-1.079990,-2.078365,1,0,,38.990289,-76.940908,-7.746000,,,
2026-09-11T19:02:17.284,5.748767,1.398169,2.700712,12.946006,0.000000,0.329188,-0.113253,1.398166,0.010712,0.022551,0.342639,2.501637,0.987822,0.048128,0.030921,0.024034,2.258668,-1.665267,6.491904,-1.037814,-2.176886,1,0,,38.990289,-76.940908,-7.746000,,,
2026-09-11T19:02:17.318,5.782190,1.447161,2.749256,13.399643,0.000000,0.386866,-0.133096,1.447158,0.004825,0.010158,0.343186,2.546331,1.004055,0.054982,-0.010166,0.011641,1.133747,0.335976,7.603390,-1.069047,-2.143695,1,0,,38.990289,-76.940908,-7.746000,,,
2026-09-11T19:02:17.351,5.815608,1.486487,2.798978,13.763772,0.000000,0.596293,-0.205147,1.486478,0.004656,0.009802,0.343519,2.592435,1.020706,0.073017,-0.031077,0.011285,1.938186,-1.776279,10.196072,-1.043141,-2.247557,1,0,,38.990289,-76.940908,-7.746000,,,
2026-09-11T19:02:17.385,5.849028,1.506014,2.849604,13.944574,0.000000,0.837993,-0.288300,1.505995,-0.004120,-0.008673,0.343538,2.639515,1.037556,0.059945,-0.096074,-0.007190,1.251819,1.915533,10.622367,-1.052909,-2.109567,1,0,,38.990289,-76.940908,-7.746000,,,
2026-09-11T19:02:17.418,5.882451,1.535659,2.900564,14.219064,0.000000,1.591929,-0.547682,1.535589,-0.015163,-0.031922,0.342860,2.687488,1.054357,0.033973,0.013134,-0.030439,0.132684,-0.908684,11.053664,-1.122378,-2.153552,1,0,,38.990289,-76.940908,-7.746000,,,
2026-09-11T19:02:17.452,5.915877,1.555282,2.953000,14.400763,0.000000,2.516841,-0.865886,1.555105,-0.023485,-0.049443,0.341500,2.736365,1.071080,0.021046,-0.003072,-0.047959,3.188632,1.227008,12.539469,-0.980220,-2.057018,1,0,,38.990289,-76.940908,-7.746000,,,
2026-09-11T19:02:17.485,5.949313,1.565524,3.005144,14.495591,0.000000,3.514537,-1.209130,1.565175,-0.021727,-0.045740,0.339909,2.785783,1.087798,0.071500,-0.038075,-0.044257,2.826179,-2.098133,11.947148,-0.849386,-2.177151,1,0,,38.990289,-76.940908,-7.746000,,,
2026-09-11T19:02:17.518,5.982744,1.585504,3.058340,14.680588,0.000000,3.980082,-1.369294,1.585051,-0.029257,-0.061593,0.338114,2.835728,1.104506,0.117011,0.087013,-0.060109,2.179038,0.894072,9.584235,-0.747840,-2.100548,1,0,,38.990289,-76.940908,-7.746000,,,
2026-09-11T19:02:17.552,6.016162,1.644447,3.113306,15.226363,0.000000,4.571971,-1.572926,1.643828,-0.023946,-0.050413,0.336243,2.886936,1.121515,0.171466,-0.143327,-0.048930,1.489238,-0.953697,8.158152,-0.678099,-2.145349,1,0,,38.990289,-76.940908,-7.746000,,,
2026-09-11T19:02:17.585,6.049586,1.635271,3.168041,15.141395,0.000000,7.503947,-2.581633,1.633611,-0.046648,-0.098205,0.333759,2.939050,1.138408,0.069521,-0.021326,-0.096722,1.315562,0.626057,12.734720,-0.607954,-2.082399,1,0,,38.990289,-76.940908,-7.746000,,,
2026-09-11T19:02:17.619,6.083008,1.606566,3.221925,14.875609,0.000000,12.456035,-4.285333,1.602074,-0.069961,-0.147287,0.329657,2.990808,1.154176,0.088332,-0.009176,-0.145804,2.419889,3.616398,9.185889,-0.459334,-1.821742,1,0,,38.990289,-76.940908,-7.746000,,,
2026-09-11T19:02:17.652,6.116430,1.567774,3.274380,14.516427,0.000000,15.330333,-5.274197,1.561136,-0.056045,-0.117989,0.325224,3.041537,1.169184,-0.024799,0.012553,-0.116505,-1.146790,-1.413727,5.419939,-0.536974,-1.892846,1,0,,38.990289,-76.940908,-7.746000,,,
2026-09-11T19:02:17.686,6.149878,1.499456,3.324561,13.883851,0.000000,15.831584,-5.446646,1.492686,-0.066621,-0.140254,0.320905,3.090616,1.183455,-0.028437,-0.013953,-0.138770,-0.713728,0.116699,10.479190,-0.581166,-1.862474,1,0,,38.990289,-76.940908,-7.746000,,,
2026-09-11T19:02:17.719,6.183303,1.450924,3.372692,13.434478,0.000000,15.762233,-5.422786,1.444430,-0.056318,-0.118563,0.316579,3.137874,1.196888,-0.180017,-0.112138,-0.117080,-0.159162,-0.245755,9.182947,-0.588094,-1.858381,1,0,,38.990289,-76.940908,-7.746000,,,
2026-09-11T19:02:17.752,6.216725,1.373609,3.417991,12.718601,0.000000,14.229640,-4.895518,1.368598,-0.040293,-0.084827,0.313180,3.183072,1.209914,-0.036850,0.091670,-0.083344,-1.223772,-1.248190,10.531067,-0.662803,-1.922776,1,0,,38.990289,-76.940908,-7.746000,,,
2026-09-11T19:02:17.786,6.250204,1.296372,3.460754,12.003440,0.000000,10.184611,-3.503880,1.293948,-0.020045,-0.042199,0.311054,3.225798,1.222640,-0.011728,0.043537,-0.040716,-0.385990,0.230750,10.910291,-0.680434,-1.894681,1,0,,38.990289,-76.940908,-7.746000,,,
2026-09-11T19:02:17.819,6.283627,1.219136,3.501781,11.288296,0.000000,0.610026,-0.209871,1.219128,0.007886,0.016603,0.310626,3.265845,1.235292,0.007555,0.030332,0.018087,-0.866810,-0.713336,10.289824,-0.730947,-1.932885,1,0,,38.990289,-76.940908,-7.746000,,,
2026-09-11T19:02:17.853,6.317051,1.190225,3.541447,11.020604,0.000000,0.502223,-0.172783,1.190220,0.013782,0.029014,0.311389,3.304068,1.247959,-0.013079,0.021889,0.030498,-0.116993,0.960758,11.463484,-0.736881,-1.863247,1,1,6.322751,38.990292,-76.940923,-7.683000,-3.202536,0.747415,3.127636
2026-09-11T19:02:17.886,6.350473,1.161419,3.579889,10.753883,0.000000,-2.904225,0.999160,1.161243,0.026743,0.056301,0.312814,3.341257,1.260669,0.015936,0.009896,0.057784,1.315660,-0.001569,10.384262,-0.657657,-1.858658,1,0,,38.990292,-76.940923,-7.683000,,,
2026-09-11T19:02:17.920,6.383898,1.132803,3.617806,10.488918,0.000000,-5.615102,1.931801,1.132159,0.033615,0.070769,0.314938,3.377400,1.273461,-0.040558,-0.033127,0.072253,0.430904,-0.604678,9.182163,-0.648896,-1.894105,1,0,,38.990292,-76.940923,-7.683000,,,
2026-09-11T19:02:17.953,6.417314,1.142990,3.656025,10.583245,0.000000,-10.373555,3.568884,1.140774,0.034723,0.073102,0.317342,3.413140,1.286354,-0.052129,0.063476,0.074585,1.846102,-0.188288,18.017758,-0.561057,-1.902422,1,0,,38.990292,-76.940923,-7.683000,,,
2026-09-11T19:02:17.986,6.450734,1.153273,3.693867,10.678451,0.000000,-11.476995,3.948507,1.150535,0.047125,0.099211,0.320221,3.449069,1.299652,-0.009764,0.077708,0.100695,2.126376,0.423549,13.632126,-0.469182,-1.873046,1,0,,38.990292,-76.940923,-7.683000,,,
2026-09-11T19:02:18.020,6.484157,1.153538,3.733380,10.680906,0.000000,-11.384297,3.916616,1.150844,0.046512,0.097920,0.323516,3.485059,1.313303,-0.045901,0.010235,0.099404,2.893158,-0.569374,9.565407,-0.341532,-1.908156,1,0,,38.990292,-76.940923,-7.683000,,,
2026-09-11T19:02:18.053,6.517577,1.202683,3.773604,11.135956,0.000000,-11.467382,3.945200,1.199833,0.036838,0.077553,0.326448,3.521838,1.327166,-0.024090,0.051700,0.079036,2.639264,1.277905,13.746374,-0.244657,-1.822067,1,0,,38.990292,-76.940923,-7.683000,,,
2026-09-11T19:02:18.087,6.551000,1.232391,3.814264,11.411030,0.000000,-11.417943,3.928191,1.229496,0.047997,0.101047,0.329432,3.559815,1.341585,-0.011050,0.068148,0.102530,1.481981,-1.303206,10.279625,-0.235130,-1.905977,1,0,,38.990292,-76.940923,-7.683000,,,
2026-09-11T19:02:18.120,6.584421,1.232607,3.855779,11.413028,0.000000,-11.181050,3.846692,1.229830,0.038609,0.081281,0.332479,3.598211,1.356308,-0.042070,-0.008899,0.082765,3.661803,-0.378831,8.839420,-0.094160,-1.927566,1,0,,38.990292,-76.940923,-7.683000,,,
2026-09-11T19:02:18.153,6.617838,1.281650,3.899316,11.867128,0.000000,-11.043035,3.799209,1.278833,0.042637,0.089763,0.335337,3.637367,1.371329,-0.013380,-0.004596,0.091246,2.105880,3.126948,9.692795,-0.065184,-1.723037,1,0,,38.990292,-76.940923,-7.683000,,,
2026-09-11T19:02:18.187,6.651258,1.310984,3.943600,12.138742,0.000000,-10.339223,3.557072,1.308458,0.035111,0.073918,0.338072,3.677743,1.386839,-0.025384,0.001051,0.075401,2.005362,-0.034127,9.523140,-0.048722,-1.724136,1,0,,38.990292,-76.940923,-7.683000,,,
2026-09-11T19:02:18.221,6.684680,1.359596,3.989820,12.588848,0.000000,-8.489400,2.920665,1.357830,0.022612,0.047605,0.340103,3.719442,1.402570,0.014906,0.082609,0.049088,2.141380,-0.371182,12.560063,-0.026186,-1.744958,1,0,,38.990292,-76.940923,-7.683000,,,
2026-09-11T19:02:18.254,6.718101,1.388762,4.035703,12.858904,0.000000,-4.372960,1.504459,1.388283,0.024428,0.051428,0.341758,3.762426,1.418655,0.050448,0.008652,0.052912,2.459704,-1.074319,7.490908,0.013558,-1.811486,1,0,,38.990292,-76.940923,-7.683000,,,
2026-09-11T19:02:18.287,6.751522,1.408359,4.082807,13.040364,0.000000,1.043986,-0.359170,1.408332,0.007956,0.016749,0.342897,3.806265,1.434852,0.052593,0.048557,0.018233,1.181799,-0.074629,13.241429,-0.030833,-1.809494,1,0,,38.990292,-76.940923,-7.683000,,,
2026-09-11T19:02:18.320,6.784945,1.437808,4.130925,13.313037,0.000000,1.337184,-0.460040,1.437762,-0.013552,-0.028530,0.342700,3.851093,1.450751,-0.015402,0.056530,-0.027047,2.067830,-0.712453,8.788720,-0.016497,-1.844619,1,0,,38.990292,-76.940923,-7.683000,,,
2026-09-11T19:02:18.354,6.818411,1.476798,4.180532,13.674052,0.000000,3.368968,-1.159049,1.476495,-0.024687,-0.051973,0.341353,3.897247,1.466503,-0.025603,0.020794,-0.050489,2.088032,1.370283,10.668066,0.000350,-1.742132,1,0,,38.990292,-76.940923,-7.683000,,,
2026-09-11T19:02:18.387,6.851829,1.535373,4.232056,14.216418,0.000000,5.377406,-1.850025,1.534573,-0.037563,-0.079079,0.339163,3.945022,1.482313,-0.045617,-0.041292,-0.077596,3.487441,0.059330,5.923511,0.115035,-1.722862,1,0,,38.990292,-76.940923,-7.683000,,,
2026-09-11T19:02:18.421,6.885254,1.564638,4.285171,14.487392,0.000000,7.041148,-2.422413,1.563240,-0.044143,-0.092932,0.336289,3.994321,1.498178,0.032059,0.119296,-0.091448,1.573281,-1.282612,13.385293,0.115002,-1.789099,1,0,,38.990292,-76.940923,-7.683000,,,
2026-09-11T19:02:18.454,6.918664,1.603684,4.337950,14.848923,0.000000,8.427485,-2.899364,1.601631,-0.046751,-0.098423,0.333092,4.044757,1.514109,0.057779,0.079325,-0.096940,1.874639,0.887306,9.668573,0.148454,-1.713405,1,0,,38.990292,-76.940923,-7.683000,,,
2026-09-11T19:02:18.488,6.952089,1.623572,4.392476,15.033078,0.000000,8.469371,-2.913774,1.621473,-0.071658,-0.150860,0.328926,4.096340,1.529743,0.130142,-0.093466,-0.149376,-4.940688,7.216518,3.720545,-0.246665,-1.223311,1,0,,38.990292,-76.940923,-7.683000,,,
2026-09-11T19:02:18.521,6.985510,1.663376,4.448050,15.401626,0.000000,8.128795,-2.796604,1.661395,-0.048594,-0.102304,0.324695,4.148942,1.545450,0.081409,-0.143670,-0.100820,3.260613,0.581730,5.592929,-0.092114,-1.172840,1,0,,38.990292,-76.940923,-7.683000,,,
2026-09-11T19:02:18.554,7.018923,1.683253,4.504507,15.585672,0.000000,8.001765,-2.752901,1.681310,-0.043601,-0.091791,0.321453,4.202386,1.561718,0.185979,-0.148621,-0.090308,4.394164,1.568279,15.072723,0.143653,-1.060136,1,0,,38.990292,-76.940923,-7.683000,,,
2026-09-11T19:02:18.588,7.052331,1.732307,4.562243,16.039883,0.000000,8.025111,-2.760933,1.730297,-0.066646,-0.140308,0.317576,4.257068,1.577868,0.001917,0.001336,-0.138824,0.259876,0.439338,18.924285,0.115059,-1.015994,1,0,,38.990292,-76.940923,-7.683000,,,
2026-09-11T19:02:18.621,7.085756,1.693862,4.619378,15.683908,0.000000,10.315074,-3.548764,1.690614,-0.057731,-0.121539,0.313200,4.312064,1.593627,0.060083,0.061254,-0.120056,1.997222,-0.821503,5.677658,0.208293,-1.056323,1,0,,38.990292,-76.940923,-7.683000,,,
2026-09-11T19:02:18.655,7.119179,1.674502,4.675136,15.504649,0.000000,13.694056,-4.711258,1.668844,-0.055820,-0.117515,0.309205,4.366091,1.609012,0.043638,-0.004950,-0.116032,0.135528,1.545920,12.876426,0.186879,-0.943615,1,0,,38.990292,-76.940923,-7.683000,,,
2026-09-11T19:02:18.688,7.152604,1.606263,4.728858,14.872808,0.000000,13.571147,-4.668973,1.600933,-0.041326,-0.087002,0.305787,4.418664,1.624007,-0.026046,-0.059763,-0.085519,-1.151987,-2.211792,8.726938,0.085035,-1.078996,1,0,,38.990292,-76.940923,-7.683000,,,
2026-09-11T19:02:18.721,7.186024,1.538204,4.780022,14.242633,0.000000,13.575267,-4.670390,1.533097,-0.060384,-0.127124,0.302209,4.469139,1.638063,-0.045568,-0.094243,-0.125640,-0.262818,3.019958,7.581227,0.043902,-0.870754,1,0,,38.990292,-76.940923,-7.683000,,,
2026-09-11T19:02:18.755,7.219438,1.460803,4.829444,13.525952,0.000000,13.046550,-4.488492,1.456323,-0.050482,-0.106278,0.298309,4.517397,1.651068,-0.019264,-0.095723,-0.104794,-0.811010,-0.618702,9.692108,-0.032353,-0.902841,1,0,,38.990292,-76.940923,-7.683000,,,
2026-09-11T19:02:18.789,7.252865,1.393393,4.875836,12.901783,0.000000,11.568202,-3.979886,1.390032,-0.031609,-0.066544,0.295421,4.563290,1.663674,0.014827,-0.026528,-0.065061,0.233104,-0.644787,8.731939,-0.039902,-0.940302,1,0,,38.990292,-76.940923,-7.683000,,,
2026-09-11T19:02:18.822,7.286278,1.364691,4.921187,12.636029,0.000000,10.020503,-3.447421,1.362222,-0.027924,-0.058787,0.293327,4.607580,1.676063,-0.044424,-0.031961,-0.057304,0.355393,2.026740,8.977694,-0.038158,-0.805318,1,0,,38.990292,-76.940923,-7.683000,,,
2026-09-11T19:02:18.855,7.319691,1.355372,4.966019,12.549738,0.000000,8.286723,-2.850937,1.353694,-0.025085,-0.052810,0.291463,4.651284,1.688294,-0.074391,-0.038068,-0.051326,1.056078,-1.273982,10.736026,0.004583,-0.885907,1,0,,38.990292,-76.940923,-7.683000,,,
2026-09-11T19:02:18.889,7.353118,1.326556,5.010247,12.282927,0.000000,4.952372,-1.703798,1.325970,-0.025862,-0.054446,0.289670,4.694437,1.700310,-0.078835,0.028870,-0.052963,2.274260,-2.162170,6.531327,0.115077,-1.023070,1,1,7.358333,38.990296,-76.940938,-7.600000,-4.537970,1.132520,3.127636
2026-09-11T19:02:18.922,7.386535,1.327169,5.055026,12.288604,0.000000,4.332332,-1.490481,1.326720,-0.016689,-0.035134,0.288173,4.737125,1.712257,-0.089023,0.029095,-0.033651,0.645768,1.599563,13.216030,0.103889,-0.916954,1,0,,38.990296,-76.940938,-7.600000,,,
2026-09-11T19:02:18.955,7.419948,1.346973,5.099305,12.471969,0.000000,2.653483,-0.912896,1.346802,-0.012930,-0.027221,0.287131,4.780095,1.724454,-0.125244,-0.033520,-0.025738,1.241718,-1.575046,8.485302,0.115801,-1.018032,1,0,,38.990296,-76.940938,-7.600000,,,
2026-09-11T19:02:18.989,7.453371,1.357490,5.144233,12.569356,0.000000,2.147426,-0.738793,1.357378,-0.002424,-0.005102,0.286591,4.823512,1.736994,-0.062552,-0.005325,-0.003619,2.459312,-0.807774,8.869134,0.192251,-1.070297,1,0,,38.990296,-76.940938,-7.600000,,,
2026-09-11T19:02:19.022,7.486784,1.406260,5.191107,13.020929,0.000000,0.696544,-0.239637,1.406248,-0.002813,-0.005921,0.286407,4.867825,1.749957,-0.014822,-0.301851,-0.004438,1.144730,1.417551,9.283073,0.168712,-0.977923,1,0,,38.990296,-76.940938,-7.600000,,,
2026-09-11T19:02:19.056,7.520198,1.416553,5.237809,13.116232,0.000000,-1.535741,0.528351,1.416493,0.018977,0.039952,0.286976,4.912984,1.763552,0.099671,0.022820,0.041436,5.195269,1.399605,13.742157,0.399998,-0.891927,1,0,,38.990296,-76.940938,-7.600000,,,
2026-09-11T19:02:19.089,7.553624,1.455820,5.286324,13.479810,0.000000,-1.900350,0.653790,1.455725,0.008724,0.018367,0.287950,4.958887,1.777607,0.021669,0.024050,0.019851,3.126850,-0.461109,12.163188,0.491971,-0.925338,1,0,,38.990296,-76.940938,-7.600000,,,
2026-09-11T19:02:19.122,7.587036,1.495070,5.336064,13.843242,0.000000,-0.868322,0.298734,1.495050,0.013445,0.028305,0.288730,5.006041,1.791980,-0.055525,0.064480,0.029788,3.163429,2.647011,9.565014,0.584131,-0.758317,1,0,,38.990296,-76.940938,-7.600000,,,
2026-09-11T19:02:19.156,7.620458,1.563220,5.388241,14.474260,0.000000,0.156840,-0.053959,1.563219,0.005171,0.010886,0.289385,5.054939,1.806846,-0.112304,0.030529,0.012369,2.321921,0.193289,13.759221,0.617544,-0.750232,1,0,,38.990296,-76.940938,-7.600000,,,
2026-09-11T19:02:19.190,7.653883,1.631277,5.442521,15.104416,0.000000,0.288676,-0.099315,1.631274,0.000578,0.001218,0.289587,5.106078,1.822178,-0.048898,0.028618,0.002701,4.224215,-0.040109,7.870131,0.773779,-0.756366,1,0,,38.990296,-76.940938,-7.600000,,,
2026-09-11T19:02:19.223,7.687298,1.670398,5.498694,15.466644,0.000000,0.601787,-0.207037,1.670387,-0.010408,-0.021911,0.289241,5.158993,1.837764,0.079379,0.134533,-0.020428,0.618898,3.474300,14.129029,0.693271,-0.532570,1,0,,38.990296,-76.940938,-7.600000,,,
2026-09-11T19:02:19.257,7.720715,1.709660,5.556601,15.830187,0.000000,0.706843,-0.243180,1.709645,-0.006216,-0.013086,0.288657,5.213206,1.853590,-0.016045,-0.033848,-0.011602,1.493651,0.140235,5.846529,0.670670,-0.527870,1,0,,38.990296,-76.940938,-7.600000,,,
2026-09-11T19:02:19.290,7.754142,1.739011,5.614933,16.101949,0.000000,0.611400,-0.210344,1.738999,-0.006059,-0.012756,0.288225,5.268523,1.869789,0.115560,-0.022126,-0.011272,0.972035,1.794421,13.378919,0.619553,-0.416174,1,0,,38.990296,-76.940938,-7.600000,,,
2026-09-11T19:02:19.323,7.787554,1.748935,5.673367,16.193843,0.000000,0.480250,-0.165224,1.748928,0.001654,0.003483,0.288070,5.324411,1.886277,0.189846,-0.029678,0.004966,1.526503,2.020562,10.909996,0.612115,-0.292962,1,0,,38.990296,-76.940938,-7.600000,,,
2026-09-11T19:02:19.357,7.820969,1.739648,5.731521,16.107850,0.000000,0.640925,-0.220502,1.739635,-0.003414,-0.007187,0.288008,5.380303,1.902806,0.081747,0.064329,-0.005704,1.612998,-0.041580,7.264766,0.619887,-0.303317,1,0,,38.990296,-76.940938,-7.600000,,,
2026-09-11T19:02:19.390,7.854398,1.730366,5.789650,16.021912,0.000000,1.084498,-0.373107,1.730330,-0.010434,-0.021967,0.287521,5.435983,1.919045,0.106432,0.096611,-0.020483,1.175719,0.999298,6.335979,0.612337,-0.244540,1,0,,38.990296,-76.940938,-7.600000,,,
2026-09-11T19:02:19.423,7.887816,1.759893,5.848466,16.295305,0.000000,2.371959,-0.816041,1.759714,-0.023784,-0.050071,0.286317,5.492076,1.934999,0.088019,0.007742,-0.048588,2.004773,0.505435,12.337452,0.674441,-0.215146,1,0,,38.990296,-76.940938,-7.600000,,,
2026-09-11T19:02:19.457,7.921229,1.760247,5.907435,16.298587,0.000000,4.598063,-1.581903,1.759577,-0.071952,-0.151478,0.282950,5.548953,1.949974,0.065763,-0.025322,-0.149995,-4.358173,7.530331,4.706996,0.336642,0.279984,1,0,,38.990296,-76.940938,-7.600000,,,
2026-09-11T19:02:19.490,7.954650,1.799659,5.967974,16.663506,0.000000,6.452693,-2.219963,1.798308,-0.049451,-0.104108,0.278679,5.606641,1.964500,-0.005278,0.057938,-0.102625,3.034276,3.864114,6.589186,0.495675,0.527381,1,0,,38.990296,-76.940938,-7.600000,,,
2026-09-11T19:02:19.523,7.988063,1.819482,6.028514,16.847057,0.000000,8.401393,-2.890387,1.817167,-0.054617,-0.114982,0.275019,5.665219,1.979337,-0.053896,-0.119645,-0.113499,1.855124,-1.624079,5.270878,0.588851,0.418239,1,0,,38.990296,-76.940938,-7.600000,,,
2026-09-11T19:02:19.558,8.021477,1.780728,6.089930,16.488226,0.000000,9.614695,-3.307808,1.777762,-0.041190,-0.086716,0.271649,5.723482,1.994010,-0.080404,0.252488,-0.085233,-2.657112,-3.191770,9.291213,0.397647,0.205323,1,0,,38.990296,-76.940938,-7.600000,,,
2026-09-11T19:02:19.590,8.054905,1.761222,6.147323,16.307608,0.000000,10.210017,-3.512621,1.757913,-0.058988,-0.124185,0.268124,5.780883,2.008152,-0.053080,-0.057163,-0.122701,1.554942,1.088440,8.651427,0.485314,0.275912,1,0,,38.990296,-76.940938,-7.600000,,,
2026-09-11T19:02:19.624,8.088325,1.713144,6.204291,15.862448,0.000000,10.264262,-3.531283,1.709892,-0.052281,-0.110065,0.264210,5.837277,2.021602,0.112499,0.019429,-0.108582,-0.995571,5.050425,9.590119,0.407292,0.600197,1,0,,38.990296,-76.940938,-7.600000,,,
2026-09-11T19:02:19.658,8.121753,1.665176,6.259960,15.418296,0.000000,10.361766,-3.564828,1.661954,-0.038995,-0.082094,0.260998,5.892100,2.034760,0.006662,-0.011556,-0.080610,-0.914764,-3.548242,8.562480,0.339727,0.360928,1,0,,38.990296,-76.940938,-7.600000,,,
2026-09-11T19:02:19.691,8.155177,1.607548,6.313430,14.884707,0.000000,10.021876,-3.447893,1.604639,-0.028139,-0.059241,0.258636,5.945146,2.047701,-0.006606,0.059775,-0.057757,-1.163461,-2.066653,13.998601,0.259231,0.217590,1,0,,38.990296,-76.940938,-7.600000,,,
2026-09-11T19:02:19.724,8.188588,1.549739,6.364807,14.349434,0.000000,10.109767,-3.478131,1.546884,-0.037422,-0.078783,0.256330,5.996336,2.060050,0.014976,-0.006612,-0.077299,-0.585849,1.084419,13.022643,0.220879,0.281509,1,0,,38.990296,-76.940938,-7.600000,,,
2026-09-11T19:02:19.758,8.222001,1.492042,6.414353,13.815201,0.000000,10.065822,-3.463012,1.489317,-0.038210,-0.080442,0.253670,6.045739,2.071624,-0.022693,0.052209,-0.078959,-0.508769,0.076786,12.461114,0.194155,0.279391,1,0,,38.990296,-76.940938,-7.600000,,,
2026-09-11T19:02:19.791,8.255426,1.424523,6.462612,13.190029,0.000000,10.176371,-3.501045,1.421864,-0.041139,-0.086609,0.250878,6.093182,2.082485,-0.055576,-0.033333,-0.085125,-0.741187,1.738817,9.510195,0.152564,0.385096,1,0,,38.990296,-76.940938,-7.600000,,,
2026-09-11T19:02:19.824,8.288840,1.376527,6.509193,12.745620,0.000000,8.222178,-2.828731,1.374850,-0.024452,-0.051479,0.248571,6.138729,2.092972,-0.047411,-0.010588,-0.049995,0.646847,-0.848766,7.428832,0.195903,0.318765,1,0,,38.990296,-76.940938,-7.600000,,,
2026-09-11T19:02:19.858,8.322253,1.377371,6.555116,12.753436,0.000000,2.886256,-0.992978,1.377164,-0.013376,-0.028160,0.247241,6.183456,2.103641,-0.031236,-0.025737,-0.026676,0.988608,1.779024,5.762290,0.254629,0.421143,1,1,8.319469,38.990300,-76.940955,-7.439000,-6.022922,1.640681,2.807624
2026-09-11T19:02:19.891,8.355678,1.339380,6.599383,12.401670,0.000000,2.645930,-0.910297,1.339211,-0.015050,-0.031685,0.246240,6.227594,2.114268,-0.016881,-0.047550,-0.030201,-0.508769,1.852574,9.431055,0.207240,0.527424,1,0,,38.990300,-76.940955,-7.439000,,,
2026-09-11T19:02:19.924,8.389090,1.330198,6.643617,12.316646,0.000000,1.891993,-0.650915,1.330112,0.003767,0.007931,0.245844,6.270891,2.124947,0.053085,-0.019520,0.009415,1.707240,-1.019107,10.412701,0.292482,0.443231,1,0,,38.990300,-76.940955,-7.439000,,,
2026-09-11T19:02:19.958,8.422501,1.330653,6.687735,12.320861,0.000000,0.827006,-0.284520,1.330637,0.010388,0.021870,0.246341,6.313943,2.136005,0.049015,-0.006071,0.023353,1.344198,-0.248206,8.427149,0.341300,0.408657,1,0,,38.990300,-76.940955,-7.439000,,,
2026-09-11T19:02:19.991,8.455925,1.311930,6.731156,12.147496,0.000000,0.020198,-0.006949,1.311930,0.006703,0.014111,0.246943,6.356699,2.147064,0.063514,-0.010584,0.015595,1.124431,-0.976644,18.299503,0.364647,0.327987,1,0,,38.990300,-76.940955,-7.439000,,,
2026-09-11T19:02:20.024,8.489335,1.292403,6.773942,11.966699,0.000000,-0.088292,0.030376,1.292403,0.014460,0.030442,0.247687,6.398794,2.158057,0.041934,0.089713,0.031925,2.889726,-1.599955,2.385566,0.489897,0.206570,1,0,,38.990300,-76.940955,-7.439000,,,
2026-09-11T19:02:20.058,8.522749,1.292168,6.817769,11.964519,0.000000,0.309962,-0.106638,1.292166,-0.003935,-0.008285,0.248057,6.440611,2.168821,-0.003082,0.053451,-0.006801,2.890314,0.857886,12.781792,0.601309,0.248765,1,0,,38.990300,-76.940955,-7.439000,,,
2026-09-11T19:02:20.092,8.556170,1.321591,6.861874,12.236955,0.000000,0.566768,-0.194989,1.321583,0.011680,0.024589,0.248330,6.482918,2.179676,-0.088153,0.021765,0.026072,1.814230,1.531799,6.865734,0.632919,0.331324,1,0,,38.990300,-76.940955,-7.439000,,,
2026-09-11T19:02:20.125,8.589580,1.322030,6.906057,12.241019,0.000000,0.828380,-0.284993,1.322014,-0.004483,-0.009438,0.248583,6.525694,2.190652,-0.037438,0.155550,-0.007955,0.677149,-2.326922,12.488867,0.584119,0.166190,1,0,,38.990300,-76.940955,-7.439000,,,
2026-09-11T19:02:20.160,8.623003,1.351564,6.952729,12.514479,0.000000,1.211528,-0.416810,1.351528,-0.002849,-0.005999,0.248325,6.569032,2.201520,-0.083701,0.024282,-0.004515,1.429319,0.000785,10.282861,0.577227,0.153200,1,0,,38.990300,-76.940955,-7.439000,,,
2026-09-11T19:02:20.192,8.656426,1.400357,6.999275,12.966269,0.000000,1.112651,-0.382793,1.400326,-0.001506,-0.003171,0.248172,6.613627,2.212749,-0.050805,-0.041038,-0.001688,4.109967,-0.894661,9.110378,0.738461,0.082163,1,0,,38.990300,-76.940955,-7.439000,,,
2026-09-11T19:02:20.225,8.689837,1.420000,7.046734,13.148151,0.000000,1.014460,-0.349012,1.419974,-0.000581,-0.001223,0.248098,6.659308,2.224286,0.062956,0.124396,0.000261,0.740010,0.163281,13.897396,0.675683,0.080210,1,0,,38.990300,-76.940955,-7.439000,,,
2026-09-11T19:02:20.259,8.723251,1.449443,7.095569,13.420770,0.000000,0.813273,-0.279796,1.449426,-0.011673,-0.024575,0.247667,6.705831,2.235850,-0.021528,-0.006473,-0.023091,1.251329,1.772356,12.893784,0.641245,0.184585,1,0,,38.990300,-76.940955,-7.439000,,,
2026-09-11T19:02:20.292,8.756677,1.488668,7.145433,13.783965,0.000000,1.014460,-0.349012,1.488641,-0.013632,-0.028698,0.246777,6.753545,2.247456,-0.004858,0.014121,-0.027215,0.314401,4.200482,13.123161,0.540540,0.445488,1,0,,38.990300,-76.940955,-7.439000,,,
2026-09-11T19:02:20.325,8.790089,1.528192,7.196604,14.149928,0.000000,1.352290,-0.465237,1.528142,-0.015315,-0.032243,0.245759,6.802542,2.259273,0.088801,0.029126,-0.030759,2.446465,-1.945639,10.764956,0.579543,0.306122,1,0,,38.990300,-76.940955,-7.439000,,,
2026-09-11T19:02:20.359,8.823503,1.576986,7.249119,14.601721,0.000000,1.330317,-0.457678,1.576936,0.002542,0.005351,0.245309,6.852913,2.271675,0.029075,0.033554,0.006835,1.668405,-6.139649,8.948274,0.569442,-0.106788,1,0,,38.990300,-76.940955,-7.439000,,,
2026-09-11T19:02:20.392,8.856927,1.587142,7.302871,14.695762,0.000000,1.142177,-0.392951,1.587105,-0.003323,-0.006996,0.245282,6.904212,2.284504,0.050793,-0.076027,-0.005512,3.055458,-3.458707,4.110948,0.650328,-0.340452,1,0,,38.990300,-76.940955,-7.439000,,,
2026-09-11T19:02:20.426,8.890345,1.646080,7.357510,15.241485,0.000000,1.274012,-0.438307,1.646032,-0.002537,-0.005342,0.245076,6.956643,2.297521,-0.046125,-0.043672,-0.003858,0.636255,-1.071965,8.710267,0.579277,-0.417192,1,0,,38.990300,-76.940955,-7.439000,,,
2026-09-11T19:02:20.459,8.923759,1.675603,7.413557,15.514840,0.000000,2.805232,-0.965103,1.675365,-0.027902,-0.058742,0.244005,7.010605,2.310463,0.051385,0.111231,-0.057258,2.310349,4.799669,10.351900,0.626614,-0.107396,1,0,,38.990300,-76.940955,-7.439000,,,
2026-09-11T19:02:20.493,8.957180,1.675617,7.469478,15.514969,0.000000,4.102305,-1.411344,1.675108,-0.047453,-0.099902,0.241354,7.065255,2.322694,0.234819,-0.004847,-0.098418,-2.465980,11.035914,7.273690,0.371632,0.607169,1,0,,38.990300,-76.940955,-7.439000,,,
2026-09-11T19:02:20.526,8.990600,1.724325,7.527243,15.965974,0.000000,4.532832,-1.559461,1.723686,-0.028841,-0.060718,0.238670,7.120723,2.334956,0.092789,-0.028088,-0.059234,0.898583,-2.928364,7.166504,0.352660,0.405953,1,0,,38.990300,-76.940955,-7.439000,,,
2026-09-11T19:02:20.560,9.024011,1.744010,7.586129,16.148241,0.000000,4.868602,-1.674978,1.743265,-0.033408,-0.070334,0.236481,7.177259,2.347575,0.015460,-0.044510,-0.068850,0.777863,1.462466,7.625553,0.339247,0.492303,1,0,,38.990300,-76.940955,-7.439000,,,
2026-09-11T19:02:20.593,9.057435,1.754194,7.644990,16.242533,0.000000,4.758738,-1.637181,1.753478,-0.040102,-0.084425,0.233895,7.234374,2.359998,-0.034094,-0.041954,-0.082942,-3.542554,0.315676,11.378362,0.057130,0.505140,1,0,,38.990300,-76.940955,-7.439000,,,
2026-09-11T19:02:20.627,9.090857,1.744760,7.702920,16.155184,0.000000,5.352687,-1.841521,1.743859,-0.039131,-0.082381,0.231107,7.291550,2.372176,0.075077,0.015035,-0.080897,1.302715,2.419595,11.476428,0.104951,0.653743,1,0,,38.990300,-76.940955,-7.439000,,,
2026-09-11T19:02:20.660,9.124279,1.774153,7.762739,16.427346,0.000000,5.621852,-1.934123,1.773143,-0.044391,-0.093455,0.228169,7.349097,2.384194,0.046479,-0.159332,-0.091972,1.263097,4.620403,7.845909,0.162911,0.944627,1,0,,38.990300,-76.940955,-7.439000,,,
2026-09-11T19:02:20.693,9.157700,1.726072,7.820058,15.982151,0.000000,5.145320,-1.770179,1.725249,-0.024805,-0.052222,0.225734,7.406320,2.396222,0.043142,-0.087996,-0.050738,0.261543,-1.944561,9.580313,0.167784,0.802368,1,0,,38.990300,-76.940955,-7.439000,,,
2026-09-11T19:02:20.727,9.191111,1.707227,7.876964,15.807655,0.000000,4.304179,-1.480796,1.706657,-0.009590,-0.020190,0.224525,7.462332,2.408461,-0.035572,-0.011074,-0.018707,-0.640570,2.401747,11.488098,0.120921,0.939429,1,0,,38.990300,-76.940955,-7.439000,,,
2026-09-11T19:02:20.760,9.224520,1.639914,7.931627,15.184386,0.000000,3.291377,-1.132354,1.639593,-0.017754,-0.037377,0.223563,7.516935,2.420435,-0.049729,0.029501,-0.035893,-0.475819,0.881324,12.679901,0.093441,0.978307,1,0,,38.990300,-76.940955,-7.439000,,,
2026-09-11T19:02:20.794,9.257941,1.553068,7.983031,14.380263,0.000000,3.078517,-1.059123,1.552803,-0.015341,-0.032297,0.222399,7.569082,2.431693,-0.042181,-0.003641,-0.030814,-0.463756,5.274997,12.724913,0.075848,1.300545,1,0,,38.990300,-76.940955,-7.439000,,,
2026-09-11T19:02:20.827,9.291350,1.514997,8.033249,14.027752,0.000000,2.677516,-0.921164,1.514801,-0.006586,-0.013865,0.221628,7.619148,2.442620,-0.026864,-0.006468,-0.012381,0.092084,3.000541,4.742398,0.098954,1.470025,1,0,,38.990300,-76.940955,-7.439000,,,
2026-09-11T19:02:20.860,9.324762,1.457221,8.082088,13.492787,0.000000,2.370585,-0.815568,1.457073,0.002632,0.005542,0.221489,7.667597,2.453465,-0.056934,0.096402,0.007025,-1.464427,-1.791773,11.198410,0.021307,1.325475,1,0,,38.990300,-76.940955,-7.439000,,,
2026-09-11T19:02:20.894,9.358183,1.389787,8.128098,12.868402,0.000000,2.345179,-0.806828,1.389650,0.005532,0.011647,0.221776,7.713974,2.464055,-0.005944,0.083642,0.013131,-1.517775,-2.028408,15.202956,-0.056480,1.166653,1,1,9.368568,38.990305,-76.940972,-7.361000,-7.422456,2.187760,2.807624
2026-09-11T19:02:20.927,9.391602,1.321990,8.171978,12.240650,0.000000,2.189311,-0.753203,1.321876,0.013843,0.029143,0.222457,7.758097,2.474352,-0.016459,-0.001135,0.030626,-1.065493,1.744015,10.281978,-0.103364,1.252427,1,0,,38.990305,-76.940972,-7.361000,,,
2026-09-11T19:02:20.960,9.425019,1.283200,8.214682,11.881486,0.000000,2.090434,-0.719186,1.283099,-0.007305,-0.015378,0.222687,7.800525,2.484066,0.022607,-0.030075,-0.013894,-1.558081,-1.316641,9.487738,-0.186057,1.142848,1,0,,38.990305,-76.940972,-7.361000,,,
2026-09-11T19:02:20.994,9.458445,1.244391,8.256216,11.522138,0.000000,1.801356,-0.619733,1.244318,0.009778,0.020585,0.222774,7.841713,2.493437,0.079246,0.016438,0.022069,0.221238,0.759231,4.219507,-0.158497,1.165960,1,0,,38.990305,-76.940972,-7.361000,,,
2026-09-11T19:02:21.027,9.491865,1.205400,8.296413,11.161107,0.000000,1.673640,-0.575794,1.205339,0.008283,0.017437,0.223410,7.881565,2.502788,0.109421,0.088739,0.018921,-3.005934,-0.794241,1.669778,-0.353323,1.088524,1,0,,38.990305,-76.940972,-7.361000,,,
2026-09-11T19:02:21.060,9.525276,1.176708,8.335430,10.895445,0.000000,1.695613,-0.583353,1.176647,-0.003778,-0.007953,0.223568,7.920352,2.511680,-0.029623,-0.023153,-0.006470,1.157871,-0.399719,9.782232,-0.287575,1.039472,1,0,,38.990305,-76.940972,-7.361000,,,
2026-09-11T19:02:21.094,9.558696,1.167448,8.374413,10.809705,0.000000,1.742991,-0.599653,1.167384,-0.005019,-0.010565,0.223259,7.958580,2.520215,-0.036079,0.035020,-0.009082,0.047170,-2.922970,9.983562,-0.304724,0.827785,1,0,,38.990305,-76.940972,-7.361000,,,
2026-09-11T19:02:21.128,9.592120,1.167810,8.413615,10.813056,0.000000,0.980128,-0.337200,1.167790,0.002321,0.004886,0.223164,7.996647,2.528810,0.041599,0.111600,0.006369,0.614289,-0.714120,12.780026,-0.296776,0.760280,1,0,,38.990305,-76.940972,-7.361000,,,
2026-09-11T19:02:21.161,9.625542,1.148709,8.451861,10.636193,0.000000,-0.752278,0.258811,1.148697,0.014496,0.030519,0.223756,8.034333,2.537662,0.083620,0.053601,0.032002,0.091888,-5.274213,11.239794,-0.337279,0.396442,1,0,,38.990305,-76.940972,-7.361000,,,
2026-09-11T19:02:21.194,9.658966,1.139283,8.490230,10.548915,0.000000,-2.188054,0.752771,1.139184,0.017763,0.037396,0.224891,8.071490,2.546693,0.010114,0.037033,0.038880,0.833467,3.908538,9.982189,-0.344288,0.630583,1,0,,38.990305,-76.940972,-7.361000,,,
2026-09-11T19:02:21.228,9.692388,1.149358,8.528693,10.642201,0.000000,-3.029882,1.042390,1.149167,0.027638,0.058185,0.226488,8.108590,2.555990,-0.030176,0.044277,0.059668,1.788537,-5.916352,8.490892,-0.301160,0.224594,1,0,,38.990305,-76.940972,-7.361000,,,
2026-09-11T19:02:21.261,9.725805,1.149710,8.567339,10.645461,0.000000,-3.205663,1.102866,1.149497,0.018427,0.038794,0.228108,8.145837,2.565395,0.016181,0.053935,0.040277,0.821895,-0.141020,12.083754,-0.332600,0.198372,1,0,,38.990305,-76.940972,-7.361000,,,
2026-09-11T19:02:21.295,9.759229,1.188881,8.607170,11.008159,0.000000,-2.340489,0.805214,1.188764,0.006935,0.014600,0.229000,8.183801,2.574662,0.004745,-0.003664,0.016083,2.663682,0.042463,10.137232,-0.253518,0.186075,1,0,,38.990305,-76.940972,-7.361000,,,
2026-09-11T19:02:21.329,9.792655,1.209041,8.647860,11.194822,0.000000,-0.744725,0.256213,1.209029,0.003437,0.007236,0.229365,8.222788,2.583935,-0.048330,-0.009202,0.008720,2.021151,-1.095991,8.296524,-0.223308,0.100781,1,0,,38.990305,-76.940972,-7.361000,,,
2026-09-11T19:02:21.362,9.826066,1.248386,8.689015,11.559134,0.000000,0.357341,-0.122938,1.248384,0.012047,0.025362,0.229910,8.262705,2.593531,-0.080737,0.093771,0.026845,1.167972,-3.741433,9.920996,-0.252601,-0.156163,1,0,,38.990305,-76.940972,-7.361000,,,
2026-09-11T19:02:21.395,9.859490,1.267901,8.731778,11.739825,0.000000,0.649852,-0.223573,1.267891,0.002335,0.004916,0.230416,8.303593,2.603359,-0.060623,0.056296,0.006400,2.145695,-0.543092,11.079848,-0.222481,-0.201707,1,0,,38.990305,-76.940972,-7.361000,,,
2026-09-11T19:02:21.429,9.892913,1.336233,8.777010,12.372526,0.000000,1.522578,-0.523823,1.336177,-0.008447,-0.017782,0.230201,8.345985,2.613194,-0.044310,-0.015454,-0.016299,4.115361,-2.941211,10.289137,-0.070442,-0.399995,1,0,,38.990305,-76.940972,-7.361000,,,
2026-09-11T19:02:21.462,9.926326,1.394745,8.823973,12.914305,0.000000,2.055415,-0.707138,1.394639,-0.011891,-0.025034,0.229486,8.390485,2.623257,-0.030340,0.091972,-0.023551,2.877075,-0.470229,12.433656,-0.005566,-0.435445,1,0,,38.990305,-76.940972,-7.361000,,,
2026-09-11T19:02:21.495,9.959748,1.443352,8.872309,13.364374,0.000000,2.485942,-0.855255,1.443192,-0.022568,-0.047512,0.228273,8.436801,2.633455,-0.012259,0.011906,-0.046028,2.101369,3.987874,10.276977,0.002531,-0.179846,1,0,,38.990305,-76.940972,-7.361000,,,
2026-09-11T19:02:21.529,9.993168,1.492061,8.922484,13.815377,0.000000,2.987193,-1.027704,1.491821,-0.027506,-0.057907,0.226512,8.484772,2.643695,0.002411,0.034617,-0.056423,2.731446,-0.484350,9.336029,0.052030,-0.215327,1,0,,38.990305,-76.940972,-7.361000,,,
2026-09-11T19:02:21.563,10.026581,1.521403,8.973169,14.087064,0.000000,3.432139,-1.180782,1.521080,-0.012064,-0.025398,0.225120,8.533977,2.654321,0.075527,0.044189,-0.023915,1.767649,0.847491,6.828371,0.044014,-0.167332,1,0,,38.990305,-76.940972,-7.361000,,,
2026-09-11T19:02:21.596,10.060005,1.551034,9.024987,14.361425,0.000000,3.913478,-1.346380,1.550606,-0.032873,-0.069206,0.223539,8.584193,2.665008,0.080341,0.068947,-0.067723,-2.000851,7.137770,16.789573,-0.201784,0.291729,1,0,,38.990305,-76.940972,-7.361000,,,
2026-09-11T19:02:21.630,10.093426,1.570756,9.077450,14.544041,0.000000,3.570155,-1.228264,1.570395,-0.015831,-0.033329,0.221826,8.635237,2.675731,0.070910,0.051899,-0.031846,2.284165,-4.453200,9.086646,-0.155841,-0.008037,1,0,,38.990305,-76.940972,-7.361000,,,
2026-09-11T19:02:21.663,10.126849,1.600326,9.131287,14.817838,0.000000,3.568782,-1.227792,1.599959,-0.029848,-0.062838,0.220219,8.687097,2.686601,-0.069693,0.062874,-0.061354,2.154717,1.704690,4.520866,-0.104968,0.097165,1,0,,38.990305,-76.940972,-7.361000,,,
2026-09-11T19:02:21.696,10.160272,1.629797,9.185988,15.090714,0.000000,3.818034,-1.313544,1.629369,-0.032194,-0.067776,0.218036,8.739999,2.697320,-0.038331,0.103688,-0.066292,3.466553,0.716376,10.498509,0.046365,0.137877,1,0,,38.990305,-76.940972,-7.361000,,,
2026-09-11T19:02:21.730,10.193693,1.678585,9.242413,15.542452,0.000000,3.325709,-1.144166,1.678250,-0.025992,-0.054721,0.215989,8.794185,2.708270,0.023432,-0.030686,-0.053237,1.404705,-1.935735,8.061066,0.074678,0.005295,1,0,,38.990305,-76.940972,-7.361000,,,
2026-09-11T19:02:21.763,10.227106,1.727832,9.300296,15.998442,0.000000,3.013286,-1.036681,1.727549,-0.036032,-0.075856,0.213807,8.849995,2.719390,0.017405,-0.035320,-0.074373,0.526225,1.871795,8.633677,0.056870,0.123103,1,0,,38.990305,-76.940972,-7.361000,,,
2026-09-11T19:02:21.796,10.260525,1.709279,9.357641,15.826657,0.000000,2.529887,-0.870374,1.709082,-0.003823,-0.008049,0.212405,8.906263,2.730885,-0.112602,-0.076245,-0.006566,0.528284,-1.971431,6.366673,0.048795,-0.016672,1,0,,38.990305,-76.940972,-7.361000,,,
2026-09-11T19:02:21.830,10.293945,1.700257,9.414716,15.743120,0.000000,2.628077,-0.904155,1.700045,-0.015961,-0.033602,0.211709,8.962022,2.742552,-0.132182,-0.114696,-0.032118,-0.957816,1.929164,10.198622,-0.048107,0.100332,1,0,,38.990305,-76.940972,-7.361000,,,
2026-09-11T19:02:21.863,10.327359,1.661909,9.470169,15.388042,0.000000,2.529887,-0.870374,1.661717,-0.015419,-0.032462,0.210606,9.017050,2.753811,-0.106357,-0.060950,-0.030978,0.380008,-1.158362,8.410477,-0.049314,0.016041,1,1,10.319181,38.990310,-76.940987,-7.264000,-8.731098,2.679242,3.128217
2026-09-11T19:02:21.897,10.360781,1.594400,9.523092,14.762961,0.000000,2.497615,-0.859271,1.594221,-0.000522,-0.001100,0.210045,9.070316,2.764910,-0.108159,0.009591,0.000384,0.614387,-1.412354,9.246985,-0.030765,-0.087148,1,0,,38.990310,-76.940987,-7.264000,,,
2026-09-11T19:02:21.930,10.394206,1.536070,9.574579,14.222868,0.000000,2.418651,-0.832105,1.535908,-0.001132,-0.002382,0.209987,9.121485,2.775789,-0.104732,-0.016038,-0.000899,-0.347450,1.038622,13.214657,-0.071743,-0.030447,1,0,,38.990310,-76.940987,-7.264000,,,
2026-09-11T19:02:21.963,10.427621,1.477293,9.623690,13.678634,0.000000,2.003917,-0.689421,1.477186,0.000063,0.000133,0.209949,9.170724,2.786264,-0.052354,-0.009894,0.001617,-0.835330,3.569228,9.125774,-0.139542,0.189103,1,0,,38.990310,-76.940987,-7.264000,,,
2026-09-11T19:02:21.997,10.461044,1.448486,9.672003,13.411909,0.000000,1.076945,-0.370509,1.448456,0.017592,0.037035,0.210570,9.218477,2.796757,0.001447,-0.034596,0.038519,-0.345488,0.125231,7.491692,-0.169740,0.179917,1,0,,38.990310,-76.940987,-7.264000,,,
2026-09-11T19:02:22.030,10.494460,1.400594,9.718411,12.968467,0.000000,-1.469136,0.505437,1.400540,0.019706,0.041487,0.211882,9.264889,2.807346,0.067795,0.014784,0.042970,0.448066,0.587516,7.045882,-0.146777,0.200461,1,0,,38.990310,-76.940987,-7.264000,,,
2026-09-11T19:02:22.064,10.527870,1.381612,9.764180,12.792701,0.000000,-4.028264,1.385871,1.381208,0.035825,0.075422,0.213835,9.310113,2.818069,0.127021,0.081604,0.076905,0.096988,-0.041286,8.997896,-0.151270,0.177111,1,0,,38.990310,-76.940987,-7.264000,,,
2026-09-11T19:02:22.097,10.561294,1.342986,9.808922,12.435058,0.000000,-7.138082,2.455762,1.341753,0.041825,0.088053,0.216567,9.354293,2.829053,0.106055,0.175240,0.089537,1.450011,0.304987,9.863823,-0.076054,0.175517,1,0,,38.990310,-76.940987,-7.264000,,,
2026-09-11T19:02:22.131,10.594713,1.314000,9.852737,12.166669,0.000000,-10.459386,3.598413,1.311410,0.034770,0.073199,0.219261,9.397301,2.839887,0.094723,0.157192,0.074683,0.980273,3.272381,5.371004,-0.044254,0.367420,1,0,,38.990310,-76.940987,-7.264000,,,
2026-09-11T19:02:22.164,10.628137,1.323921,9.897386,12.258525,0.000000,-10.458013,3.597940,1.321311,0.038378,0.080796,0.221835,9.439966,2.850705,0.045850,0.111864,0.082280,1.038622,-2.147951,11.628432,-0.022332,0.205679,1,0,,38.990310,-76.940987,-7.264000,,,
2026-09-11T19:02:22.198,10.661560,1.324379,9.941987,12.262773,0.000000,-10.754644,3.699992,1.321619,0.040785,0.085863,0.224620,9.482745,2.861773,-0.048098,0.100754,0.087347,1.537977,-0.617623,11.985099,0.017243,0.144357,1,0,,38.990310,-76.940987,-7.264000,,,
2026-09-11T19:02:22.231,10.694984,1.334603,9.986749,12.357433,0.000000,-10.745717,3.696921,1.331826,0.039208,0.082543,0.227435,9.525662,2.873014,-0.052736,-0.009132,0.084026,-0.258699,-0.879264,16.796928,-0.072943,0.067009,1,0,,38.990310,-76.940987,-7.264000,,,
2026-09-11T19:02:22.264,10.728394,1.344743,10.031718,12.451322,0.000000,-10.830861,3.726214,1.341900,0.044097,0.092837,0.230364,9.568845,2.884504,-0.087958,0.129316,0.094320,2.920322,-2.142655,8.848148,0.034342,-0.092128,1,0,,38.990310,-76.940987,-7.264000,,,
2026-09-11T19:02:22.298,10.761816,1.345482,10.076857,12.458170,0.000000,-10.298024,3.542898,1.342911,0.033065,0.069610,0.233079,9.612216,2.896063,-0.101509,0.111999,0.071094,1.997811,1.165717,10.312771,0.069865,-0.033438,1,0,,38.990310,-76.940987,-7.264000,,,
2026-09-11T19:02:22.331,10.795238,1.384725,10.123061,12.821532,0.000000,-9.849645,3.388639,1.382304,0.032500,0.068421,0.235386,9.656259,2.907699,-0.164186,0.107812,0.069905,2.859717,-2.964158,9.576880,0.152109,-0.242732,1,0,,38.990310,-76.940987,-7.264000,,,
2026-09-11T19:02:22.365,10.828651,1.423974,10.170586,13.184948,0.000000,-7.791082,2.680418,1.422416,0.025442,0.053562,0.237424,9.701586,2.919615,-0.087147,0.129764,0.055046,1.612704,-0.455617,9.109005,0.141574,-0.286168,1,0,,38.990310,-76.940987,-7.264000,,,
2026-09-11T19:02:22.398,10.862072,1.463223,10.219115,13.548364,0.000000,-4.113408,1.415163,1.462777,0.008844,0.018620,0.238630,9.748305,2.931541,-0.087608,0.152286,0.020103,1.383130,-2.210811,10.135565,0.106699,-0.439543,1,0,,38.990310,-76.940987,-7.264000,,,
2026-09-11T19:02:22.431,10.895494,1.502197,10.269503,13.909232,0.000000,-0.110265,0.037935,1.502197,0.010115,0.021294,0.239297,9.796370,2.943576,-0.049092,0.144118,0.022777,2.765573,0.673030,10.849293,0.154452,-0.404913,1,0,,38.990310,-76.940987,-7.264000,,,
2026-09-11T19:02:22.465,10.928906,1.570246,10.321940,14.539317,0.000000,0.157527,-0.054195,1.570245,-0.020122,-0.042362,0.238945,9.846276,2.955570,-0.004819,0.011004,-0.040879,4.399263,2.834710,17.503498,0.297726,-0.224461,1,0,,38.990310,-76.940987,-7.264000,,,
2026-09-11T19:02:22.498,10.962329,1.609153,10.375984,14.899562,0.000000,-0.204335,0.070299,1.609151,-0.004677,-0.009846,0.238072,9.898004,2.967721,0.142725,0.163311,-0.008362,3.637385,0.586830,15.689660,0.381818,-0.194694,1,0,,38.990310,-76.940987,-7.264000,,,
2026-09-11T19:02:22.532,10.995750,1.648123,10.431482,15.260395,0.000000,0.124568,-0.042856,1.648122,-0.005589,-0.011766,0.237711,9.950941,2.980380,0.044776,0.082326,-0.010282,0.712257,-2.422831,7.856304,0.276252,-0.359786,1,0,,38.990310,-76.940987,-7.264000,,,
2026-09-11T19:02:22.565,11.029160,1.706902,10.488514,15.804649,0.000000,0.301722,-0.103804,1.706899,-0.014344,-0.030197,0.237010,10.005494,2.993235,0.022562,0.010107,-0.028714,2.417830,1.571810,11.484372,0.291784,-0.262506,1,0,,38.990310,-76.940987,-7.264000,,,
2026-09-11T19:02:22.598,11.062577,1.726439,10.546605,15.985542,0.000000,1.033687,-0.355626,1.726405,-0.009044,-0.019039,0.236187,10.061353,3.006301,0.296030,0.220687,-0.017556,6.309305,-9.260420,7.461096,0.569169,-0.868338,1,0,,38.990310,-76.940987,-7.264000,,,
2026-09-11T19:02:22.632,11.096001,1.804505,10.606596,16.708381,0.000000,0.829066,-0.285229,1.804483,-0.024570,-0.051726,0.235005,10.118862,3.019528,0.217387,-0.095158,-0.050243,-0.030891,11.562825,13.225543,0.441370,-0.116133,1,0,,38.990310,-76.940987,-7.264000,,,
2026-09-11T19:02:22.665,11.129424,1.853289,10.668566,17.160083,0.000000,1.112651,-0.382793,1.853248,-0.032302,-0.068005,0.233004,10.178542,3.032776,0.335148,0.046185,-0.066521,2.308387,1.836295,12.164463,0.477586,0.000428,1,0,,38.990310,-76.940987,-7.264000,,,
2026-09-11T19:02:22.699,11.162844,1.931597,10.733763,17.885156,0.000000,1.326198,-0.456261,1.931536,-0.037077,-0.078057,0.230563,10.240362,3.046174,0.213194,-0.091665,-0.076573,5.800143,-1.513068,10.360432,0.753605,-0.099458,1,0,,38.990310,-76.940987,-7.264000,,,
2026-09-11T19:02:22.732,11.196265,2.019588,10.801700,18.699889,0.000000,2.319087,-0.797851,2.019392,-0.032247,-0.067888,0.228124,10.304919,3.060054,0.118958,-0.175889,-0.066404,1.684684,2.730564,10.137723,0.772130,0.075504,1,0,,38.990310,-76.940987,-7.264000,,,
2026-09-11T19:02:22.765,11.229677,2.078340,10.871533,19.243888,0.000000,4.314479,-1.484339,2.077643,-0.055280,-0.116379,0.225046,10.371942,3.074004,-0.054879,-0.165665,-0.114896,0.142393,-2.585229,8.100293,0.697673,-0.088666,1,0,,38.990310,-76.940987,-7.264000,,,
2026-09-11T19:02:22.799,11.263101,2.010794,10.937928,18.618463,0.000000,7.886409,-2.713214,2.008540,-0.079383,-0.167122,0.220308,10.439040,3.086892,-0.017912,-0.107752,-0.165639,-5.899779,-0.579279,4.632760,0.239362,-0.115174,1,0,,38.990310,-76.940987,-7.264000,,,
2026-09-11T19:02:22.832,11.296525,1.981547,11.004576,18.347656,0.000000,10.078868,-3.467500,1.977919,-0.083813,-0.176448,0.214566,10.504680,3.098602,-0.084733,-0.105214,-0.174964,-3.277677,-5.760034,9.781349,-0.035713,-0.475799,1,0,,38.990310,-76.940987,-7.264000,,,
2026-09-11T19:02:22.866,11.329937,1.952580,11.069866,18.079448,0.000000,10.888423,-3.746017,1.948409,-0.053357,-0.112331,0.209742,10.569285,3.110175,-0.108465,-0.025548,-0.110848,-1.633396,0.996160,10.343564,-0.192045,-0.403647,1,0,,38.990310,-76.940987,-7.264000,,,
2026-09-11T19:02:22.899,11.363362,1.904586,11.133014,17.635059,0.000000,5.536021,-1.904594,1.903534,-0.009345,-0.019674,0.207536,10.632483,3.122485,0.040000,-0.024034,-0.018190,-1.205237,-1.204845,7.921420,-0.306301,-0.486448,1,1,11.357241,38.990315,-76.941004,-7.194000,-10.218067,3.262459,3.128217
2026-09-11T19:02:22.933,11.396783,1.866257,11.195070,17.280161,0.000000,-0.671941,0.231172,1.866242,0.010099,0.021261,0.207563,10.694124,3.135478,0.123314,-0.062805,0.022744,-1.061864,3.309842,1.550235,-0.401757,-0.281168,1,0,,38.990315,-76.941004,-7.194000,,,
2026-09-11T19:02:22.966,11.430195,1.808468,11.255047,16.745070,0.000000,-1.112081,0.382597,1.808427,0.021922,0.046151,0.208689,10.754077,3.148686,0.035185,0.147206,0.047635,1.740484,-9.653568,9.787919,-0.307272,-0.919646,1,0,,38.990315,-76.941004,-7.194000,,,
2026-09-11T19:02:22.999,11.463615,1.770020,11.314220,16.389076,0.000000,-0.910207,0.313145,1.769994,0.018294,0.038513,0.210103,10.812428,3.161772,0.020765,0.012695,0.039996,6.246052,-0.515928,4.686794,0.086417,-0.958972,1,0,,38.990315,-76.941004,-7.194000,,,
2026-09-11T19:02:23.033,11.497040,1.770408,11.373488,16.392666,0.000000,-0.226308,0.077858,1.770406,0.007685,0.016179,0.211018,10.870199,3.174564,-0.213151,-0.383997,0.017662,-2.156384,1.910630,16.404564,-0.075192,-0.838281,1,0,,38.990315,-76.941004,-7.194000,,,
2026-09-11T19:02:23.067,11.530451,1.741829,11.431225,16.128047,0.000000,0.123195,-0.042383,1.741829,0.000547,0.001152,0.211307,10.927539,3.186996,0.000701,-0.210287,0.002635,-2.062731,2.907280,8.246608,-0.240359,-0.652788,1,0,,38.990315,-76.941004,-7.194000,,,
2026-09-11T19:02:23.100,11.563873,1.733009,11.488588,16.046380,0.000000,0.482997,-0.166169,1.733002,0.011930,0.025115,0.211746,10.984270,3.199391,-0.036612,-0.203740,0.026599,-2.512758,-0.464835,5.582141,-0.439404,-0.690173,1,0,,38.990315,-76.941004,-7.194000,,,
2026-09-11T19:02:23.133,11.597298,1.704455,11.545319,15.781988,0.000000,0.509089,-0.175145,1.704447,-0.001144,-0.002409,0.212125,11.040395,3.211652,-0.036420,-0.208847,-0.000926,1.009399,3.402711,16.857239,-0.416161,-0.473780,1,0,,38.990315,-76.941004,-7.194000,,,
2026-09-11T19:02:23.167,11.630719,1.665837,11.600583,15.424418,0.000000,0.125255,-0.043092,1.665837,0.007604,0.016008,0.212353,11.095427,3.223621,0.037421,-0.151603,0.017491,0.086691,1.914552,9.149408,-0.465338,-0.358091,1,0,,38.990315,-76.941004,-7.194000,,,
2026-09-11T19:02:23.200,11.664142,1.705051,11.658030,15.787507,0.000000,0.549601,-0.189083,1.705041,0.015768,0.033196,0.213175,11.150407,3.235898,0.035266,-0.172233,0.034680,2.860992,-4.210387,10.361805,-0.345737,-0.641971,1,0,,38.990315,-76.941004,-7.194000,,,
2026-09-11T19:02:23.234,11.697564,1.724514,11.715720,15.967721,0.000000,0.400599,-0.137821,1.724509,0.006040,0.012716,0.213942,11.206339,3.248401,0.004245,-0.090654,0.014199,1.121194,-0.096792,10.087611,-0.350547,-0.654263,1,0,,38.990315,-76.941004,-7.194000,,,
2026-09-11T19:02:23.267,11.730979,1.734512,11.774351,16.060292,0.000000,0.485057,-0.166877,1.734504,0.001190,0.002505,0.214197,11.262787,3.260796,0.026346,-0.118809,0.003989,2.159032,1.018028,8.225720,-0.289214,-0.593154,1,0,,38.990315,-76.941004,-7.194000,,,
2026-09-11T19:02:23.300,11.764400,1.793085,11.834602,16.602642,0.000000,0.507029,-0.174437,1.793077,-0.002313,-0.004870,0.214157,11.320391,3.273307,0.030432,-0.133677,-0.003386,1.714399,-0.010199,12.769926,-0.251743,-0.598399,1,0,,38.990315,-76.941004,-7.194000,,,
2026-09-11T19:02:23.334,11.797820,1.813061,11.895053,16.787601,0.000000,0.728129,-0.250503,1.813044,-0.009554,-0.020113,0.213740,11.379318,3.285907,-0.039774,-0.094819,-0.018630,2.220128,1.099914,4.681204,-0.183027,-0.529961,1,0,,38.990315,-76.941004,-7.194000,,,
2026-09-11T19:02:23.367,11.831230,1.832785,11.956084,16.970235,0.000000,1.201228,-0.413267,1.832738,-0.015596,-0.032833,0.212855,11.438929,3.298388,-0.114446,-0.102382,-0.031349,1.115212,1.023030,8.273773,-0.193648,-0.465741,1,0,,38.990315,-76.941004,-7.194000,,,
2026-09-11T19:02:23.400,11.864652,1.871953,12.019166,17.332900,0.000000,2.450236,-0.842971,1.871751,-0.027028,-0.056900,0.211356,11.499598,3.310724,-0.177386,-0.090983,-0.055417,1.700865,-0.549761,8.355756,-0.174274,-0.500987,1,0,,38.990315,-76.941004,-7.194000,,,
2026-09-11T19:02:23.434,11.898073,1.940430,12.084136,17.966942,0.000000,3.892878,-1.339293,1.939900,-0.047894,-0.100830,0.208720,11.562153,3.322778,-0.215098,-0.118506,-0.099346,3.267380,-0.069921,9.707015,-0.055284,-0.499026,1,0,,38.990315,-76.941004,-7.194000,,,
2026-09-11T19:02:23.467,11.931492,1.960607,12.149649,18.153772,0.000000,3.226146,-1.109912,1.960240,-0.030743,-0.064723,0.205954,11.626196,3.334907,-0.193196,-0.259278,-0.063239,1.343217,-0.462580,5.264504,-0.059464,-0.526939,1,0,,38.990315,-76.941004,-7.194000,,,
2026-09-11T19:02:23.500,11.964916,2.000023,12.215882,18.518728,0.000000,1.492366,-0.513429,1.999942,-0.025424,-0.053525,0.203977,11.691185,3.347457,-0.105422,-0.265942,-0.052041,-1.189939,-5.060722,14.249455,-0.226896,-0.853387,1,0,,38.990315,-76.941004,-7.194000,,,
2026-09-11T19:02:23.534,11.998340,1.942199,12.281194,17.983323,0.000000,1.372889,-0.472324,1.942133,-0.023795,-0.050095,0.202246,11.755877,3.359942,0.048007,0.172843,-0.048612,0.497786,6.218005,21.204920,-0.279093,-0.446974,1,0,,38.990315,-76.941004,-7.194000,,,
2026-09-11T19:02:23.568,12.031753,1.884221,12.343951,17.446492,0.000000,1.348857,-0.464056,1.884159,0.001043,0.002197,0.201445,11.818580,3.372385,0.026505,0.139917,0.003680,1.813838,3.136069,11.891152,-0.238992,-0.251124,1,0,,38.990315,-76.941004,-7.194000,,,
2026-09-11T19:02:23.601,12.065179,1.923013,12.408495,17.805677,0.000000,1.416148,-0.487207,1.922944,-0.021413,-0.045080,0.200729,11.880993,3.384760,0.107205,0.069778,-0.043597,1.103150,4.950495,8.488146,-0.238589,0.065954,1,0,,38.990315,-76.941004,-7.194000,,,
2026-09-11T19:02:23.634,12.098600,1.952276,12.473949,18.076631,0.000000,1.565150,-0.538469,1.952190,-0.012375,-0.026053,0.199540,11.944569,3.397080,0.031117,0.100189,-0.024569,1.642320,0.075217,16.232948,-0.191277,0.061660,1,0,,38.990315,-76.941004,-7.194000,,,
2026-09-11T19:02:23.668,12.132022,1.981885,12.540181,18.350791,0.000000,1.966151,-0.676428,1.981747,-0.030462,-0.064131,0.198033,12.009155,3.409360,0.137999,0.015975,-0.062647,2.044785,-1.058922,12.249585,-0.101385,-0.011053,1,0,,38.990315,-76.941004,-7.194000,,,
2026-09-11T19:02:23.701,12.165448,1.982449,12.606290,18.356013,0.000000,1.891993,-0.650915,1.982321,-0.019138,-0.040290,0.196288,12.074287,3.421525,0.012771,-0.075333,-0.038807,1.601622,2.561987,10.126445,-0.026074,0.148346,1,0,,38.990315,-76.941004,-7.194000,,,
2026-09-11T19:02:23.735,12.198872,1.992354,12.673239,18.447723,0.000000,1.929072,-0.663672,1.992220,-0.019726,-0.041527,0.194921,12.139568,3.433797,0.053489,0.005924,-0.040044,1.124038,-1.406176,11.974901,0.030105,0.049322,1,0,,38.990315,-76.941004,-7.194000,,,
2026-09-11T19:02:23.768,12.232284,1.992819,12.740265,18.452027,0.000000,2.014216,-0.692964,1.992673,-0.038568,-0.081197,0.192870,12.205079,3.445669,0.107669,0.071200,-0.079713,0.158966,-1.021166,11.046701,0.029293,-0.018543,1,0,,38.990315,-76.941004,-7.194000,,,
2026-09-11T19:02:23.802,12.265711,2.003155,12.807400,18.547735,0.000000,2.733821,-0.940535,2.002885,-0.030554,-0.064325,0.190438,12.270856,3.457255,-0.026183,-0.080121,-0.062842,-1.477666,-1.673407,7.030289,-0.077241,-0.130036,1,0,,38.990315,-76.941004,-7.194000,,,
2026-09-11T19:02:23.835,12.299133,1.974781,12.873229,18.285009,0.000000,2.797679,-0.962504,1.974502,-0.021249,-0.044734,0.188616,12.336296,3.468927,0.117024,-0.044540,-0.043250,-1.555727,-3.962083,4.367392,-0.180721,-0.391001,1,0,,38.990315,-76.941004,-7.194000,,,
2026-09-11T19:02:23.869,12.332546,1.936524,12.937536,17.930775,0.000000,2.719401,-0.935574,1.936266,-0.028166,-0.059297,0.186878,12.400637,3.480311,0.183496,-0.074983,-0.057814,-5.026791,-0.108462,10.887539,-0.498291,-0.397978,1,0,,38.990315,-76.941004,-7.194000,,,
2026-09-11T19:02:23.902,12.365972,1.849715,12.999239,17.126987,0.000000,2.613658,-0.899194,1.849487,-0.042716,-0.089928,0.184384,12.463039,3.490826,0.175909,-0.046563,-0.088444,-1.829038,3.736726,8.373801,-0.597242,-0.152686,1,1,12.350552,38.990321,-76.941023,-7.134000,-11.869679,3.907019,3.128217
2026-09-11T19:02:23.935,12.399397,1.781901,13.058758,16.499088,0.000000,3.017405,-1.038098,1.781609,-0.028930,-0.060906,0.181863,12.522927,3.500701,0.055353,0.044766,-0.059423,-2.060966,6.185447,13.810019,-0.705084,0.244654,1,0,,38.990321,-76.941023,-7.134000,,,
2026-09-11T19:02:23.969,12.432808,1.703948,13.115312,15.777296,0.000000,3.063411,-1.053926,1.703660,-0.017709,-0.037283,0.180223,12.580339,3.510419,-0.069655,0.038600,-0.035799,-1.126392,3.595706,9.333675,-0.747314,0.466997,1,0,,38.990321,-76.941023,-7.134000,,,
2026-09-11T19:02:24.002,12.466236,1.645532,13.170003,15.236411,0.000000,2.562846,-0.881713,1.645338,0.001421,0.002993,0.179649,12.635460,3.520170,0.026715,0.145014,0.004476,-0.680876,-1.182682,8.893357,-0.756479,0.373210,1,0,,38.990321,-76.941023,-7.134000,,,
2026-09-11T19:02:24.035,12.499661,1.587901,13.222863,14.702786,0.000000,1.911219,-0.657530,1.587796,0.000133,0.000280,0.179704,12.688618,3.529851,0.021791,-0.020424,0.001764,-0.802969,1.627512,7.667133,-0.772214,0.462673,1,0,,38.990321,-76.941023,-7.134000,,,
2026-09-11T19:02:24.069,12.533075,1.520206,13.273585,14.075984,0.000000,1.672267,-0.575321,1.520130,0.001271,0.002675,0.179753,12.739703,3.539157,0.021980,-0.035658,0.004159,0.303908,0.445810,7.580639,-0.717796,0.474413,1,0,,38.990321,-76.941023,-7.134000,,,
2026-09-11T19:02:24.102,12.566499,1.462134,13.322945,13.538274,0.000000,0.874385,-0.300820,1.462113,0.004609,0.009703,0.179960,12.788719,3.548169,0.039093,-0.017091,0.011187,-0.277822,0.378144,7.379602,-0.706699,0.480991,1,0,,38.990321,-76.941023,-7.134000,,,
2026-09-11T19:02:24.136,12.599927,1.433243,13.370763,13.270765,0.000000,0.281810,-0.096953,1.433241,0.011094,0.023357,0.180513,12.836282,3.557102,0.098757,-0.006516,0.024840,0.280176,1.129824,10.258050,-0.668257,0.534913,1,0,,38.990321,-76.941023,-7.134000,,,
2026-09-11T19:02:24.170,12.633350,1.404433,13.418116,13.004007,0.000000,0.134181,-0.046163,1.404432,-0.002183,-0.004595,0.180826,12.882905,3.565770,0.093615,-0.061553,-0.003111,0.457774,3.096450,7.703222,-0.631326,0.718130,1,0,,38.990321,-76.941023,-7.134000,,,
2026-09-11T19:02:24.203,12.666872,1.385604,13.464709,12.829671,0.000000,0.515956,-0.177508,1.385598,0.001020,0.002148,0.180785,12.928910,3.574160,0.046541,0.059916,0.003632,-0.824935,-4.572841,8.761457,-0.690811,0.401305,1,0,,38.990321,-76.941023,-7.134000,,,
2026-09-11T19:02:24.236,12.700294,1.357158,13.510445,12.566280,0.000000,0.596293,-0.205147,1.357150,-0.008476,-0.017844,0.180523,12.974021,3.582272,-0.057301,0.026984,-0.016360,1.092167,-2.477160,10.932356,-0.636262,0.226366,1,0,,38.990321,-76.941023,-7.134000,,,
2026-09-11T19:02:24.270,12.733713,1.338632,13.556065,12.394745,0.000000,1.605662,-0.552407,1.338570,-0.013901,-0.029266,0.179736,13.018403,3.589975,-0.019148,0.088121,-0.027782,0.997925,-0.369220,10.417604,-0.602224,0.190776,1,0,,38.990321,-76.941023,-7.134000,,,
2026-09-11T19:02:24.303,12.767140,1.348921,13.600733,12.490005,0.000000,2.717341,-0.934865,1.348741,-0.022952,-0.048320,0.178439,13.062708,3.597369,-0.047156,-0.005434,-0.046836,1.838649,3.800665,6.290770,-0.530887,0.427187,1,0,,38.990321,-76.941023,-7.134000,,,
2026-09-11T19:02:24.336,12.800565,1.349205,13.645422,12.492643,0.000000,3.723277,-1.280944,1.348868,-0.024471,-0.051518,0.176771,13.107223,3.604554,-0.055633,0.166117,-0.050035,-2.327314,-5.704626,10.803594,-0.747081,0.045977,1,0,,38.990321,-76.941023,-7.134000,,,
2026-09-11T19:02:24.370,12.833980,1.359186,13.690440,12.585053,0.000000,3.989695,-1.372602,1.358796,-0.027692,-0.058299,0.174936,13.151916,3.611610,0.034784,0.027230,-0.056815,-0.298711,-7.534253,12.771985,-0.841694,-0.448603,1,0,,38.990321,-76.941023,-7.134000,,,
2026-09-11T19:02:24.403,12.867411,1.359467,13.735645,12.587654,0.000000,3.825587,-1.316142,1.359108,-0.028207,-0.059383,0.172969,13.196824,3.618553,-0.057326,0.099988,-0.057899,2.553652,-1.293105,9.461750,-0.760126,-0.533832,1,0,,38.990321,-76.941023,-7.134000,,,
2026-09-11T19:02:24.437,12.900837,1.398354,13.781334,12.947719,0.000000,3.599681,-1.238422,1.398027,-0.033995,-0.071569,0.170780,13.242402,3.625409,-0.089310,-0.093889,-0.070085,3.710248,0.801301,5.350116,-0.611130,-0.481308,1,0,,38.990321,-76.941023,-7.134000,,,
2026-09-11T19:02:24.470,12.934255,1.407896,13.828975,13.036077,0.000000,4.701060,-1.617337,1.407335,-0.032117,-0.067615,0.168455,13.288790,3.632232,-0.070803,-0.060921,-0.066132,3.782817,-3.866076,6.408156,-0.465185,-0.731675,1,0,,38.990321,-76.941023,-7.134000,,,
2026-09-11T19:02:24.503,12.967682,1.437319,13.877041,13.308513,0.000000,5.782527,-1.989401,1.436453,-0.039067,-0.082247,0.165950,13.335856,3.638969,0.052671,0.026943,-0.080763,2.043902,1.590050,12.922027,-0.439910,-0.624738,1,0,,38.990321,-76.941023,-7.134000,,,
2026-09-11T19:02:24.537,13.001105,1.505477,13.927943,13.939600,0.000000,6.015300,-2.069484,1.504495,-0.048787,-0.102709,0.162859,13.384580,3.645562,0.002494,-0.006498,-0.101226,2.770869,-0.698332,10.022102,-0.370869,-0.664728,1,0,,38.990321,-76.941023,-7.134000,,,
2026-09-11T19:02:24.570,13.034520,1.573741,13.980640,14.571677,0.000000,6.738337,-2.318235,1.572453,-0.048792,-0.102721,0.159427,13.435584,3.652200,0.037408,-0.035165,-0.101237,3.164900,-2.370169,12.763944,-0.278922,-0.811969,1,0,,38.990321,-76.941023,-7.134000,,,
2026-09-11T19:02:24.604,13.067944,1.632344,14.035117,15.114301,0.000000,7.072047,-2.433044,1.630873,-0.050414,-0.106136,0.155936,13.488714,3.658967,0.009264,0.000372,-0.104652,2.079010,1.495122,9.161863,-0.260965,-0.706742,1,0,,38.990321,-76.941023,-7.134000,,,
2026-09-11T19:02:24.637,13.101363,1.681059,14.091622,15.565360,0.000000,7.635783,-2.626990,1.679292,-0.054990,-0.115768,0.152228,13.543641,3.665714,0.004106,0.069518,-0.114284,2.383212,1.051273,12.828275,-0.226581,-0.630035,1,0,,38.990321,-76.941023,-7.134000,,,
2026-09-11T19:02:24.671,13.134785,1.729862,14.149539,16.017245,0.000000,9.342784,-3.214260,1.727141,-0.051006,-0.107381,0.148499,13.600189,3.672488,-0.021343,0.021165,-0.105898,1.294772,2.172565,7.874642,-0.264579,-0.482190,1,0,,38.990321,-76.941023,-7.134000,,,
2026-09-11T19:02:24.704,13.168207,1.740201,14.207785,16.112970,0.000000,12.089366,-4.159186,1.735618,-0.066193,-0.139354,0.144376,13.657721,3.678994,-0.016899,0.051229,-0.137871,1.240443,0.041874,6.430221,-0.305198,-0.470209,1,0,,38.990321,-76.941023,-7.134000,,,
2026-09-11T19:02:24.738,13.201634,1.779792,14.267072,16.479556,0.000000,13.155726,-4.526053,1.774242,-0.077917,-0.164035,0.139306,13.716134,3.684901,-0.062022,0.042841,-0.162552,0.980567,0.127094,9.326811,-0.357437,-0.449661,1,0,,38.990321,-76.941023,-7.134000,,,
2026-09-11T19:02:24.771,13.235049,1.789881,14.326645,16.572973,0.000000,13.010157,-4.475972,1.784422,-0.063093,-0.132827,0.134346,13.775357,3.690676,-0.121659,-0.084513,-0.131344,2.838731,-3.156761,9.636211,-0.274929,-0.645294,1,0,,38.990321,-76.941023,-7.134000,,,
2026-09-11T19:02:24.804,13.268472,1.819578,14.387344,16.847943,0.000000,12.685374,-4.364234,1.814302,-0.070620,-0.148674,0.129641,13.835267,3.696375,-0.038702,0.005458,-0.147191,4.761521,-0.671657,17.352181,-0.049769,-0.675875,1,0,,38.990321,-76.941023,-7.134000,,,
2026-09-11T19:02:24.838,13.301893,1.829492,14.448698,16.939745,0.000000,12.780818,-4.397070,1.824108,-0.093149,-0.196103,0.123880,13.895923,3.701346,-0.038086,-0.001146,-0.194619,3.531669,5.249009,17.943620,0.109309,-0.317309,1,0,,38.990321,-76.941023,-7.134000,,,
2026-09-11T19:02:24.871,13.335307,1.868203,14.511528,17.298179,0.000000,12.684688,-4.363998,1.862787,-0.073394,-0.154513,0.118022,13.957408,3.706014,-0.043523,0.069826,-0.153029,1.002534,1.147280,9.667984,0.116044,-0.232665,1,1,13.328088,38.990327,-76.941040,-7.025000,-13.305224,4.586976,2.958465
2026-09-11T19:02:24.904,13.368735,1.887881,14.575041,17.480375,0.000000,12.475947,-4.292184,1.882586,-0.065502,-0.137899,0.113135,14.019858,3.710926,-0.041872,-0.104733,-0.136415,1.208473,-0.451106,11.396014,0.147299,-0.254206,1,0,,38.990327,-76.941040,-7.025000,,,
2026-09-11T19:02:24.938,13.402173,1.927118,14.638955,17.843682,0.000000,11.609401,-3.994060,1.922437,-0.049413,-0.104028,0.109090,14.083296,3.716070,0.039928,0.015325,-0.102544,0.654986,-0.104931,11.939008,0.150946,-0.256962,1,0,,38.990327,-76.941040,-7.025000,,,
2026-09-11T19:02:24.971,13.435584,1.927304,14.703086,17.845404,0.000000,10.591792,-3.643965,1.923407,-0.056577,-0.119110,0.105363,14.147362,3.721185,0.157827,-0.083850,-0.117626,0.877401,5.690211,13.334691,0.177840,0.117113,1,0,,38.990327,-76.941040,-7.025000,,,
2026-09-11T19:02:25.005,13.469008,1.889054,14.766441,17.491241,0.000000,8.612193,-2.962910,1.886529,-0.044430,-0.093537,0.101809,14.210868,3.726091,0.158330,0.027135,-0.092054,-1.877581,3.279050,7.205730,0.033746,0.327755,1,0,,38.990327,-76.941040,-7.025000,,,
2026-09-11T19:02:25.038,13.502428,1.811910,14.826591,16.776942,0.000000,2.664470,-0.916675,1.811678,-0.008682,-0.018278,0.099940,14.272440,3.731432,0.091687,0.006997,-0.016794,-1.180132,0.744325,12.086500,-0.056382,0.362717,1,0,,38.990327,-76.941040,-7.025000,,,
2026-09-11T19:02:25.072,13.535841,1.734872,14.884324,16.063630,0.000000,1.707286,-0.587369,1.734781,-0.007423,-0.015627,0.099374,14.331422,3.737060,0.068042,0.021391,-0.014143,0.887894,0.852786,12.014519,-0.005509,0.403916,1,0,,38.990327,-76.941040,-7.025000,,,
2026-09-11T19:02:25.105,13.569267,1.687278,14.939605,15.622941,0.000000,1.662654,-0.572014,1.687194,-0.001834,-0.003861,0.099048,14.388347,3.742571,0.035485,0.034353,-0.002378,0.367357,0.723535,8.770283,0.017222,0.434974,1,0,,38.990327,-76.941040,-7.025000,,,
2026-09-11T19:02:25.139,13.602680,1.629739,14.994787,15.090178,0.000000,-0.323125,0.111167,1.629736,0.029006,0.061065,0.100004,14.443442,3.748528,0.006485,-0.064680,0.062549,-0.106892,2.231013,8.696243,0.014502,0.556368,1,0,,38.990327,-76.941040,-7.025000,,,
2026-09-11T19:02:25.172,13.636102,1.610817,15.048237,14.914968,0.000000,-3.349172,1.152238,1.610491,0.044461,0.093602,0.102589,14.497188,3.755224,0.100756,0.063583,0.095085,-0.184463,0.116013,10.594418,0.011853,0.536230,1,0,,38.990327,-76.941040,-7.025000,,,
2026-09-11T19:02:25.205,13.669526,1.552910,15.099889,14.378800,0.000000,-6.189824,2.129527,1.551838,0.037907,0.079804,0.105487,14.549608,3.762080,0.029068,0.000327,0.081288,1.780790,4.945690,6.667934,0.138886,0.830729,1,0,,38.990327,-76.941040,-7.025000,,,
2026-09-11T19:02:25.239,13.702945,1.524009,15.150992,14.111198,0.000000,-10.259572,3.529669,1.521118,0.042561,0.089601,0.108317,14.600519,3.768895,0.121400,-0.018245,0.091085,-6.723734,4.263441,6.694412,-0.292895,1.076991,1,0,,38.990327,-76.941040,-7.025000,,,
2026-09-11T19:02:25.272,13.736364,1.475578,15.199986,13.662758,0.000000,-11.224996,3.861810,1.472227,0.058546,0.123255,0.111874,14.650047,3.776069,-0.131614,-0.081870,0.124739,-1.655264,-0.467973,4.090746,-0.400613,1.011283,1,0,,38.990327,-76.941040,-7.025000,,,
2026-09-11T19:02:25.305,13.769789,1.456500,15.248205,13.486112,0.000000,-11.605397,3.992683,1.452965,0.043114,0.090767,0.115451,14.698426,3.783301,-0.058485,-0.069434,0.092250,1.353710,0.450812,9.680341,-0.323683,1.008998,1,0,,38.990327,-76.941040,-7.025000,,,
2026-09-11T19:02:25.339,13.803212,1.427688,15.295621,13.219333,0.000000,-11.633550,4.002368,1.424206,0.063247,0.133153,0.119193,14.745969,3.790693,-0.043315,0.045275,0.134636,-0.618407,-2.351733,10.738184,-0.386345,0.821544,1,0,,38.990327,-76.941040,-7.025000,,,
2026-09-11T19:02:25.373,13.836631,1.408719,15.342474,13.043697,0.000000,-11.246968,3.869370,1.405508,0.042234,0.088913,0.122903,14.792695,3.798152,-0.093448,0.008429,0.090397,0.259680,1.565436,11.790928,-0.401921,0.893967,1,0,,38.990327,-76.941040,-7.025000,,,
2026-09-11T19:02:25.406,13.870049,1.399281,15.388904,12.956310,0.000000,-11.260015,3.873858,1.396084,0.039516,0.083192,0.125779,14.838976,3.805313,-0.059892,0.003467,0.084676,0.516614,0.301358,7.482082,-0.411334,0.884326,1,0,,38.990327,-76.941040,-7.025000,,,
2026-09-11T19:02:25.439,13.903462,1.389743,15.434886,12.867988,0.000000,-11.218816,3.859684,1.386591,0.041242,0.086826,0.128620,14.884917,3.812548,-0.052205,0.001648,0.088309,1.848750,-0.914470,9.722019,-0.344308,0.795824,1,0,,38.990327,-76.941040,-7.025000,,,
2026-09-11T19:02:25.473,13.936887,1.409388,15.482070,13.049886,0.000000,-10.201894,3.509826,1.406744,0.032058,0.067490,0.131198,14.931048,3.819811,-0.066850,-0.046023,0.068973,2.622396,1.681350,6.867695,-0.237964,0.877992,1,0,,38.990327,-76.941040,-7.025000,,,
2026-09-11T19:02:25.506,13.970303,1.429213,15.529468,13.233451,0.000000,-7.883092,2.712073,1.427612,0.016236,0.034180,0.132897,14.977887,3.826846,-0.069380,-0.009902,0.035664,1.997222,-1.136297,10.572746,-0.183594,0.779828,1,0,,38.990327,-76.941040,-7.025000,,,
2026-09-11T19:02:25.539,14.003722,1.449354,15.577834,13.419946,0.000000,-4.442998,1.528554,1.448838,0.016285,0.034284,0.134041,15.025451,3.833781,-0.061485,-0.002964,0.035767,1.672230,0.529755,8.789602,-0.159093,0.790539,1,0,,38.990327,-76.941040,-7.025000,,,
2026-09-11T19:02:25.573,14.037143,1.459771,15.626401,13.516399,0.000000,0.202159,-0.069550,1.459770,0.003479,0.007324,0.134736,15.073573,3.840621,0.002550,0.050025,0.008807,2.572480,-0.530834,9.567466,-0.083242,0.734995,1,0,,38.990327,-76.941040,-7.025000,,,
2026-09-11T19:02:25.606,14.070561,1.489376,15.676039,13.790523,0.000000,0.114955,-0.039549,1.489376,0.008548,0.017996,0.135160,15.122376,3.847450,0.018165,0.043264,0.019479,2.903455,-0.151513,8.646720,0.007696,0.703584,1,0,,38.990327,-76.941040,-7.025000,,,
2026-09-11T19:02:25.640,14.103974,1.518822,15.726951,14.063164,0.000000,0.025004,-0.008602,1.518822,0.010040,0.021138,0.135813,15.172130,3.854546,0.032821,0.008980,0.022621,2.340553,0.796496,7.196610,0.056128,0.733538,1,0,,38.990327,-76.941040,-7.025000,,,
2026-09-11T19:02:25.673,14.137399,1.577785,15.779561,14.609125,0.000000,-0.129491,0.044550,1.577785,0.009598,0.020207,0.136504,15.223358,3.861896,0.040820,0.055117,0.021690,2.849518,-0.769724,10.524987,0.132119,0.661784,1,0,,38.990327,-76.941040,-7.025000,,,
2026-09-11T19:02:25.706,14.170821,1.597492,15.833301,14.791594,0.000000,0.025004,-0.008602,1.597492,0.008107,0.017067,0.137127,15.275884,3.869426,0.054628,0.025614,0.018550,3.006523,0.327346,7.950545,0.215530,0.662151,1,0,,38.990327,-76.941040,-7.025000,,,
2026-09-11T19:02:25.740,14.204231,1.646024,15.888411,15.240967,0.000000,0.248851,-0.085614,1.646023,0.005853,0.012322,0.137618,15.329524,3.877077,-0.015687,0.029469,0.013806,2.152069,-1.650361,7.504539,0.243744,0.534989,1,0,,38.990327,-76.941040,-7.025000,,,
2026-09-11T19:02:25.773,14.237652,1.675250,15.944092,15.511575,0.000000,1.325511,-0.456024,1.675197,-0.008634,-0.018177,0.137520,15.384506,3.884642,0.000869,-0.003514,-0.016693,2.020072,-2.133535,11.164969,0.265069,0.381208,1,0,,38.990327,-76.941040,-7.025000,,,
2026-09-11T19:02:25.807,14.271080,1.704321,16.001552,15.780750,0.000000,3.213786,-1.105660,1.704004,-0.029010,-0.061074,0.136196,15.440542,3.891724,-0.031164,-0.189380,-0.059590,-1.082752,-0.942713,10.439277,0.088478,0.310967,1,0,,38.990327,-76.941040,-7.025000,,,
2026-09-11T19:02:25.841,14.304706,1.733848,16.059351,16.054144,0.000000,5.271663,-1.813645,1.732979,-0.043127,-0.090794,0.133642,15.497966,3.898294,-0.062143,-0.191706,-0.089310,2.690062,2.017522,17.667171,0.168381,0.437331,1,0,,38.990327,-76.941040,-7.025000,,,
2026-09-11T19:02:25.874,14.338124,1.743934,16.117774,16.147539,0.000000,6.750010,-2.322251,1.742502,-0.045711,-0.096233,0.130517,15.555728,3.904471,-0.094037,0.135011,-0.094750,1.114134,1.046272,2.462744,0.156960,0.499332,1,0,,38.990327,-76.941040,-7.025000,,,
2026-09-11T19:02:25.907,14.371543,1.782987,16.177278,16.509143,0.000000,7.725734,-2.657936,1.781069,-0.060689,-0.127766,0.126774,15.614347,3.910259,-0.096279,0.051036,-0.126282,1.651146,1.291634,2.434207,0.195085,0.580407,1,0,,38.990327,-76.941040,-7.025000,,,
2026-09-11T19:02:25.941,14.404961,1.802793,16.237436,16.692526,0.000000,7.786158,-2.678724,1.800823,-0.048807,-0.102751,0.122923,15.673959,3.915896,-0.009556,0.020198,-0.101267,2.290049,-0.356079,19.109435,0.289426,0.551182,1,0,,38.990327,-76.941040,-7.025000,,,
2026-09-11T19:02:25.974,14.438385,1.822792,16.298370,16.877708,0.000000,6.220607,-2.140117,1.821521,-0.043507,-0.091594,0.119675,15.734237,3.921689,0.007980,0.037893,-0.090110,1.449619,1.843454,5.823483,0.342540,0.663489,1,0,,38.990327,-76.941040,-7.025000,,,
2026-09-11T19:02:26.008,14.471806,1.823174,16.359431,16.881244,0.000000,4.835643,-1.663639,1.822406,-0.038557,-0.081173,0.116788,15.794865,3.927510,0.118803,0.092157,-0.079689,0.464737,2.064986,5.983528,0.342309,0.787665,1,0,,38.990327,-76.941040,-7.025000,,,
2026-09-11T19:02:26.041,14.505225,1.833639,16.420995,16.978137,0.000000,3.973216,-1.366932,1.833117,-0.026192,-0.055141,0.114510,15.855664,3.933484,-0.022892,0.030448,-0.053657,1.781966,-2.663290,8.459903,0.435841,0.601357,1,0,,38.990327,-76.941040,-7.025000,,,
2026-09-11T19:02:26.074,14.538639,1.795359,16.480149,16.623697,0.000000,3.338756,-1.148654,1.794998,-0.020911,-0.044023,0.112853,15.915977,3.939578,0.119740,-0.063634,-0.042540,-1.461093,1.007143,3.751632,0.324511,0.653268,1,0,,38.990327,-76.941040,-7.025000,,,
2026-09-11T19:02:26.108,14.572059,1.737548,16.538757,16.088405,0.000000,3.282451,-1.129283,1.737210,-0.004808,-0.010122,0.111949,15.974677,3.945772,0.070009,0.122092,-0.008639,-1.465800,4.941375,12.658522,0.219861,0.955334,1,0,,38.990327,-76.941040,-7.025000,,,
2026-09-11T19:02:26.141,14.605481,1.659966,16.593943,15.370058,0.000000,2.739314,-0.942425,1.659742,-0.009581,-0.020170,0.111442,16.031117,3.951861,0.030271,-0.042252,-0.018687,-0.354707,0.075609,6.616449,0.194863,0.940082,1,0,,38.990327,-76.941040,-7.025000,,,
2026-09-11T19:02:26.175,14.638902,1.601634,16.647277,14.829945,0.000000,2.146739,-0.738557,1.601501,-0.010775,-0.022684,0.110726,16.085314,3.957564,0.018622,0.029015,-0.021200,-0.252717,3.159408,8.767538,0.179224,1.124849,1,0,,38.990327,-76.941040,-7.025000,,,
2026-09-11T19:02:26.208,14.672322,1.505170,16.698648,13.936761,0.000000,1.495112,-0.514374,1.505110,0.023023,0.048469,0.111157,16.136885,3.963515,-0.087861,-0.047649,0.049953,1.984866,-3.997093,7.912888,0.306700,0.837142,1,0,,38.990327,-76.941040,-7.025000,,,
2026-09-11T19:02:26.241,14.705738,1.447374,16.746632,13.401611,0.000000,-0.814077,0.280072,1.447357,0.003996,0.008412,0.112107,16.185857,3.969458,-0.070619,0.092409,0.009896,-1.788341,3.742708,11.135059,0.184489,1.057633,1,0,,38.990327,-76.941040,-7.025000,,,
2026-09-11T19:02:26.275,14.739154,1.409284,16.793554,13.048929,0.000000,-2.641240,0.908684,1.409107,0.017442,0.036721,0.112862,16.233242,3.975171,-0.118646,-0.057862,0.038204,-0.835036,4.696405,7.962313,0.125570,1.334909,1,0,,38.990327,-76.941040,-7.025000,,,
2026-09-11T19:02:26.309,14.772577,1.380480,16.839623,12.782224,0.000000,-5.030767,1.730768,1.379850,0.042377,0.089214,0.114966,16.279433,3.981461,-0.084706,-0.041555,0.090697,2.170506,-1.143553,7.323999,0.261242,1.226353,1,0,,38.990327,-76.941040,-7.025000,,,
2026-09-11T19:02:26.342,14.805998,1.361197,16.885364,12.603675,0.000000,-8.093892,2.784596,1.359590,0.048668,0.102458,0.118169,16.324722,3.988296,-0.002662,0.137517,0.103942,-1.918671,-2.758022,12.928695,0.122030,1.013430,1,0,,38.990327,-76.941040,-7.025000,,,
2026-09-11T19:02:26.375,14.839421,1.332526,16.929757,12.338199,0.000000,-11.203710,3.854487,1.329511,0.032453,0.068322,0.121023,16.369178,3.995003,0.001036,0.040270,0.069805,0.480330,0.744815,4.082410,0.128288,1.032816,1,0,,38.990327,-76.941040,-7.025000,,,
2026-09-11T19:02:26.409,14.872842,1.313755,16.973250,12.164396,0.000000,-11.203710,3.854487,1.310783,0.045431,0.095644,0.123763,16.412811,4.001681,0.051834,-0.000655,0.097127,1.756371,0.393443,9.452826,0.201668,1.026999,1,0,,38.990327,-76.941040,-7.025000,,,
2026-09-11T19:02:26.442,14.906262,1.353102,17.018013,12.528725,0.000000,-11.291600,3.884725,1.349993,0.051347,0.108098,0.127167,16.456720,4.008850,0.138570,-0.040707,0.109582,2.714383,-2.130691,11.156732,0.318903,0.856499,1,0,,38.990327,-76.941040,-7.025000,,,
2026-09-11T19:02:26.475,14.939683,1.392511,17.063797,12.893624,0.000000,-11.093160,3.816454,1.389423,0.042430,0.089327,0.130467,16.501917,4.016286,0.132581,-0.044688,0.090811,1.560434,-0.165830,7.391861,0.343528,0.816510,1,0,,38.990327,-76.941040,-7.025000,,,
2026-09-11T19:02:26.509,14.973102,1.422138,17.111323,13.167948,0.000000,-10.738851,3.694559,1.419183,0.030813,0.064869,0.133043,16.548279,4.023665,0.052212,-0.082078,0.066353,2.989361,-3.361916,9.729178,0.448838,0.572161,1,0,,38.990327,-76.941040,-7.025000,,,
2026-09-11T19:02:26.542,15.006518,1.403156,17.158047,12.992186,0.000000,-8.994084,3.094295,1.401110,0.017534,0.036913,0.134744,16.594871,4.030756,0.039118,-0.004233,0.038397,1.069807,1.624079,11.879090,0.421284,0.655865,1,0,,38.990327,-76.941040,-7.025000,,,
2026-09-11T19:02:26.575,15.039937,1.413320,17.204875,13.086296,0.000000,-4.545995,1.563989,1.412793,0.018461,0.038864,0.136010,16.641379,4.037698,-0.010051,0.104315,0.040348,2.234249,-1.243287,12.286066,0.465196,0.552843,1,0,,38.990327,-76.941040,-7.025000,,,
2026-09-11T19:02:26.609,15.073355,1.423324,17.252321,13.178923,0.000000,1.681880,-0.578628,1.423251,-0.006423,-0.013523,0.136433,16.688300,4.044332,-0.060084,0.033941,-0.012039,1.408725,2.022425,10.190090,0.448479,0.667144,1,0,,38.990327,-76.941040,-7.025000,,,
2026-09-11T19:02:26.642,15.106770,1.462127,17.301417,13.538217,0.000000,0.954722,-0.328460,1.462103,-0.011829,-0.024903,0.135791,16.736103,4.050571,-0.067090,-0.083229,-0.023419,2.943564,0.893876,9.053696,0.525322,0.708240,1,0,,38.990327,-76.941040,-7.025000,,,
2026-09-11T19:02:26.676,15.140188,1.530258,17.352686,14.169052,0.000000,0.991801,-0.341216,1.530230,-0.007274,-0.015313,0.135119,16.785686,4.057007,-0.022559,0.019489,-0.013830,1.863460,2.154423,10.517436,0.529835,0.829643,1,0,,38.990327,-76.941040,-7.025000,,,
2026-09-11T19:02:26.709,15.173610,1.579043,17.405476,14.620770,0.000000,1.197795,-0.412085,1.579002,-0.013012,-0.027393,0.134406,16.837220,4.063651,-0.048999,0.004775,-0.025910,2.024191,-0.857395,6.522011,0.546629,0.756014,1,0,,38.990327,-76.941040,-7.025000,,,
2026-09-11T19:02:26.743,15.207028,1.628035,17.459680,15.074394,0.000000,2.270335,-0.781079,1.627883,-0.015544,-0.032724,0.133401,16.890387,4.070332,-0.075246,-0.077228,-0.031240,1.344492,-2.202279,8.199340,0.521573,0.596812,1,0,,38.990327,-76.941040,-7.025000,,,
