timestamp,time_s,speed_mps,distance_m,wheel_omega_rad_s,motor_current_A,steer_motor_deg,steer_column_deg,vx_mps,vy_mps,yaw_rate_rad_s,heading_rad,x_m,y_m,gyro_x_rad_s,gyro_y_rad_s,gyro_z_rad_s,accel_x_mps2,accel_y_mps2,accel_z_mps2,grade_deg,bank_deg,moving,gps_new_fix,gps_time_s,gps_latitude_deg,gps_longitude_deg,gps_altitude_m,gps_east_m,gps_north_m,gps_sigma_m
2026-09-11T19:05:03.741,0.000008,-0.000000,-0.000000,-0.000000,0.000000,-23.291702,8.013200,-0.000000,-0.000088,-0.000185,0.000000,0.000000,0.000000,-0.003389,0.000448,0.001298,0.381381,0.297240,9.694070,0.000000,0.000000,0,0,,,,,,,
2026-09-11T19:05:03.775,0.033414,-0.000000,-0.000000,-0.000000,0.000000,-23.280029,8.009184,-0.000000,-0.000343,-0.000723,-0.000015,-0.000000,-0.000007,0.002462,0.001400,0.000761,0.414527,0.301554,9.680242,0.000000,0.000000,0,0,,,,,,,
2026-09-11T19:05:03.808,0.066824,-0.000000,-0.000000,-0.000000,0.000000,-23.280029,8.009184,-0.000000,-0.000129,-0.000273,-0.000032,-0.000000,-0.000015,0.007831,0.000486,0.001211,0.384421,0.297926,9.702209,0.000000,0.000000,0,0,,,,,,,
2026-09-11T19:05:03.843,0.100233,-0.000000,-0.000000,-0.000000,0.000000,-23.280029,8.009184,-0.000000,-0.000630,-0.001326,-0.000059,-0.000000,-0.000028,0.003196,0.000023,0.000157,0.424236,0.323129,9.686911,0.000000,0.000000,0,1,0.104270,38.990285,-76.940895,-9.014000,0.000000,0.000000,2.592730
2026-09-11T19:05:03.877,0.133660,-0.000000,-0.000000,-0.000000,0.000000,-23.280029,8.009184,-0.000000,-0.000126,-0.000265,-0.000085,-0.000000,-0.000040,0.007182,-0.000318,0.001218,0.399033,0.292630,9.691618,0.000000,0.000000,0,0,,38.990285,-76.940895,-9.014000,,,
2026-09-11T19:05:03.910,0.167085,-0.000000,-0.000000,-0.000000,0.000000,-23.280029,8.009184,-0.000000,0.000367,0.000773,-0.000077,-0.000000,-0.000036,0.003181,-0.000715,0.002257,0.391089,0.314401,9.684263,0.000000,0.000000,0,0,,38.990285,-76.940895,-9.014000,,,
2026-09-11T19:05:03.943,0.200510,-0.000000,-0.000000,-0.000000,0.000000,-23.280029,8.009184,-0.000000,-0.000292,-0.000614,-0.000074,-0.000000,-0.000035,-0.000702,0.001285,0.000870,0.393345,0.315872,9.690147,0.000000,0.000000,0,0,,38.990285,-76.940895,-9.014000,,,
2026-09-11T19:05:03.977,0.233930,-0.000000,-0.000000,-0.000000,0.000000,-23.280029,8.009184,-0.000000,-0.000086,-0.000180,-0.000087,-0.000000,-0.000041,0.000853,-0.000812,0.001303,0.377752,0.304006,9.693285,0.000000,0.000000,0,0,,38.990285,-76.940895,-9.014000,,,
2026-09-11T19:05:04.010,0.267353,-0.000000,-0.000000,-0.000000,0.000000,-23.280029,8.009184,-0.000000,0.000383,0.000806,-0.000077,-0.000000,-0.000036,-0.003773,0.000968,0.002290,0.391972,0.331661,9.693187,0.000000,0.000000,0,0,,38.990285,-76.940895,-9.014000,,,
2026-09-11T19:05:04.044,0.300783,-0.000000,-0.000000,-0.000000,0.000000,-23.353500,8.034461,-0.000000,-0.000315,-0.000663,-0.000074,-0.000000,-0.000035,-0.006653,0.001924,0.000821,0.398346,0.302339,9.686421,0.000000,0.000000,0,0,,38.990285,-76.940895,-9.014000,,,
2026-09-11T19:05:04.077,0.334204,-0.000000,-0.000000,-0.000000,0.000000,-23.390579,8.047218,-0.000000,0.001010,0.002127,-0.000050,-0.000000,-0.000024,-0.009399,-0.000845,0.003610,0.390305,0.297926,9.701425,0.000000,0.000000,0,0,,38.990285,-76.940895,-9.014000,,,
2026-09-11T19:05:04.110,0.367703,-0.000000,-0.000000,-0.000000,0.000000,-23.390579,8.047218,-0.000000,0.000479,0.001008,0.000003,-0.000000,0.000001,-0.009221,-0.000969,0.002491,0.385205,0.303222,9.697012,0.000000,0.000000,0,0,,38.990285,-76.940895,-9.014000,,,
2026-09-11T19:05:04.144,0.401121,-0.000000,-0.000000,-0.000000,0.000000,-23.390579,8.047218,-0.000000,-0.000223,-0.000470,0.000012,-0.000000,0.000005,-0.006200,0.002856,0.001014,0.391776,0.294886,9.700640,0.000000,0.000000,0,0,,38.990285,-76.940895,-9.014000,,,
2026-09-11T19:05:04.177,0.434538,-0.000000,-0.000000,-0.000000,0.000000,-23.434525,8.062336,-0.000000,0.001006,0.002117,0.000039,-0.000000,0.000019,-0.003798,-0.000164,0.003601,0.401386,0.302339,9.704367,0.000000,0.000000,0,0,,38.990285,-76.940895,-9.014000,,,
2026-09-11T19:05:04.211,0.467956,-0.000000,-0.000000,-0.000000,0.000000,-23.478470,8.077455,-0.000000,0.000222,0.000468,0.000082,-0.000000,0.000039,-0.003176,0.000316,0.001952,0.404819,0.276057,9.696816,0.000000,0.000000,0,0,,38.990285,-76.940895,-9.014000,,,
2026-09-11T19:05:04.245,0.501376,-0.000000,-0.000000,-0.000000,0.000000,-23.478470,8.077455,-0.000000,-0.001974,-0.004156,0.000021,-0.000000,0.000010,0.004033,0.002365,-0.002673,0.388736,0.286648,9.696227,0.000000,0.000000,0,0,,38.990285,-76.940895,-9.014000,,,
2026-09-11T19:05:04.278,0.534797,-0.000000,-0.000000,-0.000000,0.000000,-23.478470,8.077455,-0.000000,-0.000370,-0.000778,-0.000062,-0.000000,-0.000029,0.006187,-0.000728,0.000705,0.399033,0.285864,9.699856,0.000000,0.000000,0,0,,38.990285,-76.940895,-9.014000,,,
2026-09-11T19:05:04.311,0.568221,-0.000000,-0.000000,-0.000000,0.000000,-23.248444,7.998318,-0.000000,-0.001409,-0.002966,-0.000124,-0.000000,-0.000059,0.007852,-0.000098,-0.001483,0.383244,0.236536,9.705249,0.000000,0.000000,0,0,,38.990285,-76.940895,-9.014000,,,
2026-09-11T19:05:04.345,0.601641,-0.000000,-0.000000,-0.000000,0.000000,-22.543945,7.755944,-0.000000,-0.004049,-0.008525,-0.000316,-0.000000,-0.000150,0.011408,0.002231,-0.007042,0.354805,0.267427,9.709270,0.000000,0.000000,0,0,,38.990285,-76.940895,-9.014000,,,
2026-09-11T19:05:04.378,0.635066,-0.000000,-0.000000,-0.000000,0.000000,-21.578522,7.423803,-0.000000,-0.003460,-0.007283,-0.000581,-0.000000,-0.000276,0.011586,0.000639,-0.005800,0.445418,0.299005,9.687499,0.000000,0.000000,0,0,,38.990285,-76.940895,-9.014000,,,
2026-09-11T19:05:04.411,0.668485,-0.000000,-0.000000,-0.000000,0.000000,-20.438690,7.031659,-0.000000,-0.004125,-0.008685,-0.000847,-0.000000,-0.000403,0.018150,0.001407,-0.007201,0.420215,0.277528,9.682400,0.000000,0.000000,0,0,,38.990285,-76.940895,-9.014000,,,
2026-09-11T19:05:04.445,0.701905,-0.000000,-0.000000,-0.000000,0.000000,-18.276443,6.287767,-0.000000,-0.005496,-0.011572,-0.001186,-0.000000,-0.000563,0.017964,0.001218,-0.010088,0.395698,0.231143,9.707407,0.000000,0.000000,0,0,,38.990285,-76.940895,-9.014000,,,
2026-09-11T19:05:04.479,0.735330,-0.000000,-0.000000,-0.000000,0.000000,-14.173050,4.876049,-0.000000,-0.009478,-0.019954,-0.001713,-0.000001,-0.000814,0.002075,0.002272,-0.018470,0.473073,0.245559,9.688676,0.000000,0.000000,0,0,,38.990285,-76.940895,-9.014000,,,
2026-09-11T19:05:04.512,0.768747,-0.000000,-0.000000,-0.000000,0.000000,-12.247009,4.213421,-0.000000,-0.011279,-0.023746,-0.002443,-0.000001,-0.001160,-0.003817,0.002927,-0.022262,0.462285,0.376771,9.690343,0.000000,0.000000,0,0,,38.990285,-76.940895,-9.014000,,,
2026-09-11T19:05:04.545,0.802179,-0.000000,-0.000000,-0.000000,0.000000,-9.521713,3.275819,-0.000000,-0.008614,-0.018136,-0.003143,-0.000002,-0.001493,0.003503,0.001822,-0.016652,0.416783,0.315774,9.675731,0.000000,0.000000,0,0,,38.990285,-76.940895,-9.014000,,,
2026-09-11T19:05:04.579,0.835597,-0.000000,-0.000000,-0.000000,0.000000,-6.057587,2.084032,-0.000000,-0.007007,-0.014751,-0.003693,-0.000003,-0.001754,0.010376,0.001249,-0.013267,0.386186,0.324796,9.729276,0.000000,0.000000,0,0,,38.990285,-76.940895,-9.014000,,,
2026-09-11T19:05:04.612,0.869020,-0.000000,-0.000000,-0.000000,0.000000,-0.247879,0.085279,-0.000000,-0.009373,-0.019733,-0.004269,-0.000004,-0.002028,0.009936,0.002191,-0.018250,0.385794,0.192308,9.696227,0.000000,0.000000,0,0,,38.990285,-76.940895,-9.014000,,,
2026-09-11T19:05:04.646,0.902440,-0.000000,-0.000000,-0.000000,0.000000,-0.006180,0.002126,-0.000000,-0.010099,-0.021260,-0.004954,-0.000006,-0.002353,0.011102,0.001620,-0.019777,0.421196,0.396581,9.695933,0.000000,0.000000,0,0,,38.990285,-76.940895,-9.014000,,,
2026-09-11T19:05:04.679,0.935854,-0.000000,-0.000000,-0.000000,0.000000,2.189026,-0.753105,-0.000000,-0.008309,-0.017494,-0.005601,-0.000007,-0.002661,0.009510,0.002705,-0.016010,0.379027,0.339114,9.736827,0.000000,0.000000,0,0,,38.990285,-76.940895,-9.014000,,,
2026-09-11T19:05:04.712,0.969270,-0.000000,-0.000000,-0.000000,0.000000,4.733048,-1.628342,-0.000000,-0.009577,-0.020163,-0.006230,-0.000009,-0.002959,0.007812,0.002426,-0.018680,0.289787,0.339898,9.717312,0.000000,0.000000,0,0,,38.990285,-76.940895,-9.014000,,,
2026-09-11T19:05:04.746,1.002699,-0.000000,-0.000000,-0.000000,0.000000,7.683564,-2.643428,-0.000000,-0.007497,-0.015783,-0.006831,-0.000011,-0.003245,0.004217,0.001227,-0.014299,0.336662,0.313322,9.692893,0.000000,0.000000,0,0,,38.990285,-76.940895,-9.014000,,,
2026-09-11T19:05:04.779,1.036118,-0.000000,-0.000000,-0.000000,0.000000,11.369478,-3.911518,-0.000000,-0.007555,-0.015905,-0.007361,-0.000013,-0.003496,-0.006024,0.001734,-0.014421,0.338722,0.397169,9.695933,0.000000,0.000000,0,0,,38.990285,-76.940895,-9.014000,,,
2026-09-11T19:05:04.812,1.069538,-0.000000,-0.000000,-0.000000,0.000000,13.650514,-4.696278,-0.000000,-0.008432,-0.017751,-0.007923,-0.000015,-0.003763,-0.014922,0.002932,-0.016267,0.385303,0.312930,9.702209,0.000000,0.000000,0,0,,38.990285,-76.940895,-9.014000,,,
2026-09-11T19:05:04.844,1.102954,-0.000000,-0.000000,-0.000000,0.000000,15.873872,-5.461195,-0.000000,-0.006592,-0.013877,-0.008452,-0.000017,-0.004014,-0.015517,-0.001132,-0.012394,0.389716,0.426099,9.682792,0.000000,0.000000,0,1,1.103357,38.990285,-76.940895,-9.048000,-0.015989,0.029837,2.592730
2026-09-11T19:05:04.880,1.136365,-0.000000,-0.000000,-0.000000,0.000000,18.235933,-6.273830,-0.000000,-0.003523,-0.007417,-0.008807,-0.000018,-0.004183,-0.002429,0.002017,-0.005934,0.341958,0.318520,9.713095,0.000000,0.000000,0,0,,38.990285,-76.940895,-9.048000,,,
2026-09-11T19:05:04.912,1.169784,-0.000000,-0.000000,-0.000000,0.000000,21.344377,-7.343249,-0.000000,-0.003477,-0.007320,-0.009054,-0.000019,-0.004300,0.004838,0.001729,-0.005837,0.408055,0.318814,9.688578,0.000000,0.000000,0,0,,38.990285,-76.940895,-9.048000,,,
2026-09-11T19:05:04.946,1.203214,-0.000000,-0.000000,-0.000000,0.000000,22.074968,-7.594599,-0.000000,-0.002227,-0.004688,-0.009254,-0.000020,-0.004396,0.004061,-0.000479,-0.003204,0.439632,0.408447,9.686813,0.000000,0.000000,0,0,,38.990285,-76.940895,-9.048000,,,
2026-09-11T19:05:04.980,1.236628,-0.000000,-0.000000,-0.000000,0.000000,22.191011,-7.634522,-0.000000,-0.001257,-0.002646,-0.009377,-0.000021,-0.004454,0.008694,0.001569,-0.001162,0.408055,0.323227,9.690049,0.000000,0.000000,0,0,,38.990285,-76.940895,-9.048000,,,
2026-09-11T19:05:05.012,1.270040,-0.000000,-0.000000,-0.000000,0.000000,22.203370,-7.638774,-0.000000,-0.000679,-0.001429,-0.009445,-0.000021,-0.004486,0.010777,0.000602,0.000055,0.418450,0.329896,9.689951,0.000000,0.000000,0,0,,38.990285,-76.940895,-9.048000,,,
2026-09-11T19:05:05.046,1.303469,-0.000000,-0.000000,-0.000000,0.000000,22.512362,-7.745079,-0.000000,-0.000081,-0.000170,-0.009472,-0.000021,-0.004499,0.000247,0.000040,0.001314,0.429629,0.344802,9.692108,0.000000,0.000000,0,0,,38.990285,-76.940895,-9.048000,,,
2026-09-11T19:05:05.080,1.336882,-0.000000,-0.000000,-0.000000,0.000000,22.865298,-7.866502,-0.000000,-0.003345,-0.007043,-0.009592,-0.000022,-0.004556,-0.001277,0.000311,-0.005559,0.386676,0.313715,9.690245,0.000000,0.000000,0,0,,38.990285,-76.940895,-9.048000,,,
2026-09-11T19:05:05.113,1.370298,-0.000000,-0.000000,-0.000000,0.000000,23.407061,-8.052888,-0.000000,-0.002709,-0.005702,-0.009805,-0.000023,-0.004657,-0.003356,-0.000189,-0.004219,0.394129,0.325581,9.699169,0.000000,0.000000,0,0,,38.990285,-76.940895,-9.048000,,,
2026-09-11T19:05:05.146,1.403730,-0.000000,-0.000000,-0.000000,0.000000,23.897326,-8.221557,-0.000000,-0.004471,-0.009412,-0.010058,-0.000024,-0.004777,-0.005439,0.002046,-0.007928,0.359414,0.305673,9.694952,0.000000,0.000000,0,0,,38.990285,-76.940895,-9.048000,,,
2026-09-11T19:05:05.182,1.437142,-0.000000,-0.000000,-0.000000,0.000000,24.889529,-8.562911,-0.000000,-0.004408,-0.009280,-0.010370,-0.000026,-0.004926,-0.005745,0.000452,-0.007796,0.379125,0.291258,9.691030,0.000000,0.000000,0,0,,38.990285,-76.940895,-9.048000,,,
2026-09-11T19:05:05.213,1.470556,-0.000000,-0.000000,-0.000000,0.000000,25.852206,-8.894108,-0.000000,-0.004204,-0.008851,-0.010673,-0.000027,-0.005070,-0.003613,-0.000378,-0.007367,0.421392,0.323129,9.689951,0.000000,0.000000,0,0,,38.990285,-76.940895,-9.048000,,,
2026-09-11T19:05:05.247,1.503990,-0.000000,-0.000000,-0.000000,0.000000,27.078555,-9.316017,-0.000000,-0.004837,-0.010184,-0.010991,-0.000029,-0.005221,0.002938,0.001382,-0.008701,0.380890,0.319010,9.695541,0.000000,0.000000,0,0,,38.990285,-76.940895,-9.048000,,,
2026-09-11T19:05:05.280,1.537405,-0.000000,-0.000000,-0.000000,0.000000,28.186801,-9.697294,-0.000000,-0.003323,-0.006997,-0.011278,-0.000030,-0.005357,0.009810,0.000611,-0.005513,0.381184,0.349705,9.706818,0.000000,0.000000,0,0,,38.990285,-76.940895,-9.048000,,,
2026-09-11T19:05:05.313,1.570815,-0.000000,-0.000000,-0.000000,0.000000,29.073260,-10.002268,-0.000000,-0.001891,-0.003981,-0.011462,-0.000031,-0.005444,0.009891,-0.000989,-0.002497,0.378242,0.360198,9.709074,0.000000,0.000000,0,0,,38.990285,-76.940895,-9.048000,,,
2026-09-11T19:05:05.347,1.604242,-0.000000,-0.000000,-0.000000,0.000000,29.807971,-10.255036,-0.000000,-0.002628,-0.005532,-0.011620,-0.000032,-0.005520,0.013383,0.002116,-0.004048,0.398738,0.348823,9.702111,0.000000,0.000000,0,0,,38.990285,-76.940895,-9.048000,,,
2026-09-11T19:05:05.381,1.637762,-0.000000,-0.000000,-0.000000,0.000000,30.425265,-10.467408,-0.000000,-0.002533,-0.005333,-0.011803,-0.000033,-0.005606,0.008133,0.000115,-0.003850,0.419332,0.350195,9.689265,0.000000,0.000000,0,0,,38.990285,-76.940895,-9.048000,,,
2026-09-11T19:05:05.414,1.671176,-0.000000,-0.000000,-0.000000,0.000000,30.900424,-10.630880,-0.000000,-0.001394,-0.002935,-0.011941,-0.000034,-0.005672,0.000728,-0.000404,-0.001452,0.411389,0.359218,9.695345,0.000000,0.000000,0,0,,38.990285,-76.940895,-9.048000,,,
2026-09-11T19:05:05.448,1.704603,-0.000000,-0.000000,-0.000000,0.000000,31.172335,-10.724427,-0.000000,-0.000976,-0.002055,-0.012024,-0.000034,-0.005711,-0.001053,0.000756,-0.000571,0.401975,0.381773,9.692403,0.000000,0.000000,0,0,,38.990285,-76.940895,-9.048000,,,
2026-09-11T19:05:05.481,1.738016,-0.000000,-0.000000,-0.000000,0.000000,31.212161,-10.738129,-0.000000,0.000033,0.000071,-0.012057,-0.000035,-0.005727,-0.007798,-0.000216,0.001554,0.378144,0.348921,9.700836,0.000000,0.000000,0,0,,38.990285,-76.940895,-9.048000,,,
2026-09-11T19:05:05.515,1.771427,-0.000000,-0.000000,-0.000000,0.000000,31.256106,-10.753248,-0.000000,0.000560,0.001179,-0.012036,-0.000034,-0.005717,-0.011945,0.000511,0.002663,0.404819,0.375693,9.687107,0.000000,0.000000,0,0,,38.990285,-76.940895,-9.048000,,,
2026-09-11T19:05:05.548,1.804852,-0.000000,-0.000000,-0.000000,0.000000,31.300052,-10.768366,-0.000000,0.000026,0.000054,-0.012016,-0.000034,-0.005707,-0.011545,-0.001332,0.001537,0.411291,0.358433,9.678085,0.000000,0.000000,0,0,,38.990285,-76.940895,-9.048000,,,
2026-09-11T19:05:05.581,1.838264,-0.000000,-0.000000,-0.000000,0.000000,30.963595,-10.652613,-0.000000,0.001641,0.003455,-0.011957,-0.000034,-0.005680,-0.015318,-0.000543,0.004939,0.415900,0.371084,9.704269,0.000000,0.000000,0,0,,38.990285,-76.940895,-9.048000,,,
2026-09-11T19:05:05.614,1.871677,-0.000000,-0.000000,-0.000000,0.000000,29.799044,-10.251965,-0.000000,0.003114,0.006555,-0.011790,-0.000033,-0.005600,-0.006373,0.001433,0.008038,0.416096,0.400307,9.705053,0.000000,0.000000,0,0,,38.990285,-76.940895,-9.048000,,,
2026-09-11T19:05:05.649,1.905103,-0.000000,-0.000000,-0.000000,0.000000,27.645037,-9.510907,-0.000000,0.006460,0.013599,-0.011453,-0.000031,-0.005440,-0.003360,-0.001333,0.015083,0.364317,0.369220,9.706230,0.000000,0.000000,0,0,,38.990285,-76.940895,-9.048000,,,
2026-09-11T19:05:05.681,1.938514,-0.000000,-0.000000,-0.000000,0.000000,25.769122,-8.865524,-0.000000,0.007723,0.016259,-0.010954,-0.000029,-0.005203,-0.000697,0.000815,0.017743,0.354216,0.403053,9.690539,0.000000,0.000000,0,0,,38.990285,-76.940895,-9.048000,,,
2026-09-11T19:05:05.715,1.971926,-0.000000,-0.000000,-0.000000,0.000000,24.796832,-8.531020,-0.000000,0.009619,0.020250,-0.010344,-0.000025,-0.004914,0.005311,0.001683,0.021734,0.342448,0.425020,9.659943,0.000000,0.000000,0,0,,38.990285,-76.940895,-9.048000,,,
2026-09-11T19:05:05.749,2.005353,-0.000000,-0.000000,-0.000000,0.000000,21.695254,-7.463964,-0.000000,0.010775,0.022685,-0.009627,-0.000022,-0.004573,-0.005040,-0.000669,0.024168,0.346861,0.217413,9.680046,0.000000,0.000000,0,0,,38.990285,-76.940895,-9.048000,,,
2026-09-11T19:05:05.782,2.038769,-0.000000,-0.000000,-0.000000,0.000000,19.694369,-6.775586,-0.000000,0.005651,0.011898,-0.009049,-0.000019,-0.004298,-0.022453,0.002225,0.013381,0.388343,0.268016,9.657197,0.000000,0.000000,0,0,,38.990285,-76.940895,-9.048000,,,
2026-09-11T19:05:05.815,2.072184,-0.000000,-0.000000,-0.000000,0.000000,17.402346,-5.987046,-0.000000,0.004915,0.010347,-0.008677,-0.000018,-0.004122,-0.024330,0.002138,0.011831,0.477192,0.853767,9.739082,0.000000,0.000000,0,0,,38.990285,-76.940895,-9.048000,,,
2026-09-11T19:05:05.849,2.105613,-0.000000,-0.000000,-0.000000,0.000000,13.190463,-4.538003,-0.000000,0.009928,0.020901,-0.008155,-0.000016,-0.003874,-0.038252,-0.002555,0.022385,0.513084,0.437671,9.752910,0.000000,0.000000,0,1,2.104358,38.990285,-76.940896,-9.037000,-0.024343,0.029096,2.483558
2026-09-11T19:05:05.882,2.139026,-0.000000,-0.000000,-0.000000,0.000000,9.792254,-3.368895,-0.000000,0.013664,0.028765,-0.007325,-0.000013,-0.003479,-0.017474,0.000109,0.030249,0.325777,0.274194,9.795667,0.000000,0.000000,0,0,,38.990285,-76.940896,-9.037000,,,
2026-09-11T19:05:05.915,2.172440,-0.000000,-0.000000,-0.000000,0.000000,4.907458,-1.688346,-0.000000,0.009692,0.020405,-0.006504,-0.000010,-0.003089,-0.015433,0.003089,0.021888,0.391481,0.177304,9.682694,0.000000,0.000000,0,0,,38.990285,-76.940896,-9.037000,,,
2026-09-11T19:05:05.949,2.205866,-0.000000,-0.000000,-0.000000,0.000000,-2.033157,0.699481,-0.000000,0.012921,0.027203,-0.005708,-0.000008,-0.002711,0.000601,-0.001199,0.028686,0.355981,0.651064,9.667396,0.000000,0.000000,0,0,,38.990285,-76.940896,-9.037000,,,
2026-09-11T19:05:05.982,2.239284,-0.000000,-0.000000,-0.000000,0.000000,-3.659821,1.259113,-0.000000,0.014932,0.031437,-0.004728,-0.000005,-0.002246,0.013183,0.001952,0.032920,0.244284,0.085220,9.821066,0.000000,0.000000,0,0,,38.990285,-76.940896,-9.037000,,,
2026-09-11T19:05:06.016,2.272697,-0.000000,-0.000000,-0.000000,0.000000,-7.496796,2.579173,-0.000000,0.010149,0.021367,-0.003846,-0.000004,-0.001827,0.005328,0.002009,0.022850,0.430218,0.268212,9.777524,0.000000,0.000000,0,0,,38.990285,-76.940896,-9.037000,,,
2026-09-11T19:05:06.050,2.306126,-0.000000,-0.000000,-0.000000,0.000000,-13.879852,4.775179,-0.000000,0.010533,0.022175,-0.003118,-0.000002,-0.001481,-0.001112,0.001047,0.023658,0.422961,0.512594,9.717017,0.000000,0.000000,0,0,,38.990285,-76.940896,-9.037000,,,
2026-09-11T19:05:06.083,2.339543,-0.000000,-0.000000,-0.000000,0.000000,-16.360703,5.628682,-0.000000,0.013824,0.029103,-0.002262,-0.000001,-0.001074,0.010961,0.001796,0.030586,0.282039,0.120524,9.663375,0.000000,0.000000,0,0,,38.990285,-76.940896,-9.037000,,,
2026-09-11T19:05:06.116,2.372957,-0.000000,-0.000000,-0.000000,0.000000,-21.770782,7.489948,-0.000000,0.008450,0.017789,-0.001478,-0.000001,-0.000702,-0.006635,0.002837,0.019273,0.346077,0.177598,9.730256,0.000000,0.000000,0,0,,38.990285,-76.940896,-9.037000,,,
2026-09-11T19:05:06.149,2.406381,-0.000000,-0.000000,-0.000000,0.000000,-26.906204,9.256722,-0.000000,0.008572,0.018046,-0.000879,-0.000000,-0.000418,-0.011234,0.001574,0.019530,0.545152,0.520733,9.703975,0.000000,0.000000,0,0,,38.990285,-76.940896,-9.037000,,,
2026-09-11T19:05:06.182,2.439793,-0.000000,-0.000000,-0.000000,0.000000,-27.732239,9.540908,-0.000000,0.011261,0.023708,-0.000182,-0.000000,-0.000086,-0.007613,0.000744,0.025191,0.386088,0.278313,9.764482,0.000000,0.000000,0,0,,38.990285,-76.940896,-9.037000,,,
2026-09-11T19:05:06.216,2.473206,-0.000000,-0.000000,-0.000000,0.000000,-30.557098,10.512763,-0.000000,0.008385,0.017653,0.000509,-0.000000,0.000242,-0.020575,0.003487,0.019136,0.415116,0.050406,9.727412,0.000000,0.000000,0,0,,38.990285,-76.940896,-9.037000,,,
2026-09-11T19:05:06.250,2.506631,-0.000000,-0.000000,-0.000000,0.000000,-33.702621,11.594939,-0.000000,0.006527,0.013742,0.001034,-0.000000,0.000491,-0.027698,0.002270,0.015226,0.485331,0.347548,9.637682,0.000000,0.000000,0,0,,38.990285,-76.940896,-9.037000,,,
2026-09-11T19:05:06.283,2.540045,-0.000000,-0.000000,-0.000000,0.000000,-40.501099,13.933864,-0.000000,0.012258,0.025806,0.001695,-0.000001,0.000805,-0.012195,0.000864,0.027289,0.354608,0.429237,9.733296,0.000000,0.000000,0,0,,38.990285,-76.940896,-9.037000,,,
2026-09-11T19:05:06.316,2.573458,-0.000000,-0.000000,-0.000000,0.000000,-44.719849,15.385269,-0.000000,0.015798,0.033258,0.002681,-0.000002,0.001274,0.005074,0.003741,0.034742,0.250070,0.035206,9.734767,0.000000,0.000000,0,0,,38.990285,-76.940896,-9.037000,,,
2026-09-11T19:05:06.350,2.606879,-0.000000,-0.000000,-0.000000,0.000000,-54.246368,18.662741,-0.000000,0.013019,0.027408,0.003695,-0.000003,0.001755,0.015131,0.003389,0.028891,0.343037,0.385990,9.689166,0.000000,0.000000,0,0,,38.990285,-76.940896,-9.037000,,,
2026-09-11T19:05:06.383,2.640294,-0.000000,-0.000000,-0.000000,0.000000,-56.701126,19.507268,-0.000000,0.014870,0.031304,0.004676,-0.000005,0.002221,0.013369,0.002617,0.032788,0.303712,0.045307,9.703582,0.000000,0.000000,0,0,,38.990285,-76.940896,-9.037000,,,
2026-09-11T19:05:06.417,2.673707,-0.000000,-0.000000,-0.000000,0.000000,-61.040726,21.000250,-0.000000,0.008352,0.017582,0.005493,-0.000007,0.002609,-0.005366,0.006299,0.019066,0.559371,0.193681,9.798118,0.000000,0.000000,0,0,,38.990285,-76.940896,-9.037000,,,
2026-09-11T19:05:06.450,2.707159,-0.000000,-0.000000,-0.000000,0.000000,-65.616531,22.574495,-0.000000,0.008685,0.018284,0.006093,-0.000009,0.002894,-0.013774,0.004249,0.019767,0.484252,0.214177,9.616695,0.000000,0.000000,0,0,,38.990285,-76.940896,-9.037000,,,
2026-09-11T19:05:06.483,2.740573,-0.000000,-0.000000,-0.000000,0.000000,-70.049515,24.099604,-0.000000,0.010938,0.023028,0.006783,-0.000011,0.003222,-0.005608,0.002763,0.024511,0.478270,-0.011376,9.659354,0.000000,0.000000,0,0,,38.990285,-76.940896,-9.037000,,,
2026-09-11T19:05:06.517,2.773985,-0.000000,-0.000000,-0.000000,0.000000,-77.553864,26.681375,-0.000000,0.009910,0.020863,0.007516,-0.000013,0.003570,0.023435,0.004669,0.022346,0.335878,0.422765,9.675731,0.000000,0.000000,0,0,,38.990285,-76.940896,-9.037000,,,
2026-09-11T19:05:06.551,2.807414,-0.000000,-0.000000,-0.000000,0.000000,-80.277100,27.618268,-0.000000,0.012877,0.027108,0.008318,-0.000016,0.003951,0.042224,0.005654,0.028592,0.231143,0.121014,9.648077,0.000000,0.000000,0,0,,38.990285,-76.940896,-9.037000,,,
2026-09-11T19:05:06.584,2.840830,-0.000000,-0.000000,-0.000000,0.000000,-85.676880,29.475991,-0.000000,0.009237,0.019446,0.009096,-0.000020,0.004320,0.020998,0.002255,0.020930,0.423941,0.094634,9.676320,0.000000,0.000000,0,0,,38.990285,-76.940896,-9.037000,,,
2026-09-11T19:05:06.617,2.874240,-0.000000,-0.000000,-0.000000,0.000000,-90.724411,31.212527,-0.000000,0.008432,0.017753,0.009717,-0.000022,0.004616,0.005826,0.003886,0.019236,0.390795,0.263407,9.707407,0.000000,0.000000,0,0,,38.990285,-76.940896,-9.037000,,,
2026-09-11T19:05:06.651,2.907793,-0.000000,-0.000000,-0.000000,0.000000,-93.074112,32.020910,-0.000000,0.006212,0.013077,0.010234,-0.000025,0.004861,-0.031630,0.004067,0.014561,0.474642,0.001471,9.640624,0.000000,0.000000,0,0,,38.990285,-76.940896,-9.037000,,,
2026-09-11T19:05:06.684,2.941205,-0.000000,-0.000000,-0.000000,0.000000,-94.897842,32.648340,-0.000000,0.005173,0.010891,0.010635,-0.000027,0.005051,-0.045162,0.000893,0.012375,0.430904,0.206136,9.707015,0.000000,0.000000,0,0,,38.990285,-76.940896,-9.037000,,,
2026-09-11T19:05:06.718,2.974619,-0.000000,-0.000000,-0.000000,0.000000,-100.243378,34.487401,-0.000000,0.007452,0.015689,0.011079,-0.000029,0.005262,-0.035344,0.004199,0.017172,0.355785,0.321462,9.677006,0.000000,0.000000,0,0,,38.990285,-76.940896,-9.037000,,,
2026-09-11T19:05:06.751,3.008044,-0.000000,-0.000000,-0.000000,0.000000,-104.074173,35.805335,-0.000000,0.009230,0.019432,0.011666,-0.000032,0.005541,-0.016432,0.002350,0.020916,0.401778,0.155435,9.708093,0.000000,0.000000,0,0,,38.990285,-76.940896,-9.037000,,,
2026-09-11T19:05:06.784,3.041459,-0.000000,-0.000000,-0.000000,0.000000,-104.341278,35.897229,-0.000000,0.006283,0.013228,0.012212,-0.000035,0.005800,-0.023865,0.001205,0.014711,0.370593,0.206626,9.720352,0.000000,0.000000,0,0,,38.990285,-76.940896,-9.037000,,,
2026-09-11T19:05:06.818,3.074872,0.281239,0.015346,2.604065,0.000000,-105.167313,36.181415,0.227003,0.002998,0.006312,0.012538,0.003755,0.006003,-0.026557,0.004770,0.007796,0.409624,0.227318,9.699758,0.000000,0.000000,0,0,,38.990285,-76.940896,-9.037000,,,
2026-09-11T19:05:06.852,3.108301,0.055389,0.015255,0.512857,0.000000,-105.437851,36.274490,0.044654,0.003601,0.007582,0.012770,0.008294,0.006170,-0.024032,0.000499,0.009065,0.421588,0.040698,9.716821,0.000000,0.000000,0,1,3.105048,38.990285,-76.940896,-9.061000,-0.089307,0.024463,2.485178
2026-09-11T19:05:06.885,3.141720,0.006291,0.015175,0.058246,0.000000,-105.436478,36.274018,0.005071,0.001479,0.003114,0.012949,0.009123,0.006266,-0.023608,0.001783,0.004598,0.334897,0.170930,9.714664,0.000000,0.000000,0,0,,38.990285,-76.940896,-9.061000,,,
2026-09-11T19:05:06.918,3.175152,-0.000000,0.015164,-0.000000,0.000000,-105.436478,36.274018,-0.000000,0.000069,0.000146,0.013003,0.009208,0.006293,-0.008219,0.001764,0.001630,0.343527,0.164163,9.684557,0.000000,0.000000,0,0,,38.990285,-76.940896,-9.061000,,,
2026-09-11T19:05:06.951,3.208584,-0.000000,0.015164,-0.000000,0.000000,-105.436478,36.274018,-0.000000,-0.000335,-0.000705,0.012994,0.009208,0.006288,-0.003914,-0.000485,0.000778,0.341762,0.118464,9.695050,0.000000,0.000000,0,0,,38.990285,-76.940896,-9.061000,,,
2026-09-11T19:05:06.985,3.242002,-0.000000,0.015164,-0.000000,0.000000,-105.436478,36.274018,-0.000000,-0.001499,-0.003156,0.012930,0.009208,0.006258,0.002500,0.000021,-0.001672,0.290865,0.195250,9.702994,0.000000,0.000000,0,0,,38.990285,-76.940896,-9.061000,,,
2026-09-11T19:05:07.019,3.275416,-0.000000,0.015164,-0.000000,0.000000,-105.366440,36.249922,-0.000000,-0.003755,-0.007906,0.012745,0.009209,0.006170,0.023340,-0.000504,-0.006422,0.348921,0.081689,9.703190,0.000000,0.000000,0,0,,38.990285,-76.940896,-9.061000,,,
2026-09-11T19:05:07.052,3.308849,-0.000000,0.015164,-0.000000,0.000000,-105.305328,36.228897,-0.000000,-0.003158,-0.006648,0.012501,0.009211,0.006054,0.036786,-0.002093,-0.005165,0.384911,0.167596,9.704465,0.000000,0.000000,0,0,,38.990285,-76.940896,-9.061000,,,
2026-09-11T19:05:07.085,3.342263,-0.000000,0.015164,-0.000000,0.000000,-105.157700,36.178108,-0.000000,-0.005927,-0.012477,0.012182,0.009213,0.005903,0.045502,-0.000943,-0.010994,0.383342,0.162398,9.696227,0.000000,0.000000,0,0,,38.990285,-76.940896,-9.061000,,,
2026-09-11T19:05:07.119,3.375678,-0.263278,-0.000137,-2.437763,0.000000,-104.922867,36.097317,-0.212734,-0.007451,-0.015686,0.011711,0.005661,0.005638,0.059305,-0.001184,-0.014203,0.420607,0.231731,9.688382,0.000000,0.000000,0,0,,38.990285,-76.940896,-9.061000,,,
2026-09-11T19:05:07.152,3.409102,-0.051597,-0.000114,-0.477752,0.000000,-104.211502,35.852581,-0.041821,-0.006067,-0.012773,0.011236,0.001410,0.005362,0.052573,-0.001894,-0.011289,0.423647,0.209960,9.721332,0.000000,0.000000,0,0,,38.990285,-76.940896,-9.061000,,,
2026-09-11T19:05:07.185,3.442514,-0.013110,-0.000171,-0.121386,0.000000,-102.529907,35.274051,-0.010703,-0.011710,-0.024653,0.010611,0.000536,0.005055,0.047758,0.000137,-0.023169,0.366769,0.220257,9.677693,0.000000,0.000000,0,0,,38.990285,-76.940896,-9.061000,,,
2026-09-11T19:05:07.219,3.475928,-0.000000,-0.000000,-0.000000,0.000000,-101.554184,34.938366,-0.000000,-0.006521,-0.013728,0.009969,0.000360,0.004749,0.045739,-0.000735,-0.012244,0.356178,0.513378,9.629836,0.000000,0.000000,0,0,,38.990285,-76.940896,-9.061000,,,
2026-09-11T19:05:07.253,3.509355,-0.000000,-0.000000,-0.000000,0.000000,-100.924530,34.721742,-0.000000,-0.003508,-0.007385,0.009616,0.000362,0.004581,0.042951,-0.000209,-0.005901,0.350686,0.195545,9.730943,0.000000,0.000000,0,0,,38.990285,-76.940896,-9.061000,,,
2026-09-11T19:05:07.286,3.542769,-0.000000,-0.000000,-0.000000,0.000000,-99.458542,34.217388,-0.000000,-0.006489,-0.013661,0.009265,0.000364,0.004414,0.021948,0.001354,-0.012178,0.311655,0.308223,9.722411,0.000000,0.000000,0,0,,38.990285,-76.940896,-9.061000,,,
2026-09-11T19:05:07.319,3.576190,-0.000000,-0.000000,-0.000000,0.000000,-96.874008,33.328214,-0.000000,-0.009794,-0.020619,0.008692,0.000366,0.004142,-0.021614,0.000658,-0.019135,0.456696,0.319893,9.686617,0.000000,0.000000,0,0,,38.990285,-76.940896,-9.061000,,,
2026-09-11T19:05:07.353,3.609616,-0.000000,-0.000000,-0.000000,0.000000,-90.817795,31.244654,-0.000000,-0.011044,-0.023251,0.007959,0.000369,0.003794,-0.045232,0.000709,-0.021767,0.510730,0.125329,9.751341,0.000000,0.000000,0,0,,38.990285,-76.940896,-9.061000,,,
2026-09-11T19:05:07.386,3.643038,-0.000000,-0.000000,-0.000000,0.000000,-87.955170,30.259806,-0.000000,-0.014611,-0.030759,0.007056,0.000372,0.003365,-0.053472,-0.001170,-0.029275,0.471896,0.319893,9.650528,0.000000,0.000000,0,0,,38.990285,-76.940896,-9.061000,,,
2026-09-11T19:05:07.419,3.676454,-0.000000,-0.000000,-0.000000,0.000000,-81.898270,28.176010,-0.000000,-0.007875,-0.016579,0.006265,0.000375,0.002990,-0.019476,-0.000254,-0.015096,0.423255,0.302241,9.665238,0.000000,0.000000,0,0,,38.990285,-76.940896,-9.061000,,,
2026-09-11T19:05:07.453,3.709884,-0.000000,-0.000000,-0.000000,0.000000,-78.167725,26.892566,-0.000000,-0.005783,-0.012176,0.005785,0.000376,0.002761,0.013820,-0.000762,-0.010692,0.404720,0.052760,9.715448,0.000000,0.000000,0,0,,38.990285,-76.940896,-9.061000,,,
2026-09-11T19:05:07.486,3.743308,-0.000000,-0.000000,-0.000000,0.000000,-78.290634,26.934851,-0.000000,-0.006122,-0.012888,0.005366,0.000377,0.002562,0.047051,0.001068,-0.011405,0.384911,0.454538,9.712016,0.000000,0.000000,0,0,,38.990285,-76.940896,-9.061000,,,
2026-09-11T19:05:07.520,3.776728,-0.000000,-0.000000,-0.000000,0.000000,-78.255615,26.922803,-0.000000,-0.003990,-0.008399,0.005010,0.000378,0.002393,0.059807,0.001507,-0.006916,0.408839,0.212314,9.714762,0.000000,0.000000,0,0,,38.990285,-76.940896,-9.061000,,,
2026-09-11T19:05:07.553,3.810149,-0.000000,-0.000000,-0.000000,0.000000,-78.191071,26.900598,-0.000000,-0.005624,-0.011839,0.004672,0.000379,0.002233,0.051899,0.000409,-0.010356,0.358531,0.264387,9.721921,0.000000,0.000000,0,0,,38.990285,-76.940896,-9.061000,,,
2026-09-11T19:05:07.586,3.843572,-0.000000,-0.000000,-0.000000,0.000000,-77.043686,26.505855,-0.000000,-0.007617,-0.016037,0.004206,0.000380,0.002011,0.027218,-0.001271,-0.014553,0.392168,0.370593,9.668474,0.000000,0.000000,0,0,,38.990285,-76.940896,-9.061000,,,
2026-09-11T19:05:07.620,3.876991,-0.000000,-0.000000,-0.000000,0.000000,-75.378571,25.932994,-0.000000,-0.007525,-0.015841,0.003673,0.000381,0.001758,0.013505,0.002559,-0.014358,0.383734,0.303908,9.705249,0.000000,0.000000,0,0,,38.990285,-76.940896,-9.061000,,,
2026-09-11T19:05:07.653,3.910411,-0.000000,-0.000000,-0.000000,0.000000,-72.393036,24.905861,-0.000000,-0.008010,-0.016863,0.003127,0.000382,0.001499,0.001615,0.001722,-0.015379,0.354903,0.283216,9.710741,0.000000,0.000000,0,0,,38.990285,-76.940896,-9.061000,,,
2026-09-11T19:05:07.686,3.943832,-0.000000,-0.000000,-0.000000,0.000000,-67.552185,23.240431,-0.000000,-0.011886,-0.025024,0.002427,0.000383,0.001166,-0.040808,-0.001930,-0.023540,0.459147,0.270467,9.667102,0.000000,0.000000,0,0,,38.990285,-76.940896,-9.061000,,,
2026-09-11T19:05:07.721,3.977257,-0.000000,-0.000000,-0.000000,0.000000,-61.908646,21.298846,-0.000000,-0.015627,-0.032899,0.001459,0.000383,0.000707,-0.059883,0.001192,-0.031415,0.455421,0.363336,9.675437,0.000000,0.000000,0,0,,38.990285,-76.940896,-9.061000,,,
2026-09-11T19:05:07.754,4.010677,-0.000000,-0.000000,-0.000000,0.000000,-53.727264,18.484151,-0.000000,-0.014164,-0.029820,0.000411,0.000384,0.000209,-0.064060,0.002108,-0.028336,0.380498,0.511319,9.765364,0.000000,0.000000,0,0,,38.990285,-76.940896,-9.061000,,,
2026-09-11T19:05:07.787,4.044094,-0.000000,-0.000000,-0.000000,0.000000,-51.251907,17.632537,-0.000000,-0.012586,-0.026497,-0.000530,0.000384,-0.000238,-0.052752,0.000543,-0.025014,0.405505,0.255856,9.705838,0.000000,0.000000,0,0,,38.990285,-76.940896,-9.061000,,,
2026-09-11T19:05:07.821,4.077514,-0.000000,-0.000000,-0.000000,0.000000,-49.044342,16.873053,-0.000000,-0.008309,-0.017492,-0.001265,0.000384,-0.000587,-0.000743,-0.000562,-0.016008,0.320972,0.117288,9.654059,0.000000,0.000000,0,0,,38.990285,-76.940896,-9.061000,,,
2026-09-11T19:05:07.854,4.110929,-0.000000,-0.000000,-0.000000,0.000000,-47.691650,16.407678,-0.000000,-0.004192,-0.008825,-0.001705,0.000383,-0.000796,0.028264,0.000170,-0.007342,0.348136,-0.014612,9.550304,0.000000,0.000000,0,1,4.106174,38.990285,-76.940896,-9.080000,-0.078936,0.045961,2.592730
2026-09-11T19:05:07.888,4.144342,-0.000000,-0.000000,-0.000000,0.000000,-46.720734,16.073647,-0.000000,-0.006217,-0.013088,-0.002071,0.000383,-0.000970,0.042489,0.001331,-0.011604,0.421490,0.373437,9.635230,0.000000,0.000000,0,0,,38.990285,-76.940896,-9.080000,,,
2026-09-11T19:05:07.921,4.177762,-0.000000,-0.000000,-0.000000,0.000000,-45.926285,15.800327,-0.000000,-0.005368,-0.011301,-0.002478,0.000382,-0.001164,0.041407,0.000910,-0.009818,0.398935,0.356276,9.714860,0.000000,0.000000,0,0,,38.990285,-76.940896,-9.080000,,,
2026-09-11T19:05:07.954,4.211175,-0.000000,-0.000000,-0.000000,0.000000,-44.583893,15.338495,-0.000000,-0.002871,-0.006044,-0.002768,0.000382,-0.001301,0.031352,0.000337,-0.004560,0.424040,0.281157,9.693678,0.000000,0.000000,0,0,,38.990285,-76.940896,-9.080000,,,
2026-09-11T19:05:07.988,4.244587,-0.000000,-0.000000,-0.000000,0.000000,-42.064590,14.471763,-0.000000,-0.003677,-0.007742,-0.002999,0.000382,-0.001411,0.006693,0.000634,-0.006258,0.419332,0.372751,9.653274,0.000000,0.000000,0,0,,38.990285,-76.940896,-9.080000,,,
2026-09-11T19:05:08.021,4.278009,-0.000000,-0.000000,-0.000000,0.000000,-40.652847,13.986071,-0.000000,-0.005850,-0.012316,-0.003334,0.000381,-0.001570,-0.014004,0.001532,-0.010833,0.401386,0.295572,9.708878,0.000000,0.000000,0,0,,38.990285,-76.940896,-9.080000,,,
2026-09-11T19:05:08.055,4.311421,-0.000000,-0.000000,-0.000000,0.000000,-39.558334,13.609519,-0.000000,-0.004157,-0.008751,-0.003686,0.000381,-0.001737,-0.025393,-0.000510,-0.007267,0.375889,0.462187,9.664160,0.000000,0.000000,0,0,,38.990285,-76.940896,-9.080000,,,
2026-09-11T19:05:08.088,4.344834,-0.000000,-0.000000,-0.000000,0.000000,-39.407959,13.557784,-0.000000,0.000662,0.001394,-0.003809,0.000381,-0.001795,-0.022594,0.002401,0.002878,0.308027,0.443947,9.661708,0.000000,0.000000,0,0,,38.990285,-76.940896,-9.080000,,,
2026-09-11T19:05:08.122,4.378252,-0.000000,-0.000000,-0.000000,0.000000,-39.760208,13.678971,-0.000000,0.002951,0.006212,-0.003681,0.000381,-0.001735,-0.014896,0.001438,0.007695,0.332445,0.359806,9.675731,0.000000,0.000000,0,0,,38.990285,-76.940896,-9.080000,,,
2026-09-11T19:05:08.155,4.411670,-0.000000,-0.000000,-0.000000,0.000000,-40.216141,13.835828,-0.000000,0.005539,0.011662,-0.003383,0.000381,-0.001593,-0.015348,-0.001175,0.013145,0.364023,0.320579,9.705446,0.000000,0.000000,0,0,,38.990285,-76.940896,-9.080000,,,
2026-09-11T19:05:08.188,4.445085,-0.000000,-0.000000,-0.000000,0.000000,-40.559464,13.953944,-0.000000,0.005237,0.011025,-0.003004,0.000382,-0.001413,-0.016142,0.002921,0.012508,0.406093,0.344213,9.697600,0.000000,0.000000,0,0,,38.990285,-76.940896,-9.080000,,,
2026-09-11T19:05:08.222,4.478512,-0.000000,-0.000000,-0.000000,0.000000,-41.943054,14.429950,-0.000000,0.006467,0.013615,-0.002592,0.000382,-0.001218,-0.018697,0.000355,0.015099,0.436494,0.277332,9.701033,0.000000,0.000000,0,0,,38.990285,-76.940896,-9.080000,,,
2026-09-11T19:05:08.255,4.511930,-0.000000,-0.000000,-0.000000,0.000000,-43.219528,14.869104,-0.000000,0.004890,0.010296,-0.002192,0.000383,-0.001028,-0.020810,0.000470,0.011779,0.462580,0.221728,9.696325,0.000000,0.000000,0,0,,38.990285,-76.940896,-9.080000,,,
2026-09-11T19:05:08.289,4.545348,-0.000000,-0.000000,-0.000000,0.000000,-45.895386,15.789697,-0.000000,0.003341,0.007035,-0.001903,0.000383,-0.000890,-0.007575,0.003134,0.008518,0.455617,0.371574,9.691912,0.000000,0.000000,0,0,,38.990285,-76.940896,-9.080000,,,
2026-09-11T19:05:08.322,4.578765,-0.000000,-0.000000,-0.000000,0.000000,-50.797348,17.476152,-0.000000,0.008792,0.018510,-0.001476,0.000383,-0.000688,0.007474,0.000267,0.019994,0.396875,0.399719,9.694658,0.000000,0.000000,0,0,,38.990285,-76.940896,-9.080000,,,
2026-09-11T19:05:08.355,4.612178,-0.000000,-0.000000,-0.000000,0.000000,-51.955032,17.874438,-0.000000,0.010779,0.022693,-0.000788,0.000384,-0.000361,0.023453,0.001152,0.024177,0.329700,0.184561,9.679458,0.000000,0.000000,0,0,,38.990285,-76.940896,-9.080000,,,
2026-09-11T19:05:08.389,4.645593,-0.000000,-0.000000,-0.000000,0.000000,-53.143616,18.283354,-0.000000,0.002740,0.005768,-0.000312,0.000384,-0.000135,0.003120,0.001183,0.007252,0.386774,0.038736,9.677399,0.000000,0.000000,0,0,,38.990285,-76.940896,-9.080000,,,
2026-09-11T19:05:08.422,4.679018,-0.000000,-0.000000,-0.000000,0.000000,-53.141556,18.282645,-0.000000,-0.001226,-0.002582,-0.000259,0.000384,-0.000109,-0.020205,0.000601,-0.001098,0.400504,0.301653,9.679654,0.000000,0.000000,0,0,,38.990285,-76.940896,-9.080000,,,
2026-09-11T19:05:08.455,4.712432,-0.000000,-0.000000,-0.000000,0.000000,-53.074951,18.259731,-0.000000,0.001008,0.002121,-0.000267,0.000384,-0.000113,-0.023277,0.000269,0.003605,0.386872,0.327934,9.702994,0.000000,0.000000,0,0,,38.990285,-76.940896,-9.080000,,,
2026-09-11T19:05:08.490,4.745849,-0.000000,-0.000000,-0.000000,0.000000,-53.074951,18.259731,-0.000000,-0.000492,-0.001036,-0.000248,0.000384,-0.000104,-0.013240,0.000369,0.000448,0.360983,0.208195,9.720450,0.000000,0.000000,0,0,,38.990285,-76.940896,-9.080000,,,
2026-09-11T19:05:08.522,4.779265,-0.000000,-0.000000,-0.000000,0.000000,-53.074951,18.259731,-0.000000,-0.000442,-0.000930,-0.000281,0.000384,-0.000120,-0.011327,0.000596,0.000553,0.383538,0.290473,9.693972,0.000000,0.000000,0,0,,38.990285,-76.940896,-9.080000,,,
2026-09-11T19:05:08.556,4.812684,-0.000000,-0.000000,-0.000000,0.000000,-53.074951,18.259731,-0.000000,0.000029,0.000061,-0.000296,0.000384,-0.000127,0.002745,0.001202,0.001544,0.417273,0.176324,9.689951,0.000000,0.000000,0,0,,38.990285,-76.940896,-9.080000,,,
2026-09-11T19:05:08.589,4.846106,-0.000000,-0.000000,-0.000000,0.000000,-53.074951,18.259731,-0.000000,-0.001117,-0.002351,-0.000334,0.000384,-0.000145,0.015721,-0.000180,-0.000868,0.359218,0.284687,9.700248,0.000000,0.000000,0,0,,38.990285,-76.940896,-9.080000,,,
2026-09-11T19:05:08.622,4.879546,-0.000000,-0.000000,-0.000000,0.000000,-53.074951,18.259731,-0.000000,-0.001154,-0.002429,-0.000414,0.000384,-0.000183,0.016761,0.000895,-0.000946,0.389128,0.241734,9.707407,0.000000,0.000000,0,0,,38.990285,-76.940896,-9.080000,,,
2026-09-11T19:05:08.656,4.912966,-0.000000,-0.000000,-0.000000,0.000000,-53.074951,18.259731,-0.000000,-0.001873,-0.003943,-0.000521,0.000384,-0.000234,0.017183,0.001637,-0.002460,0.380302,0.257621,9.681321,0.000000,0.000000,0,0,,38.990285,-76.940896,-9.080000,,,
2026-09-11T19:05:08.689,4.946392,-0.000000,-0.000000,-0.000000,0.000000,-53.074951,18.259731,-0.000000,-0.002363,-0.004975,-0.000670,0.000384,-0.000304,0.015353,-0.001167,-0.003491,0.351765,0.263701,9.708486,0.000000,0.000000,0,0,,38.990285,-76.940896,-9.080000,,,
2026-09-11T19:05:08.723,4.979816,-0.000000,-0.000000,-0.000000,0.000000,-53.074951,18.259731,-0.000000,-0.001982,-0.004172,-0.000822,0.000384,-0.000377,0.010098,0.002920,-0.002689,0.403642,0.333034,9.674358,0.000000,0.000000,0,0,,38.990285,-76.940896,-9.080000,,,
2026-09-11T19:05:08.756,5.013247,-0.000000,-0.000000,-0.000000,0.000000,-53.074951,18.259731,-0.000000,-0.001341,-0.002823,-0.000939,0.000384,-0.000433,0.007300,0.001879,-0.001340,0.403348,0.295572,9.673574,0.000000,0.000000,0,0,,38.990285,-76.940896,-9.080000,,,
2026-09-11T19:05:08.790,5.046663,-0.000000,-0.000000,-0.000000,0.000000,-53.074951,18.259731,-0.000000,-0.000772,-0.001626,-0.001014,0.000384,-0.000468,0.001075,0.000191,-0.000142,0.400111,0.328523,9.697600,0.000000,0.000000,0,0,,38.990285,-76.940896,-9.080000,,,
2026-09-11T19:05:08.823,5.080079,-0.000000,-0.000000,-0.000000,0.000000,-53.074951,18.259731,-0.000000,-0.001301,-0.002739,-0.001087,0.000384,-0.000503,-0.003535,0.002642,-0.001256,0.431591,0.315578,9.687597,0.000000,0.000000,0,0,,38.990285,-76.940896,-9.080000,,,
2026-09-11T19:05:08.856,5.113499,-0.000000,-0.000000,-0.000000,0.000000,-53.074951,18.259731,-0.000000,0.000211,0.000444,-0.001125,0.000384,-0.000521,-0.006519,-0.001456,0.001928,0.405015,0.308321,9.689363,0.000000,0.000000,0,1,5.106194,38.990286,-76.940896,-9.118000,-0.090892,0.063196,2.592730
2026-09-11T19:05:08.890,5.146917,-0.000000,-0.000000,-0.000000,0.000000,-53.074951,18.259731,-0.000000,0.000660,0.001390,-0.001094,0.000384,-0.000506,-0.008174,0.000236,0.002873,0.427668,0.284883,9.686911,0.000000,0.000000,0,0,,38.990286,-76.940896,-9.118000,,,
2026-09-11T19:05:08.923,5.180329,-0.000000,-0.000000,-0.000000,0.000000,-53.074951,18.259731,-0.000000,-0.000606,-0.001276,-0.001092,0.000384,-0.000505,-0.004894,0.002747,0.000208,0.418156,0.286452,9.697502,0.000000,0.000000,0,0,,38.990286,-76.940896,-9.118000,,,
2026-09-11T19:05:08.956,5.213744,-0.000000,-0.000000,-0.000000,0.000000,-53.074951,18.259731,-0.000000,0.000881,0.001854,-0.001083,0.000384,-0.000501,-0.003797,-0.000560,0.003337,0.384225,0.268016,9.705249,0.000000,0.000000,0,0,,38.990286,-76.940896,-9.118000,,,
2026-09-11T19:05:08.990,5.247160,-0.000000,-0.000000,-0.000000,0.000000,-53.074951,18.259731,-0.000000,-0.000234,-0.000493,-0.001060,0.000384,-0.000490,-0.000096,0.000565,0.000991,0.395993,0.277626,9.691618,0.000000,0.000000,0,0,,38.990286,-76.940896,-9.118000,,,
2026-09-11T19:05:09.023,5.280567,-0.000000,-0.000000,-0.000000,0.000000,-53.074951,18.259731,-0.000000,-0.001800,-0.003790,-0.001132,0.000384,-0.000524,0.006021,0.002328,-0.002306,0.372555,0.284491,9.714370,0.000000,0.000000,0,0,,38.990286,-76.940896,-9.118000,,,
2026-09-11T19:05:09.057,5.313989,-0.000000,-0.000000,-0.000000,0.000000,-53.074951,18.259731,-0.000000,-0.000133,-0.000281,-0.001200,0.000384,-0.000556,0.003668,0.000754,0.001203,0.388736,0.286648,9.700738,0.000000,0.000000,0,0,,38.990286,-76.940896,-9.118000,,,
2026-09-11T19:05:09.090,5.347415,-0.000000,-0.000000,-0.000000,0.000000,-53.074951,18.259731,-0.000000,-0.000848,-0.001785,-0.001234,0.000384,-0.000573,0.003241,0.000886,-0.000301,0.392462,0.296357,9.701425,0.000000,0.000000,0,0,,38.990286,-76.940896,-9.118000,,,
2026-09-11T19:05:09.124,5.380832,-0.000000,-0.000000,-0.000000,0.000000,-53.074951,18.259731,-0.000000,-0.001147,-0.002415,-0.001304,0.000384,-0.000606,0.006130,0.001131,-0.000931,0.382165,0.291944,9.697796,0.000000,0.000000,0,0,,38.990286,-76.940896,-9.118000,,,
2026-09-11T19:05:09.157,5.414247,-0.000000,-0.000000,-0.000000,0.000000,-53.074951,18.259731,-0.000000,-0.001023,-0.002153,-0.001381,0.000384,-0.000642,-0.003315,0.001914,-0.000669,0.410212,0.311263,9.697502,0.000000,0.000000,0,0,,38.990286,-76.940896,-9.118000,,,
2026-09-11T19:05:09.190,5.447667,-0.000000,-0.000000,-0.000000,0.000000,-53.074951,18.259731,-0.000000,-0.000642,-0.001352,-0.001439,0.000383,-0.000670,-0.004169,0.002758,0.000132,0.402759,0.293317,9.693874,0.000000,0.000000,0,0,,38.990286,-76.940896,-9.118000,,,
2026-09-11T19:05:09.224,5.481091,-0.000000,-0.000000,-0.000000,0.000000,-53.074951,18.259731,-0.000000,-0.000477,-0.001005,-0.001479,0.000383,-0.000689,-0.000851,0.001947,0.000479,0.399131,0.293317,9.702111,0.000000,0.000000,0,0,,38.990286,-76.940896,-9.118000,,,
2026-09-11T19:05:09.257,5.514508,-0.000000,-0.000000,-0.000000,0.000000,-53.074951,18.259731,-0.000000,-0.000205,-0.000431,-0.001503,0.000383,-0.000700,-0.004220,0.002952,0.001052,0.404720,0.279097,9.668376,0.000000,0.000000,0,0,,38.990286,-76.940896,-9.118000,,,
2026-09-11T19:05:09.290,5.547924,-0.000000,-0.000000,-0.000000,0.000000,-53.074951,18.259731,-0.000000,-0.000892,-0.001878,-0.001541,0.000383,-0.000718,-0.004049,0.002829,-0.000395,0.383538,0.283020,9.701523,0.000000,0.000000,0,0,,38.990286,-76.940896,-9.118000,,,
2026-09-11T19:05:09.324,5.581340,-0.000000,-0.000000,-0.000000,0.000000,-53.074951,18.259731,-0.000000,-0.000426,-0.000897,-0.001588,0.000383,-0.000740,0.000748,0.001044,0.000587,0.393149,0.290375,9.697698,0.000000,0.000000,0,0,,38.990286,-76.940896,-9.118000,,,
2026-09-11T19:05:09.358,5.614762,-0.000000,-0.000000,-0.000000,0.000000,-53.074951,18.259731,-0.000000,-0.001267,-0.002668,-0.001647,0.000383,-0.000769,0.000764,0.002177,-0.001184,0.385107,0.284491,9.705249,0.000000,0.000000,0,0,,38.990286,-76.940896,-9.118000,,,
2026-09-11T19:05:09.391,5.648179,-0.000000,-0.000000,-0.000000,0.000000,-53.074951,18.259731,-0.000000,-0.001260,-0.002653,-0.001736,0.000383,-0.000811,0.004462,0.002034,-0.001169,0.388736,0.284393,9.698483,0.000000,0.000000,0,0,,38.990286,-76.940896,-9.118000,,,
2026-09-11T19:05:09.424,5.681599,-0.000000,-0.000000,-0.000000,0.000000,-53.074951,18.259731,-0.000000,-0.000201,-0.000424,-0.001787,0.000383,-0.000835,0.004586,0.001033,0.001059,0.403446,0.288806,9.685636,0.000000,0.000000,0,0,,38.990286,-76.940896,-9.118000,,,
2026-09-11T19:05:09.458,5.715018,-0.000000,-0.000000,-0.000000,0.000000,-53.074951,18.259731,-0.000000,-0.000728,-0.001533,-0.001820,0.000383,-0.000851,0.004220,0.002092,-0.000050,0.390305,0.297926,9.710447,0.000000,0.000000,0,0,,38.990286,-76.940896,-9.118000,,,
2026-09-11T19:05:09.491,5.748441,-0.000000,-0.000000,-0.000000,0.000000,-53.074951,18.259731,-0.000000,-0.000451,-0.000949,-0.001862,0.000383,-0.000871,0.004698,0.001699,0.000534,0.402661,0.294886,9.682596,0.000000,0.000000,0,0,,38.990286,-76.940896,-9.118000,,,
2026-09-11T19:05:09.525,5.781865,-0.000000,-0.000000,-0.000000,0.000000,-53.074951,18.259731,-0.000000,-0.000541,-0.001138,-0.001896,0.000383,-0.000887,-0.001021,-0.000306,0.000345,0.402171,0.307537,9.702111,0.000000,0.000000,0,0,,38.990286,-76.940896,-9.118000,,,
2026-09-11T19:05:09.558,5.815277,-0.000000,-0.000000,-0.000000,0.000000,-53.074951,18.259731,-0.000000,-0.000623,-0.001312,-0.001937,0.000383,-0.000907,-0.002438,0.001725,0.000172,0.393247,0.301653,9.699169,0.000000,0.000000,0,0,,38.990286,-76.940896,-9.118000,,,
2026-09-11T19:05:09.591,5.848700,-0.000000,-0.000000,-0.000000,0.000000,-53.074951,18.259731,-0.000000,0.000497,0.001045,-0.001942,0.000383,-0.000909,-0.002114,0.000727,0.002529,0.404132,0.291061,9.690049,0.000000,0.000000,0,0,,38.990286,-76.940896,-9.118000,,,
2026-09-11T19:05:09.625,5.882120,-0.000000,-0.000000,-0.000000,0.000000,-53.074951,18.259731,-0.000000,0.000204,0.000428,-0.001917,0.000383,-0.000897,-0.005211,-0.000575,0.001912,0.381969,0.272527,9.700738,0.000000,0.000000,0,0,,38.990286,-76.940896,-9.118000,,,
2026-09-11T19:05:09.658,5.915540,-0.000000,-0.000000,-0.000000,0.000000,-53.074951,18.259731,-0.000000,-0.000749,-0.001576,-0.001936,0.000383,-0.000906,0.002630,0.002399,-0.000093,0.392364,0.281451,9.699954,0.000000,0.000000,0,0,,38.990286,-76.940896,-9.118000,,,
2026-09-11T19:05:09.691,5.948958,-0.000000,-0.000000,-0.000000,0.000000,-53.074951,18.259731,-0.000000,-0.001257,-0.002646,-0.002007,0.000383,-0.000940,0.003753,0.000832,-0.001162,0.388736,0.279882,9.706720,0.000000,0.000000,0,0,,38.990286,-76.940896,-9.118000,,,
2026-09-11T19:05:09.725,5.982376,-0.000000,-0.000000,-0.000000,0.000000,-53.074951,18.259731,-0.000000,0.000258,0.000543,-0.002042,0.000383,-0.000956,0.000924,-0.000152,0.002026,0.386578,0.291944,9.698483,0.000000,0.000000,0,0,,38.990286,-76.940896,-9.118000,,,
2026-09-11T19:05:09.759,6.015798,-0.000000,-0.000000,-0.000000,0.000000,-53.074951,18.259731,-0.000000,-0.000086,-0.000180,-0.002036,0.000383,-0.000953,0.006037,0.001451,0.001303,0.406290,0.286550,9.685538,0.000000,0.000000,0,0,,38.990286,-76.940896,-9.118000,,,
2026-09-11T19:05:09.791,6.049219,-0.000000,-0.000000,-0.000000,0.000000,-53.074951,18.259731,-0.000000,-0.000317,-0.000667,-0.002050,0.000383,-0.000960,0.007888,0.000555,0.000816,0.390207,0.293415,9.689461,0.000000,0.000000,0,0,,38.990286,-76.940896,-9.118000,,,
2026-09-11T19:05:09.825,6.082641,-0.000000,-0.000000,-0.000000,0.000000,-53.074951,18.259731,-0.000000,-0.000570,-0.001200,-0.002081,0.000383,-0.000975,-0.001226,0.000154,0.000283,0.398346,0.292630,9.695345,0.000000,0.000000,0,0,,38.990286,-76.940896,-9.118000,,,
2026-09-11T19:05:09.859,6.116060,-0.000000,-0.000000,-0.000000,0.000000,-53.074951,18.259731,-0.000000,0.000317,0.000667,-0.002090,0.000383,-0.000979,0.001451,0.000120,0.002151,0.398346,0.297828,9.697600,0.000000,0.000000,0,1,6.105690,38.990286,-76.940896,-9.138000,-0.104000,0.072091,2.714587
2026-09-11T19:05:09.892,6.149476,-0.000000,-0.000000,-0.000000,0.000000,-53.074951,18.259731,-0.000000,0.000110,0.000232,-0.002075,0.000383,-0.000972,-0.000398,-0.000435,0.001715,0.388834,0.296455,9.705249,0.000000,0.000000,0,0,,38.990286,-76.940896,-9.138000,,,
2026-09-11T19:05:09.926,6.182896,-0.000000,-0.000000,-0.000000,0.000000,-53.074951,18.259731,-0.000000,-0.000199,-0.000420,-0.002078,0.000383,-0.000974,-0.005318,0.001214,0.001064,0.393051,0.292729,9.680439,0.000000,0.000000,0,0,,38.990286,-76.940896,-9.138000,,,
2026-09-11T19:05:09.959,6.216316,-0.000000,-0.000000,-0.000000,0.000000,-53.074951,18.259731,-0.000000,-0.000032,-0.000067,-0.002087,0.000383,-0.000978,-0.002582,-0.000467,0.001417,0.387265,0.285177,9.705936,0.000000,0.000000,0,0,,38.990286,-76.940896,-9.138000,,,
2026-09-11T19:05:09.992,6.249725,-0.000000,-0.000000,-0.000000,0.000000,-53.074951,18.259731,-0.000000,0.000838,0.001765,-0.002058,0.000383,-0.000964,-0.002207,-0.001131,0.003249,0.396679,0.285962,9.677399,0.000000,0.000000,0,0,,38.990286,-76.940896,-9.138000,,,
2026-09-11T19:05:10.026,6.283158,-0.000000,-0.000000,-0.000000,0.000000,-53.074951,18.259731,-0.000000,-0.000781,-0.001645,-0.002056,0.000383,-0.000963,-0.002110,0.001401,-0.000162,0.401975,0.282039,9.703582,0.000000,0.000000,0,0,,38.990286,-76.940896,-9.138000,,,
2026-09-11T19:05:10.059,6.316580,-0.000000,-0.000000,-0.000000,0.000000,-53.074951,18.259731,-0.000000,-0.000616,-0.001297,-0.002105,0.000383,-0.000986,0.000835,-0.001072,0.000187,0.393149,0.287433,9.693187,0.000000,0.000000,0,0,,38.990286,-76.940896,-9.138000,,,
2026-09-11T19:05:10.092,6.349992,-0.000000,-0.000000,-0.000000,0.000000,-53.074951,18.259731,-0.000000,0.000646,0.001360,-0.002104,0.000383,-0.000986,-0.001362,-0.000786,0.002844,0.400602,0.293317,9.707309,0.000000,0.000000,0,0,,38.990286,-76.940896,-9.138000,,,
2026-09-11T19:05:10.126,6.383415,-0.000000,-0.000000,-0.000000,0.000000,-53.074951,18.259731,-0.000000,-0.001036,-0.002181,-0.002118,0.000383,-0.000992,0.003489,0.001488,-0.000697,0.393933,0.294101,9.698385,0.000000,0.000000,0,0,,38.990286,-76.940896,-9.138000,,,
2026-09-11T19:05:10.160,6.416835,-0.000000,-0.000000,-0.000000,0.000000,-53.074951,18.259731,-0.000000,0.000992,0.002088,-0.002120,0.000383,-0.000993,-0.001747,-0.000530,0.003572,0.393247,0.297141,9.696914,0.000000,0.000000,0,0,,38.990286,-76.940896,-9.138000,,,
2026-09-11T19:05:10.193,6.450247,-0.000000,-0.000000,-0.000000,0.000000,-53.074951,18.259731,-0.000000,-0.000661,-0.001392,-0.002108,0.000383,-0.000988,-0.001685,-0.000382,0.000091,0.396091,0.294101,9.690932,0.000000,0.000000,0,0,,38.990286,-76.940896,-9.138000,,,
2026-09-11T19:05:10.226,6.483664,-0.000000,-0.000000,-0.000000,0.000000,-53.074951,18.259731,-0.000000,-0.000392,-0.000826,-0.002145,0.000383,-0.001005,0.000169,0.000041,0.000658,0.389520,0.291159,9.694756,0.000000,0.000000,0,0,,38.990286,-76.940896,-9.138000,,,
2026-09-11T19:05:10.260,6.517088,-0.000000,-0.000000,-0.000000,0.000000,-53.074951,18.259731,-0.000000,-0.000750,-0.001579,-0.002185,0.000383,-0.001024,-0.002357,0.000205,-0.000095,0.396875,0.291846,9.698385,0.000000,0.000000,0,0,,38.990286,-76.940896,-9.138000,,,
2026-09-11T19:05:10.293,6.550498,-0.000000,-0.000000,-0.000000,0.000000,-53.074951,18.259731,-0.000000,-0.000899,-0.001892,-0.002243,0.000383,-0.001052,-0.003424,0.000587,-0.000408,0.392364,0.287433,9.686421,0.000000,0.000000,0,0,,38.990286,-76.940896,-9.138000,,,
2026-09-11T19:05:10.326,6.583919,-0.000000,-0.000000,-0.000000,0.000000,-53.074951,18.259731,-0.000000,0.000348,0.000734,-0.002262,0.000383,-0.001061,0.001266,-0.000743,0.002217,0.395404,0.287335,9.702896,0.000000,0.000000,0,0,,38.990286,-76.940896,-9.138000,,,
2026-09-11T19:05:10.360,6.617339,-0.000000,-0.000000,-0.000000,0.000000,-53.074951,18.259731,-0.000000,-0.001331,-0.002801,-0.002297,0.000383,-0.001077,0.000834,0.001649,-0.001318,0.393933,0.291944,9.692403,0.000000,0.000000,0,0,,38.990286,-76.940896,-9.138000,,,
2026-09-11T19:05:10.393,6.650749,-0.000000,-0.000000,-0.000000,0.000000,-53.074951,18.259731,-0.000000,-0.000230,-0.000484,-0.002352,0.000383,-0.001104,-0.000573,0.001684,0.001000,0.387167,0.284491,9.693972,0.000000,0.000000,0,0,,38.990286,-76.940896,-9.138000,,,
2026-09-11T19:05:10.427,6.684164,-0.000000,-0.000000,-0.000000,0.000000,-53.074951,18.259731,-0.000000,-0.001016,-0.002139,-0.002396,0.000383,-0.001124,0.000085,-0.000550,-0.000655,0.392364,0.288904,9.688676,0.000000,0.000000,0,0,,38.990286,-76.940896,-9.138000,,,
2026-09-11T19:05:10.460,6.717583,-0.000000,-0.000000,-0.000000,0.000000,-53.074951,18.259731,-0.000000,0.000873,0.001838,-0.002401,0.000383,-0.001127,-0.002551,-0.000011,0.003321,0.391776,0.297926,9.702209,0.000000,0.000000,0,0,,38.990286,-76.940896,-9.138000,,,
2026-09-11T19:05:10.493,6.750994,-0.000000,-0.000000,-0.000000,0.000000,-53.074951,18.259731,-0.000000,-0.001246,-0.002623,-0.002414,0.000383,-0.001133,-0.002535,0.002127,-0.001139,0.399229,0.299299,9.715644,0.000000,0.000000,0,0,,38.990286,-76.940896,-9.138000,,,
2026-09-11T19:05:10.527,6.784413,-0.000000,-0.000000,-0.000000,0.000000,-53.074951,18.259731,-0.000000,-0.000217,-0.000456,-0.002465,0.000383,-0.001157,-0.002861,0.000060,0.001028,0.400602,0.294788,9.697600,0.000000,0.000000,0,0,,38.990286,-76.940896,-9.138000,,,
2026-09-11T19:05:10.560,6.817838,-0.000000,-0.000000,-0.000000,0.000000,-53.074951,18.259731,-0.000000,0.001030,0.002169,-0.002437,0.000383,-0.001144,-0.002441,0.002041,0.003652,0.393051,0.284393,9.689461,0.000000,0.000000,0,0,,38.990286,-76.940896,-9.138000,,,
2026-09-11T19:05:10.594,6.851252,-0.000000,-0.000000,-0.000000,0.000000,-53.074951,18.259731,-0.000000,-0.001225,-0.002578,-0.002443,0.000383,-0.001147,-0.000953,0.002349,-0.001095,0.391678,0.287433,9.701425,0.000000,0.000000,0,0,,38.990286,-76.940896,-9.138000,,,
2026-09-11T19:05:10.627,6.884671,-0.000000,-0.000000,-0.000000,0.000000,-53.074951,18.259731,-0.000000,0.000341,0.000719,-0.002475,0.000383,-0.001162,-0.002373,-0.000136,0.002202,0.379125,0.288217,9.699267,0.000000,0.000000,0,0,,38.990286,-76.940896,-9.138000,,,
2026-09-11T19:05:10.660,6.918094,-0.000000,-0.000000,-0.000000,0.000000,-53.074951,18.259731,-0.000000,-0.001014,-0.002134,-0.002498,0.000382,-0.001173,0.000300,0.003028,-0.000651,0.391678,0.282922,9.699954,0.000000,0.000000,0,0,,38.990286,-76.940896,-9.138000,,,
2026-09-11T19:05:10.694,6.951505,-0.000000,-0.000000,-0.000000,0.000000,-53.074951,18.259731,-0.000000,-0.000995,-0.002095,-0.002569,0.000382,-0.001207,0.002093,0.002327,-0.000611,0.393051,0.286648,9.682694,0.000000,0.000000,0,0,,38.990286,-76.940896,-9.138000,,,
2026-09-11T19:05:10.728,6.984927,-0.000000,-0.000000,-0.000000,0.000000,-53.074951,18.259731,-0.000000,-0.000830,-0.001748,-0.002633,0.000382,-0.001237,0.000537,0.000779,-0.000265,0.402073,0.291061,9.705838,0.000000,0.000000,0,0,,38.990286,-76.940896,-9.138000,,,
2026-09-11T19:05:10.761,7.018351,-0.000000,-0.000000,-0.000000,0.000000,-53.039246,18.247447,-0.000000,-0.000054,-0.000115,-0.002664,0.000382,-0.001252,0.006098,0.001915,0.001369,0.405015,0.295572,9.694560,0.000000,0.000000,0,0,,38.990286,-76.940896,-9.138000,,,
2026-09-11T19:05:10.794,7.051760,-0.000000,-0.000000,-0.000000,0.000000,-53.031006,18.244612,-0.000000,-0.000606,-0.001276,-0.002687,0.000382,-0.001263,0.004501,0.001168,0.000207,0.390207,0.293415,9.690245,0.000000,0.000000,0,0,,38.990286,-76.940896,-9.138000,,,
2026-09-11T19:05:10.828,7.085180,-0.000000,-0.000000,-0.000000,0.000000,-53.031006,18.244612,-0.000000,-0.000269,-0.000567,-0.002718,0.000382,-0.001278,0.000864,0.002633,0.000917,0.392364,0.288217,9.687990,0.000000,0.000000,0,0,,38.990286,-76.940896,-9.138000,,,
2026-09-11T19:05:10.861,7.118599,-0.000000,-0.000000,-0.000000,0.000000,-53.031006,18.244612,-0.000000,-0.000407,-0.000856,-0.002742,0.000382,-0.001289,0.002776,0.002398,0.000627,0.388736,0.296455,9.682694,0.000000,0.000000,0,1,7.106523,38.990286,-76.940897,-9.161000,-0.115091,0.080616,2.592730
2026-09-11T19:05:10.894,7.152010,-0.000000,-0.000000,-0.000000,0.000000,-53.031006,18.244612,-0.000000,0.000157,0.000331,-0.002751,0.000382,-0.001293,0.002220,0.001325,0.001815,0.381479,0.291258,9.708289,0.000000,0.000000,0,0,,38.990286,-76.940897,-9.161000,,,
2026-09-11T19:05:10.928,7.185427,-0.000000,-0.000000,-0.000000,0.000000,-53.031006,18.244612,-0.000000,-0.000764,-0.001608,-0.002772,0.000382,-0.001303,0.000185,0.002561,-0.000125,0.400406,0.292630,9.670632,0.000000,0.000000,0,0,,38.990286,-76.940897,-9.161000,,,
2026-09-11T19:05:10.961,7.218850,-0.000000,-0.000000,-0.000000,0.000000,-53.031006,18.244612,-0.000000,-0.000962,-0.002026,-0.002833,0.000382,-0.001332,0.001714,0.001195,-0.000543,0.390207,0.291159,9.696914,0.000000,0.000000,0,0,,38.990286,-76.940897,-9.161000,,,
2026-09-11T19:05:10.995,7.252261,-0.000000,-0.000000,-0.000000,0.000000,-53.031006,18.244612,-0.000000,-0.000340,-0.000716,-0.002879,0.000382,-0.001354,0.001754,0.000131,0.000768,0.404230,0.294101,9.699071,0.000000,0.000000,0,0,,38.990286,-76.940897,-9.161000,,,
2026-09-11T19:05:11.029,7.285680,-0.000000,-0.000000,-0.000000,0.000000,-53.031006,18.244612,-0.000000,-0.001007,-0.002120,-0.002926,0.000382,-0.001376,-0.000937,0.001818,-0.000636,0.395306,0.290375,9.689461,0.000000,0.000000,0,0,,38.990286,-76.940897,-9.161000,,,
2026-09-11T19:05:11.062,7.319102,-0.000000,-0.000000,-0.000000,0.000000,-53.031006,18.244612,-0.000000,0.000563,0.001186,-0.002942,0.000382,-0.001384,0.001985,0.000391,0.002669,0.392266,0.282922,9.680439,0.000000,0.000000,0,0,,38.990286,-76.940897,-9.161000,,,
2026-09-11T19:05:11.095,7.352515,-0.000000,-0.000000,-0.000000,0.000000,-53.031006,18.244612,-0.000000,0.000324,0.000682,-0.002910,0.000382,-0.001369,0.000274,-0.000692,0.002165,0.396777,0.288119,9.680439,0.000000,0.000000,0,0,,38.990286,-76.940897,-9.161000,,,
2026-09-11T19:05:11.129,7.385938,-0.000000,-0.000000,-0.000000,0.000000,-53.031006,18.244612,-0.000000,-0.000553,-0.001165,-0.002919,0.000382,-0.001373,0.001320,0.002245,0.000319,0.386578,0.296455,9.701523,0.000000,0.000000,0,0,,38.990286,-76.940897,-9.161000,,,
2026-09-11T19:05:11.162,7.419359,-0.000000,-0.000000,-0.000000,0.000000,-53.031006,18.244612,-0.000000,0.000284,0.000598,-0.002928,0.000382,-0.001377,0.001592,-0.000672,0.002081,0.387265,0.291258,9.691030,0.000000,0.000000,0,0,,38.990286,-76.940897,-9.161000,,,
2026-09-11T19:05:11.195,7.452770,-0.000000,-0.000000,-0.000000,0.000000,-53.031006,18.244612,-0.000000,-0.000182,-0.000382,-0.002924,0.000382,-0.001375,0.001427,0.000389,0.001101,0.391874,0.300868,9.715644,0.000000,0.000000,0,0,,38.990286,-76.940897,-9.161000,,,
2026-09-11T19:05:11.229,7.486198,-0.000000,-0.000000,-0.000000,0.000000,-53.031006,18.244612,-0.000000,-0.000781,-0.001643,-0.002958,0.000382,-0.001392,0.002576,0.001405,-0.000160,0.390795,0.281451,9.686421,0.000000,0.000000,0,0,,38.990286,-76.940897,-9.161000,,,
2026-09-11T19:05:11.262,7.519621,-0.000000,-0.000000,-0.000000,0.000000,-53.031006,18.244612,-0.000000,0.000541,0.001138,-0.002967,0.000382,-0.001396,0.000604,-0.000027,0.002622,0.400602,0.297043,9.695345,0.000000,0.000000,0,0,,38.990286,-76.940897,-9.161000,,,
2026-09-11T19:05:11.295,7.553033,-0.000000,-0.000000,-0.000000,0.000000,-53.031006,18.244612,-0.000000,-0.000297,-0.000625,-0.002958,0.000382,-0.001392,-0.000090,-0.000030,0.000858,0.402563,0.283608,9.682596,0.000000,0.000000,0,0,,38.990286,-76.940897,-9.161000,,,
2026-09-11T19:05:11.329,7.586455,-0.000000,-0.000000,-0.000000,0.000000,-53.031006,18.244612,-0.000000,-0.000763,-0.001607,-0.002995,0.000382,-0.001409,0.004811,0.002167,-0.000123,0.396189,0.300083,9.707407,0.000000,0.000000,0,0,,38.990286,-76.940897,-9.161000,,,
2026-09-11T19:05:11.362,7.619875,-0.000000,-0.000000,-0.000000,0.000000,-53.031006,18.244612,-0.000000,0.000039,0.000082,-0.003021,0.000382,-0.001421,0.000985,-0.000414,0.001565,0.395306,0.290375,9.683381,0.000000,0.000000,0,0,,38.990286,-76.940897,-9.161000,,,
2026-09-11T19:05:11.396,7.653291,-0.000000,-0.000000,-0.000000,0.000000,-53.031006,18.244612,-0.000000,0.000094,0.000198,-0.003016,0.000382,-0.001419,-0.002648,-0.000072,0.001681,0.390893,0.296455,9.678968,0.000000,0.000000,0,0,,38.990286,-76.940897,-9.161000,,,
2026-09-11T19:05:11.429,7.686715,-0.000000,-0.000000,-0.000000,0.000000,-53.031006,18.244612,-0.000000,0.000381,0.000801,-0.003000,0.000382,-0.001411,0.001436,0.001378,0.002285,0.388049,0.289688,9.708976,0.000000,0.000000,0,0,,38.990286,-76.940897,-9.161000,,,
2026-09-11T19:05:11.462,7.720135,-0.000000,-0.000000,-0.000000,0.000000,-53.031006,18.244612,-0.000000,-0.000310,-0.000653,-0.002997,0.000382,-0.001410,-0.002866,0.000127,0.000831,0.381283,0.289787,9.673770,0.000000,0.000000,0,0,,38.990286,-76.940897,-9.161000,,,
2026-09-11T19:05:11.496,7.753547,-0.000000,-0.000000,-0.000000,0.000000,-53.031006,18.244612,-0.000000,-0.000461,-0.000970,-0.003024,0.000382,-0.001423,0.001213,0.000720,0.000514,0.390403,0.306164,9.706720,0.000000,0.000000,0,0,,38.990286,-76.940897,-9.161000,,,
2026-09-11T19:05:11.530,7.786970,-0.000000,-0.000000,-0.000000,0.000000,-53.031006,18.244612,-0.000000,0.000068,0.000142,-0.003038,0.000382,-0.001429,-0.003439,-0.000282,0.001626,0.397758,0.303124,9.707407,0.000000,0.000000,0,0,,38.990286,-76.940897,-9.161000,,,
2026-09-11T19:05:11.563,7.820388,-0.000000,-0.000000,-0.000000,0.000000,-53.031006,18.244612,-0.000000,0.000190,0.000400,-0.003029,0.000382,-0.001425,-0.002920,0.000784,0.001884,0.404034,0.276057,9.692305,0.000000,0.000000,0,0,,38.990286,-76.940897,-9.161000,,,
2026-09-11T19:05:11.596,7.853801,-0.000000,-0.000000,-0.000000,0.000000,-53.031006,18.244612,-0.000000,0.000162,0.000341,-0.003017,0.000382,-0.001419,0.001373,0.000518,0.001824,0.414625,0.299985,9.698973,0.000000,0.000000,0,0,,38.990286,-76.940897,-9.161000,,,
2026-09-11T19:05:11.630,7.887221,-0.000000,-0.000000,-0.000000,0.000000,-53.031006,18.244612,-0.000000,0.000438,0.000923,-0.002995,0.000382,-0.001409,0.001923,-0.000271,0.002406,0.393835,0.277626,9.702209,0.000000,0.000000,0,0,,38.990286,-76.940897,-9.161000,,,
2026-09-11T19:05:11.663,7.920642,-0.000000,-0.000000,-0.000000,0.000000,-53.031006,18.244612,-0.000000,0.000015,0.000032,-0.002980,0.000382,-0.001402,0.000036,0.001293,0.001516,0.382852,0.294298,9.684263,0.000000,0.000000,0,0,,38.990286,-76.940897,-9.161000,,,
2026-09-11T19:05:11.697,7.954052,-0.000000,-0.000000,-0.000000,0.000000,-53.031006,18.244612,-0.000000,0.000244,0.000514,-0.002970,0.000382,-0.001397,-0.001903,-0.001055,0.001997,0.378439,0.291258,9.687303,0.000000,0.000000,0,0,,38.990286,-76.940897,-9.161000,,,
2026-09-11T19:05:11.730,7.987475,-0.000000,-0.000000,-0.000000,0.000000,-53.031006,18.244612,-0.000000,0.000548,0.001154,-0.002943,0.000382,-0.001384,-0.005523,-0.000848,0.002638,0.374026,0.297338,9.686617,0.000000,0.000000,0,0,,38.990286,-76.940897,-9.161000,,,
2026-09-11T19:05:11.763,8.020898,-0.000000,-0.000000,-0.000000,0.000000,-53.031006,18.244612,-0.000000,-0.000256,-0.000540,-0.002932,0.000382,-0.001379,-0.005934,0.002596,0.000944,0.393149,0.288904,9.702896,0.000000,0.000000,0,0,,38.990286,-76.940897,-9.161000,,,
2026-09-11T19:05:11.797,8.054310,-0.000000,-0.000000,-0.000000,0.000000,-53.031006,18.244612,-0.000000,0.000417,0.000878,-0.002927,0.000382,-0.001377,0.000159,-0.001621,0.002362,0.427570,0.278901,9.684655,0.000000,0.000000,0,0,,38.990286,-76.940897,-9.161000,,,
2026-09-11T19:05:11.830,8.087768,-0.000000,-0.000000,-0.000000,0.000000,-53.031006,18.244612,-0.000000,0.000263,0.000554,-0.002903,0.000382,-0.001365,0.000067,-0.000231,0.002038,0.392266,0.270958,9.690932,0.000000,0.000000,0,0,,38.990286,-76.940897,-9.161000,,,
2026-09-11T19:05:11.864,8.121189,-0.000000,-0.000000,-0.000000,0.000000,-53.031006,18.244612,-0.000000,-0.001021,-0.002149,-0.002929,0.000382,-0.001378,0.006300,0.003516,-0.000666,0.383538,0.294200,9.691030,0.000000,0.000000,0,1,8.103471,38.990286,-76.940897,-9.203000,-0.124310,0.097296,2.592730
2026-09-11T19:05:11.897,8.154604,-0.000000,-0.000000,-0.000000,0.000000,-53.031006,18.244612,-0.000000,0.000229,0.000482,-0.002957,0.000382,-0.001391,0.005531,0.000779,0.001965,0.397464,0.281353,9.687892,0.000000,0.000000,0,0,,38.990286,-76.940897,-9.203000,,,
2026-09-11T19:05:11.930,8.188025,-0.000000,-0.000000,-0.000000,0.000000,-53.031006,18.244612,-0.000000,-0.000098,-0.000206,-0.002953,0.000382,-0.001389,0.002945,0.000610,0.001278,0.369515,0.290571,9.686617,0.000000,0.000000,0,0,,38.990286,-76.940897,-9.203000,,,
2026-09-11T19:05:11.964,8.221444,-0.000000,-0.000000,-0.000000,0.000000,-53.031006,18.244612,-0.000000,-0.000857,-0.001805,-0.002986,0.000382,-0.001405,0.004999,0.002634,-0.000322,0.389520,0.298711,9.689461,0.000000,0.000000,0,0,,38.990286,-76.940897,-9.203000,,,
2026-09-11T19:05:11.998,8.254856,-0.000000,-0.000000,-0.000000,0.000000,-53.031006,18.244612,-0.000000,-0.000446,-0.000940,-0.003032,0.000382,-0.001427,-0.001029,0.000553,0.000544,0.398346,0.288119,9.696914,0.000000,0.000000,0,0,,38.990286,-76.940897,-9.203000,,,
2026-09-11T19:05:12.031,8.288283,-0.000000,-0.000000,-0.000000,0.000000,-53.031006,18.244612,-0.000000,-0.001120,-0.002357,-0.003087,0.000382,-0.001453,0.002029,0.001798,-0.000874,0.429727,0.254875,9.696620,0.000000,0.000000,0,0,,38.990286,-76.940897,-9.203000,,,
2026-09-11T19:05:12.064,8.321705,-0.000000,-0.000000,-0.000000,0.000000,-52.986374,18.229257,-0.000000,-0.002121,-0.004466,-0.003201,0.000382,-0.001507,0.007216,0.000826,-0.002982,0.401288,0.300083,9.687892,0.000000,0.000000,0,0,,38.990286,-76.940897,-9.203000,,,
2026-09-11T19:05:12.098,8.355114,-0.000000,-0.000000,-0.000000,0.000000,-52.958221,18.219572,-0.000000,-0.000823,-0.001733,-0.003305,0.000381,-0.001556,-0.000524,0.001094,-0.000250,0.386676,0.306164,9.710447,0.000000,0.000000,0,0,,38.990286,-76.940897,-9.203000,,,
2026-09-11T19:05:12.131,8.388534,-0.000000,-0.000000,-0.000000,0.000000,-52.943115,18.214375,-0.000000,-0.000634,-0.001336,-0.003356,0.000381,-0.001580,-0.000660,0.001951,0.000148,0.385303,0.330974,9.692501,0.000000,0.000000,0,0,,38.990286,-76.940897,-9.203000,,,
2026-09-11T19:05:12.164,8.421955,-0.000000,-0.000000,-0.000000,0.000000,-52.943115,18.214375,-0.000000,-0.000342,-0.000720,-0.003390,0.000381,-0.001597,0.002142,0.000733,0.000764,0.379419,0.323521,9.695541,0.000000,0.000000,0,0,,38.990286,-76.940897,-9.203000,,,
2026-09-11T19:05:12.198,8.455366,-0.000000,-0.000000,-0.000000,0.000000,-52.943115,18.214375,-0.000000,0.000205,0.000432,-0.003395,0.000381,-0.001599,-0.005175,0.001610,0.001916,0.390109,0.285962,9.687205,0.000000,0.000000,0,0,,38.990286,-76.940897,-9.203000,,,
2026-09-11T19:05:12.232,8.488797,-0.000000,-0.000000,-0.000000,0.000000,-52.943115,18.214375,-0.000000,0.000087,0.000184,-0.003385,0.000381,-0.001594,-0.006052,0.002657,0.001668,0.393443,0.327836,9.691716,0.000000,0.000000,0,0,,38.990286,-76.940897,-9.203000,,,
2026-09-11T19:05:12.265,8.522219,-0.000000,-0.000000,-0.000000,0.000000,-52.943115,18.214375,-0.000000,0.001230,0.002589,-0.003338,0.000381,-0.001572,-0.004469,0.001347,0.004073,0.400602,0.296357,9.703582,0.000000,0.000000,0,0,,38.990286,-76.940897,-9.203000,,,
2026-09-11T19:05:12.299,8.555634,-0.000000,-0.000000,-0.000000,0.000000,-52.899170,18.199256,-0.000000,0.000961,0.002024,-0.003261,0.000381,-0.001536,-0.010906,0.002973,0.003507,0.418352,0.318716,9.686224,0.000000,0.000000,0,0,,38.990286,-76.940897,-9.203000,,,
2026-09-11T19:05:12.332,8.589063,-0.000000,-0.000000,-0.000000,0.000000,-52.899170,18.199256,-0.000000,-0.000514,-0.001082,-0.003246,0.000381,-0.001528,-0.009569,0.002146,0.000401,0.390305,0.199761,9.708878,0.000000,0.000000,0,0,,38.990286,-76.940897,-9.203000,,,
2026-09-11T19:05:12.365,8.622499,-0.000000,-0.000000,-0.000000,0.000000,-52.899170,18.199256,-0.000000,-0.000972,-0.002046,-0.003298,0.000381,-0.001553,-0.001774,0.000348,-0.000562,0.376477,0.322737,9.698581,0.000000,0.000000,0,0,,38.990286,-76.940897,-9.203000,,,
2026-09-11T19:05:12.399,8.655913,-0.000000,-0.000000,-0.000000,0.000000,-52.899170,18.199256,-0.000000,-0.000135,-0.000284,-0.003337,0.000381,-0.001571,0.013746,0.002363,0.001200,0.394914,0.231143,9.702896,0.000000,0.000000,0,0,,38.990286,-76.940897,-9.203000,,,
2026-09-11T19:05:12.433,8.689335,-0.000000,-0.000000,-0.000000,0.000000,-52.899170,18.199256,-0.000000,-0.002131,-0.004487,-0.003417,0.000381,-0.001609,0.023373,0.001931,-0.003003,0.379910,0.281451,9.712801,0.000000,0.000000,0,0,,38.990286,-76.940897,-9.203000,,,
2026-09-11T19:05:12.466,8.722754,-0.000000,-0.000000,-0.000000,0.000000,-52.899170,18.199256,-0.000000,-0.001257,-0.002647,-0.003536,0.000381,-0.001666,0.022729,-0.001397,-0.001163,0.391678,0.291944,9.693972,0.000000,0.000000,0,0,,38.990286,-76.940897,-9.203000,,,
2026-09-11T19:05:12.499,8.756169,-0.000000,-0.000000,-0.000000,0.000000,-52.899170,18.199256,-0.000000,-0.000965,-0.002032,-0.003614,0.000381,-0.001703,0.021448,0.001428,-0.000549,0.419234,0.338918,9.681027,0.000000,0.000000,0,0,,38.990286,-76.940897,-9.203000,,,
2026-09-11T19:05:12.533,8.789592,-0.000000,-0.000000,-0.000000,0.000000,-52.899170,18.199256,-0.000000,0.000398,0.000838,-0.003634,0.000381,-0.001712,0.013308,0.002219,0.002322,0.400700,0.315088,9.692403,0.000000,0.000000,0,0,,38.990286,-76.940897,-9.203000,,,
2026-09-11T19:05:12.567,8.823014,-0.000000,-0.000000,-0.000000,0.000000,-52.899170,18.199256,-0.000000,0.001442,0.003035,-0.003569,0.000381,-0.001682,-0.012983,0.001878,0.004518,0.387951,0.382655,9.685048,0.000000,0.000000,0,0,,38.990286,-76.940897,-9.203000,,,
2026-09-11T19:05:12.600,8.856433,-0.000000,-0.000000,-0.000000,0.000000,-52.899170,18.199256,-0.000000,0.000656,0.001381,-0.003495,0.000381,-0.001647,-0.017031,0.001029,0.002865,0.383734,0.312244,9.696227,0.000000,0.000000,0,0,,38.990286,-76.940897,-9.203000,,,
2026-09-11T19:05:12.633,8.889856,-0.000000,-0.000000,-0.000000,0.000000,-52.899170,18.199256,-0.000000,-0.000810,-0.001705,-0.003501,0.000381,-0.001649,-0.026719,0.000366,-0.000222,0.356668,0.321364,9.710741,0.000000,0.000000,0,0,,38.990286,-76.940897,-9.203000,,,
2026-09-11T19:05:12.666,8.923276,-0.000000,-0.000000,-0.000000,0.000000,-52.899170,18.199256,-0.000000,0.000695,0.001464,-0.003505,0.000381,-0.001651,-0.027676,0.002457,0.002947,0.389324,0.273213,9.693972,0.000000,0.000000,0,0,,38.990286,-76.940897,-9.203000,,,
2026-09-11T19:05:12.700,8.956695,-0.000000,-0.000000,-0.000000,0.000000,-52.899170,18.199256,-0.000000,0.000896,0.001885,-0.003449,0.000381,-0.001625,-0.015502,0.000984,0.003369,0.379910,0.290473,9.704563,0.000000,0.000000,0,0,,38.990286,-76.940897,-9.203000,,,
2026-09-11T19:05:12.733,8.990121,-0.000000,-0.000000,-0.000000,0.000000,-52.899170,18.199256,-0.000000,-0.000631,-0.001328,-0.003440,0.000381,-0.001620,-0.011007,0.000801,0.000156,0.394423,0.261151,9.693874,0.000000,0.000000,0,0,,38.990286,-76.940897,-9.203000,,,
2026-09-11T19:05:12.766,9.023547,-0.000000,-0.000000,-0.000000,0.000000,-52.899170,18.199256,-0.000000,0.000074,0.000156,-0.003459,0.000381,-0.001629,0.000813,0.002562,0.001639,0.423843,0.258699,9.695149,0.000000,0.000000,0,0,,38.990286,-76.940897,-9.203000,,,
2026-09-11T19:05:12.800,9.056956,-0.000000,-0.000000,-0.000000,0.000000,-52.899170,18.199256,-0.000000,0.000762,0.001604,-0.003430,0.000381,-0.001616,0.005028,0.000568,0.003088,0.415312,0.294690,9.701229,0.000000,0.000000,0,0,,38.990286,-76.940897,-9.203000,,,
2026-09-11T19:05:12.833,9.090423,-0.000000,-0.000000,-0.000000,0.000000,-52.899170,18.199256,-0.000000,0.001134,0.002388,-0.003363,0.000381,-0.001584,0.000490,0.000430,0.003872,0.415606,0.249775,9.686224,0.000000,0.000000,0,0,,38.990286,-76.940897,-9.203000,,,
2026-09-11T19:05:12.867,9.123840,-0.000000,-0.000000,-0.000000,0.000000,-52.899170,18.199256,-0.000000,-0.000555,-0.001168,-0.003343,0.000381,-0.001574,0.001641,0.002912,0.000316,0.380596,0.281451,9.703778,0.000000,0.000000,0,0,,38.990286,-76.940897,-9.203000,,,
2026-09-11T19:05:12.900,9.157263,-0.000000,-0.000000,-0.000000,0.000000,-52.899170,18.199256,-0.000000,-0.000314,-0.000660,-0.003373,0.000381,-0.001589,0.002484,-0.000057,0.000823,0.389520,0.296455,9.691716,0.000000,0.000000,0,0,,38.990286,-76.940897,-9.203000,,,
2026-09-11T19:05:12.934,9.190683,-0.000000,-0.000000,-0.000000,0.000000,-52.899170,18.199256,-0.000000,-0.000815,-0.001717,-0.003413,0.000381,-0.001607,0.007560,-0.001101,-0.000233,0.376673,0.247814,9.698581,0.000000,0.000000,0,0,,38.990286,-76.940897,-9.203000,,,
2026-09-11T19:05:12.967,9.224098,-0.000000,-0.000000,-0.000000,0.000000,-52.899170,18.199256,-0.000000,-0.003800,-0.007999,-0.003575,0.000381,-0.001685,0.011232,0.001432,-0.006516,0.377164,0.217119,9.709760,0.000000,0.000000,0,0,,38.990286,-76.940897,-9.203000,,,
2026-09-11T19:05:13.000,9.257516,-0.000000,-0.000000,-0.000000,0.000000,-52.899170,18.199256,-0.000000,-0.001730,-0.003643,-0.003770,0.000381,-0.001777,0.014110,-0.000133,-0.002159,0.389324,0.275469,9.693972,0.000000,0.000000,0,0,,38.990286,-76.940897,-9.203000,,,
2026-09-11T19:05:13.034,9.290944,-0.000000,-0.000000,-0.000000,0.000000,-52.787933,18.160986,-0.000000,-0.002011,-0.004233,-0.003901,0.000380,-0.001840,0.014160,0.000202,-0.002750,0.402563,0.269389,9.692305,0.000000,0.000000,0,0,,38.990286,-76.940897,-9.203000,,,
2026-09-11T19:05:13.068,9.324365,-0.000000,-0.000000,-0.000000,0.000000,-52.425385,18.036256,-0.000000,-0.004165,-0.008769,-0.004119,0.000380,-0.001943,0.024229,0.000837,-0.007285,0.415802,0.266251,9.691520,0.000000,0.000000,0,1,9.303208,38.990286,-76.940897,-9.237000,-0.133817,0.111380,2.592730
2026-09-11T19:05:13.100,9.357788,-0.000000,-0.000000,-0.000000,0.000000,-51.865082,17.843491,-0.000000,-0.005227,-0.011004,-0.004449,0.000379,-0.002100,0.019385,-0.000550,-0.009520,0.412370,0.307537,9.693776,0.000000,0.000000,0,0,,38.990286,-76.940897,-9.237000,,,
2026-09-11T19:05:13.134,9.391211,-0.000000,-0.000000,-0.000000,0.000000,-51.195602,17.613166,-0.000000,-0.003772,-0.007941,-0.004766,0.000379,-0.002250,0.016398,0.000252,-0.006457,0.400504,0.297141,9.686421,0.000000,0.000000,0,0,,38.990286,-76.940897,-9.237000,,,
2026-09-11T19:05:13.167,9.424627,-0.000000,-0.000000,-0.000000,0.000000,-50.185547,17.265670,-0.000000,-0.003936,-0.008287,-0.005037,0.000378,-0.002379,0.022466,0.000080,-0.006803,0.402465,0.354020,9.702896,0.000000,0.000000,0,0,,38.990286,-76.940897,-9.237000,,,
2026-09-11T19:05:13.201,9.458052,-0.000000,-0.000000,-0.000000,0.000000,-49.161072,16.913213,-0.000000,-0.002561,-0.005391,-0.005265,0.000377,-0.002487,0.012112,-0.001281,-0.003907,0.390501,0.342154,9.683479,0.000000,0.000000,0,0,,38.990286,-76.940897,-9.237000,,,
2026-09-11T19:05:13.234,9.491681,-0.000000,-0.000000,-0.000000,0.000000,-47.888718,16.475476,-0.000000,-0.003578,-0.007533,-0.005483,0.000377,-0.002591,0.001020,0.000613,-0.006050,0.399327,0.333034,9.687107,0.000000,0.000000,0,0,,38.990286,-76.940897,-9.237000,,,
2026-09-11T19:05:13.268,9.525106,-0.000000,-0.000000,-0.000000,0.000000,-46.073914,15.851117,-0.000000,-0.005005,-0.010536,-0.005785,0.000376,-0.002734,-0.010107,-0.000999,-0.009053,0.380694,0.315284,9.677595,0.000000,0.000000,0,0,,38.990286,-76.940897,-9.237000,,,
2026-09-11T19:05:13.301,9.558527,-0.000000,-0.000000,-0.000000,0.000000,-43.550491,14.982967,-0.000000,-0.004540,-0.009557,-0.006120,0.000375,-0.002894,-0.019026,0.000980,-0.008073,0.375301,0.358727,9.698581,0.000000,0.000000,0,0,,38.990286,-76.940897,-9.237000,,,
2026-09-11T19:05:13.335,9.591952,-0.000000,-0.000000,-0.000000,0.000000,-40.023193,13.769447,-0.000000,-0.006106,-0.012854,-0.006495,0.000374,-0.003071,-0.022786,0.000938,-0.011371,0.352157,0.217315,9.699463,0.000000,0.000000,0,0,,38.990286,-76.940897,-9.237000,,,
2026-09-11T19:05:13.368,9.625368,-0.000000,-0.000000,-0.000000,0.000000,-39.326248,13.529673,-0.000000,-0.005298,-0.011153,-0.006896,0.000373,-0.003262,-0.008148,-0.000305,-0.009669,0.376870,0.468071,9.698679,0.000000,0.000000,0,0,,38.990286,-76.940897,-9.237000,,,
2026-09-11T19:05:13.401,9.658789,-0.000000,-0.000000,-0.000000,0.000000,-38.553772,13.263912,-0.000000,-0.002157,-0.004541,-0.007158,0.000372,-0.003387,-0.001638,0.001354,-0.003057,0.374222,0.316755,9.706132,0.000000,0.000000,0,0,,38.990286,-76.940897,-9.237000,,,
2026-09-11T19:05:13.435,9.692215,-0.000000,-0.000000,-0.000000,0.000000,-38.079987,13.100913,-0.000000,-0.001857,-0.003909,-0.007299,0.000371,-0.003454,0.019433,0.001273,-0.002426,0.382263,0.301653,9.708976,0.000000,0.000000,0,0,,38.990286,-76.940897,-9.237000,,,
2026-09-11T19:05:13.468,9.725630,-0.000000,-0.000000,-0.000000,0.000000,-37.811508,13.008546,-0.000000,-0.001197,-0.002520,-0.007407,0.000371,-0.003505,0.023304,0.000134,-0.001036,0.424432,0.329896,9.697404,0.000000,0.000000,0,0,,38.990286,-76.940897,-9.237000,,,
2026-09-11T19:05:13.502,9.759050,-0.000000,-0.000000,-0.000000,0.000000,-37.383728,12.861374,-0.000000,-0.003256,-0.006856,-0.007564,0.000370,-0.003579,0.023785,0.002213,-0.005372,0.433650,0.297632,9.689068,0.000000,0.000000,0,0,,38.990286,-76.940897,-9.237000,,,
2026-09-11T19:05:13.535,9.792476,-0.000000,-0.000000,-0.000000,0.000000,-36.484222,12.551911,-0.000000,-0.003337,-0.007025,-0.007796,0.000370,-0.003689,0.017041,0.002773,-0.005542,0.422961,0.334309,9.702700,0.000000,0.000000,0,0,,38.990286,-76.940897,-9.237000,,,
2026-09-11T19:05:13.569,9.825889,-0.000000,-0.000000,-0.000000,0.000000,-34.685211,11.932985,-0.000000,-0.003555,-0.007484,-0.008038,0.000369,-0.003804,-0.002787,-0.000901,-0.006001,0.423941,0.287237,9.681713,0.000000,0.000000,0,0,,38.990286,-76.940897,-9.237000,,,
2026-09-11T19:05:13.602,9.859307,-0.000000,-0.000000,-0.000000,0.000000,-29.311523,10.084240,-0.000000,-0.007382,-0.015540,-0.008423,0.000367,-0.003987,-0.013296,0.003079,-0.014057,0.402465,0.261151,9.690834,0.000000,0.000000,0,0,,38.990286,-76.940897,-9.237000,,,
2026-09-11T19:05:13.636,9.892749,-0.000000,-0.000000,-0.000000,0.000000,-27.354584,9.410981,-0.000000,-0.010008,-0.021070,-0.009035,0.000365,-0.004278,-0.031735,0.001566,-0.019586,0.438946,0.159848,9.635034,0.000000,0.000000,0,0,,38.990286,-76.940897,-9.237000,,,
2026-09-11T19:05:13.669,9.926166,-0.000000,-0.000000,-0.000000,0.000000,-25.314560,8.709138,-0.000000,-0.009536,-0.020076,-0.009722,0.000361,-0.004604,-0.037374,0.000219,-0.018593,0.390403,0.252325,9.642977,0.000000,0.000000,0,0,,38.990286,-76.940897,-9.237000,,,
2026-09-11T19:05:13.702,9.959586,-0.000000,-0.000000,-0.000000,0.000000,-23.078156,7.939732,-0.000000,-0.007405,-0.015590,-0.010318,0.000359,-0.004887,-0.014666,0.001801,-0.014106,0.354020,0.354314,9.714566,0.000000,0.000000,0,0,,38.990286,-76.940897,-9.237000,,,
2026-09-11T19:05:13.736,9.993012,-0.000000,-0.000000,-0.000000,0.000000,-22.357178,7.691690,-0.000000,-0.002163,-0.004553,-0.010655,0.000357,-0.005047,0.018678,0.002456,-0.003070,0.310773,0.381675,9.714958,0.000000,0.000000,0,0,,38.990286,-76.940897,-9.237000,,,
2026-09-11T19:05:13.769,10.026429,-0.000000,-0.000000,-0.000000,0.000000,-22.684708,7.804372,-0.000000,-0.000205,-0.000431,-0.010738,0.000357,-0.005087,0.038657,0.000357,0.001053,0.415214,0.284197,9.696031,0.000000,0.000000,0,0,,38.990286,-76.940897,-9.237000,,,
2026-09-11T19:05:13.802,10.059853,-0.000000,-0.000000,-0.000000,0.000000,-22.863235,7.865792,-0.000000,-0.001753,-0.003691,-0.010807,0.000356,-0.005120,0.042251,0.003207,-0.002208,0.478663,0.285177,9.720156,0.000000,0.000000,0,0,,38.990286,-76.940897,-9.237000,,,
2026-09-11T19:05:13.836,10.093273,-0.000000,-0.000000,-0.000000,0.000000,-22.710114,7.813112,-0.000000,-0.002129,-0.004482,-0.010944,0.000356,-0.005185,0.027678,0.000937,-0.002999,0.494942,0.336858,9.654843,0.000000,0.000000,0,0,,38.990286,-76.940897,-9.237000,,,
2026-09-11T19:05:13.870,10.126689,-0.000000,-0.000000,-0.000000,0.000000,-22.182083,7.631451,-0.000000,-0.003175,-0.006684,-0.011130,0.000355,-0.005273,0.011123,0.001623,-0.005201,0.385009,0.373633,9.698483,0.000000,0.000000,0,1,10.102921,38.990286,-76.940897,-9.279000,-0.127479,0.135843,2.715051
2026-09-11T19:05:13.903,10.160130,-0.000000,-0.000000,-0.000000,0.000000,-21.518097,7.403015,-0.000000,-0.002413,-0.005080,-0.011327,0.000353,-0.005367,0.009101,0.002115,-0.003596,0.365592,0.355099,9.687401,0.000000,0.000000,0,0,,38.990286,-76.940897,-9.279000,,,
2026-09-11T19:05:13.936,10.193554,-0.000000,-0.000000,-0.000000,0.000000,-20.917969,7.196549,-0.000000,-0.002042,-0.004299,-0.011484,0.000353,-0.005441,0.000068,0.002438,-0.002816,0.368142,0.396973,9.695639,0.000000,0.000000,0,0,,38.990286,-76.940897,-9.279000,,,
2026-09-11T19:05:13.970,10.226969,-0.000000,-0.000000,-0.000000,0.000000,-20.554047,7.071346,-0.000000,-0.001569,-0.003302,-0.011611,0.000352,-0.005501,-0.000773,0.002620,-0.001819,0.373830,0.369220,9.686617,0.000000,0.000000,0,0,,38.990286,-76.940897,-9.279000,,,
2026-09-11T19:05:14.003,10.260387,-0.000000,-0.000000,-0.000000,0.000000,-20.341187,6.998115,-0.000000,-0.001022,-0.002152,-0.011702,0.000351,-0.005545,0.001194,0.000394,-0.000668,0.387068,0.362356,9.694756,0.000000,0.000000,0,0,,38.990286,-76.940897,-9.279000,,,
2026-09-11T19:05:14.037,10.293810,-0.000000,-0.000000,-0.000000,0.000000,-20.033569,6.892283,-0.000000,-0.001250,-0.002632,-0.011782,0.000351,-0.005583,-0.006692,0.001931,-0.001149,0.407564,0.348724,9.689363,0.000000,0.000000,0,0,,38.990286,-76.940897,-9.279000,,,
2026-09-11T19:05:14.070,10.327225,-0.000000,-0.000000,-0.000000,0.000000,-19.719086,6.784089,-0.000000,-0.001364,-0.002871,-0.011874,0.000350,-0.005626,-0.003535,0.002444,-0.001388,0.417273,0.353137,9.705740,0.000000,0.000000,0,0,,38.990286,-76.940897,-9.279000,,,
2026-09-11T19:05:14.103,10.360646,-0.000000,-0.000000,-0.000000,0.000000,-19.156036,6.590379,-0.000000,-0.000803,-0.001692,-0.011950,0.000350,-0.005662,-0.003863,-0.000810,-0.000208,0.410997,0.314205,9.696816,0.000000,0.000000,0,0,,38.990286,-76.940897,-9.279000,,,
2026-09-11T19:05:14.137,10.394088,-0.000000,-0.000000,-0.000000,0.000000,-18.021698,6.200125,-0.000000,-0.002723,-0.005732,-0.012074,0.000349,-0.005721,-0.005512,0.002956,-0.004248,0.412566,0.314990,9.702798,0.000000,0.000000,0,0,,38.990286,-76.940897,-9.279000,,,
2026-09-11T19:05:14.170,10.427504,-0.000000,-0.000000,-0.000000,0.000000,-15.757828,5.421271,-0.000000,-0.004092,-0.008615,-0.012314,0.000348,-0.005835,-0.005962,0.002763,-0.007132,0.406584,0.309008,9.699856,0.000000,0.000000,0,0,,38.990286,-76.940897,-9.279000,,,
2026-09-11T19:05:14.203,10.460944,-0.000000,-0.000000,-0.000000,0.000000,-14.999084,5.160235,-0.000000,-0.003880,-0.008168,-0.012594,0.000346,-0.005969,-0.010516,-0.001479,-0.006685,0.403642,0.321070,9.692305,0.000000,0.000000,0,0,,38.990286,-76.940897,-9.279000,,,
2026-09-11T19:05:14.237,10.494370,-0.000000,-0.000000,-0.000000,0.000000,-13.708878,4.716357,-0.000000,-0.003992,-0.008404,-0.012871,0.000345,-0.006100,-0.002377,0.001625,-0.006920,0.370888,0.360983,9.695639,0.000000,0.000000,0,0,,38.990286,-76.940897,-9.279000,,,
2026-09-11T19:05:14.270,10.527789,-0.000000,-0.000000,-0.000000,0.000000,-12.913055,4.442565,-0.000000,-0.003619,-0.007618,-0.013139,0.000343,-0.006227,0.002529,0.001166,-0.006135,0.381577,0.328032,9.679850,0.000000,0.000000,0,0,,38.990286,-76.940897,-9.279000,,,
2026-09-11T19:05:14.304,10.561211,-0.000000,-0.000000,-0.000000,0.000000,-12.217484,4.203263,-0.000000,-0.002773,-0.005838,-0.013364,0.000342,-0.006334,0.001852,0.000155,-0.004355,0.386382,0.372849,9.693972,0.000000,0.000000,0,0,,38.990286,-76.940897,-9.279000,,,
2026-09-11T19:05:14.337,10.594650,-0.000000,-0.000000,-0.000000,0.000000,-11.608429,3.993726,-0.000000,-0.002366,-0.004981,-0.013545,0.000340,-0.006420,0.006602,0.001547,-0.003497,0.386088,0.328621,9.697012,0.000000,0.000000,0,0,,38.990286,-76.940897,-9.279000,,,
2026-09-11T19:05:14.371,10.628068,-0.000000,-0.000000,-0.000000,0.000000,-11.023407,3.792457,-0.000000,-0.002424,-0.005104,-0.013713,0.000339,-0.006500,0.005882,0.000941,-0.003620,0.379615,0.344410,9.703778,0.000000,0.000000,0,0,,38.990286,-76.940897,-9.279000,,,
2026-09-11T19:05:14.404,10.661490,-0.000000,-0.000000,-0.000000,0.000000,-10.473404,3.603235,-0.000000,-0.000895,-0.001884,-0.013830,0.000339,-0.006556,0.000742,0.000055,-0.000400,0.400013,0.336858,9.677399,0.000000,0.000000,0,0,,38.990286,-76.940897,-9.279000,,,
2026-09-11T19:05:14.438,10.694915,-0.000000,-0.000000,-0.000000,0.000000,-10.130081,3.485120,-0.000000,-0.001600,-0.003369,-0.013918,0.000338,-0.006597,0.008628,0.000511,-0.001886,0.395306,0.377262,9.696914,0.000000,0.000000,0,0,,38.990286,-76.940897,-9.279000,,,
2026-09-11T19:05:14.471,10.728333,-0.000000,-0.000000,-0.000000,0.000000,-9.750366,3.354484,-0.000000,-0.001001,-0.002107,-0.014009,0.000337,-0.006641,0.007532,0.000423,-0.000624,0.391776,0.306164,9.681910,0.000000,0.000000,0,0,,38.990286,-76.940897,-9.279000,,,
2026-09-11T19:05:14.504,10.761754,-0.000000,-0.000000,-0.000000,0.000000,-9.295120,3.197862,-0.000000,-0.001246,-0.002623,-0.014089,0.000337,-0.006678,0.002164,0.001205,-0.001140,0.396581,0.363042,9.688676,0.000000,0.000000,0,0,,38.990286,-76.940897,-9.279000,,,
2026-09-11T19:05:14.538,10.795178,-0.000000,-0.000000,-0.000000,0.000000,-8.774643,3.018799,-0.000000,-0.001809,-0.003809,-0.014196,0.000336,-0.006729,0.002289,0.000020,-0.002326,0.391972,0.333132,9.687205,0.000000,0.000000,0,0,,38.990286,-76.940897,-9.279000,,,
2026-09-11T19:05:14.571,10.828605,-0.000000,-0.000000,-0.000000,0.000000,-7.850418,2.700832,-0.000000,-0.001529,-0.003218,-0.014313,0.000335,-0.006785,-0.002579,-0.000387,-0.001735,0.394031,0.312146,9.682694,0.000000,0.000000,0,0,,38.990286,-76.940897,-9.279000,,,
2026-09-11T19:05:14.604,10.862019,-0.000000,-0.000000,-0.000000,0.000000,-5.155334,1.773624,-0.000000,-0.002999,-0.006313,-0.014473,0.000334,-0.006861,-0.011189,0.002144,-0.004829,0.397071,0.327836,9.681910,0.000000,0.000000,0,0,,38.990286,-76.940897,-9.279000,,,
2026-09-11T19:05:14.638,10.895449,-0.000000,-0.000000,-0.000000,0.000000,-1.917801,0.659794,-0.000000,-0.003767,-0.007931,-0.014711,0.000333,-0.006974,-0.018118,-0.000337,-0.006447,0.430022,0.269781,9.734081,0.000000,0.000000,0,0,,38.990286,-76.940897,-9.279000,,,
2026-09-11T19:05:14.671,10.928872,-0.000000,-0.000000,-0.000000,0.000000,-1.702881,0.585854,-0.000000,-0.003501,-0.007371,-0.014967,0.000331,-0.007095,-0.015923,-0.000770,-0.005887,0.431689,0.417469,9.697404,0.000000,0.000000,0,0,,38.990286,-76.940897,-9.279000,,,
2026-09-11T19:05:14.705,10.962283,-0.000000,-0.000000,-0.000000,0.000000,-1.702881,0.585854,-0.000000,-0.002454,-0.005165,-0.015176,0.000329,-0.007195,-0.008660,0.002244,-0.003682,0.380008,0.366769,9.746535,0.000000,0.000000,0,0,,38.990286,-76.940897,-9.279000,,,
2026-09-11T19:05:14.738,10.995710,-0.000000,-0.000000,-0.000000,0.000000,-1.410370,0.485219,-0.000000,-0.001904,-0.004009,-0.015329,0.000328,-0.007267,0.002546,0.000290,-0.002526,0.390795,0.379615,9.682694,0.000000,0.000000,0,0,,38.990286,-76.940897,-9.279000,,,
2026-09-11T19:05:14.772,11.029132,-0.000000,-0.000000,-0.000000,0.000000,-1.307373,0.449784,-0.000000,-0.001227,-0.002582,-0.015439,0.000327,-0.007320,0.003768,-0.000161,-0.001099,0.400896,0.357060,9.680439,0.000000,0.000000,0,0,,38.990286,-76.940897,-9.279000,,,
2026-09-11T19:05:14.805,11.062547,-0.000000,-0.000000,-0.000000,0.000000,-1.167984,0.401829,-0.000000,-0.001167,-0.002457,-0.015524,0.000327,-0.007360,0.004597,0.002102,-0.000974,0.402171,0.327052,9.683381,0.000000,0.000000,0,0,,38.990286,-76.940897,-9.279000,,,
2026-09-11T19:05:14.840,11.095975,-0.000000,-0.000000,-0.000000,0.000000,-1.131592,0.389309,-0.000000,-0.000653,-0.001374,-0.015588,0.000326,-0.007390,0.001811,-0.000196,0.000110,0.403053,0.342742,9.690834,0.000000,0.000000,0,0,,38.990286,-76.940897,-9.279000,,,
2026-09-11T19:05:14.872,11.129394,-0.000000,-0.000000,-0.000000,0.000000,-1.131592,0.389309,-0.000000,-0.000027,-0.000058,-0.015612,0.000326,-0.007402,-0.003181,-0.000079,0.001426,0.388539,0.364611,9.690245,0.000000,0.000000,0,1,11.105013,38.990286,-76.940897,-9.298000,-0.134969,0.143627,2.715051
2026-09-11T19:05:14.905,11.162815,-0.000000,-0.000000,-0.000000,0.000000,-1.131592,0.389309,-0.000000,-0.000433,-0.000911,-0.015628,0.000326,-0.007409,-0.002773,0.002645,0.000572,0.381086,0.355001,9.682106,0.000000,0.000000,0,0,,38.990286,-76.940897,-9.298000,,,
2026-09-11T19:05:14.940,11.196252,-0.000000,-0.000000,-0.000000,0.000000,-1.131592,0.389309,-0.000000,0.000086,0.000182,-0.015640,0.000326,-0.007415,-0.011037,0.000265,0.001665,0.385990,0.327934,9.681223,0.000000,0.000000,0,0,,38.990286,-76.940897,-9.298000,,,
2026-09-11T19:05:14.972,11.229670,-0.000000,-0.000000,-0.000000,0.000000,-1.131592,0.389309,-0.000000,-0.000033,-0.000070,-0.015638,0.000326,-0.007414,-0.011655,0.001713,0.001414,0.393345,0.319599,9.698483,0.000000,0.000000,0,0,,38.990286,-76.940897,-9.298000,,,
2026-09-11T19:05:15.006,11.263093,-0.000000,-0.000000,-0.000000,0.000000,-1.131592,0.389309,-0.000000,-0.001067,-0.002246,-0.015677,0.000326,-0.007433,-0.006155,0.001872,-0.000762,0.389030,0.317343,9.708191,0.000000,0.000000,0,0,,38.990286,-76.940897,-9.298000,,,
2026-09-11T19:05:15.040,11.296516,-0.000000,-0.000000,-0.000000,0.000000,-1.131592,0.389309,-0.000000,-0.000269,-0.000565,-0.015724,0.000325,-0.007455,-0.004265,0.001231,0.000918,0.372751,0.316068,9.695639,0.000000,0.000000,0,0,,38.990286,-76.940897,-9.298000,,,
2026-09-11T19:05:15.073,11.329934,-0.000000,-0.000000,-0.000000,0.000000,-1.008682,0.347024,-0.000000,-0.001259,-0.002650,-0.015777,0.000325,-0.007480,0.004204,0.001633,-0.001167,0.388147,0.301653,9.705249,0.000000,0.000000,0,0,,38.990286,-76.940897,-9.298000,,,
2026-09-11T19:05:15.106,11.363361,-0.000000,-0.000000,-0.000000,0.000000,-0.780029,0.268359,-0.000000,-0.002092,-0.004405,-0.015895,0.000324,-0.007536,0.007365,-0.000364,-0.002921,0.401386,0.318814,9.686421,0.000000,0.000000,0,0,,38.990286,-76.940897,-9.298000,,,
2026-09-11T19:05:15.140,11.396786,-0.000000,-0.000000,-0.000000,0.000000,-0.422974,0.145518,-0.000000,-0.001831,-0.003856,-0.016033,0.000323,-0.007602,0.005900,0.001399,-0.002372,0.402269,0.318814,9.704367,0.000000,0.000000,0,0,,38.990286,-76.940897,-9.298000,,,
2026-09-11T19:05:15.173,11.430213,-0.000000,-0.000000,-0.000000,0.000000,-0.074158,0.025513,-0.000000,-0.002839,-0.005976,-0.016198,0.000322,-0.007680,0.007556,0.002757,-0.004493,0.414233,0.356962,9.691520,0.000000,0.000000,0,0,,38.990286,-76.940897,-9.298000,,,
2026-09-11T19:05:15.207,11.463634,-0.000000,-0.000000,-0.000000,0.000000,0.086517,-0.029765,-0.000000,-0.001162,-0.002446,-0.016339,0.000321,-0.007747,0.008316,0.000503,-0.000962,0.395894,0.353334,9.698385,0.000000,0.000000,0,0,,38.990286,-76.940897,-9.298000,,,
2026-09-11T19:05:15.240,11.497059,-0.000000,-0.000000,-0.000000,0.000000,0.142822,-0.049136,-0.000000,-0.000606,-0.001275,-0.016401,0.000320,-0.007776,0.004675,0.002958,0.000209,0.385401,0.333132,9.695541,0.000000,0.000000,0,0,,38.990286,-76.940897,-9.298000,,,
2026-09-11T19:05:15.273,11.530477,-0.000000,-0.000000,-0.000000,0.000000,0.186768,-0.064255,-0.000000,-0.000824,-0.001735,-0.016451,0.000320,-0.007800,0.004733,0.002895,-0.000252,0.400896,0.354020,9.677399,0.000000,0.000000,0,0,,38.990286,-76.940897,-9.298000,,,
2026-09-11T19:05:15.306,11.563919,-0.000000,-0.000000,-0.000000,0.000000,0.186768,-0.064255,-0.000000,0.000222,0.000467,-0.016472,0.000320,-0.007810,-0.003228,-0.000744,0.001950,0.393443,0.342154,9.676712,0.000000,0.000000,0,0,,38.990286,-76.940897,-9.298000,,,
2026-09-11T19:05:15.340,11.597351,-0.000000,-0.000000,-0.000000,0.000000,0.186768,-0.064255,-0.000000,-0.000551,-0.001161,-0.016484,0.000319,-0.007816,-0.003642,0.003097,0.000323,0.384715,0.340683,9.700052,0.000000,0.000000,0,0,,38.990286,-76.940897,-9.298000,,,
2026-09-11T19:05:15.373,11.630790,-0.000000,-0.000000,-0.000000,0.000000,0.186768,-0.064255,-0.000000,-0.000618,-0.001300,-0.016525,0.000319,-0.007835,-0.008235,0.000843,0.000183,0.391580,0.375104,9.702209,0.000000,0.000000,0,0,,38.990286,-76.940897,-9.298000,,,
2026-09-11T19:05:15.407,11.664232,-0.000000,-0.000000,-0.000000,0.000000,0.186768,-0.064255,-0.000000,0.001257,0.002647,-0.016502,0.000319,-0.007825,-0.008875,0.000154,0.004130,0.370593,0.324306,9.696423,0.000000,0.000000,0,0,,38.990286,-76.940897,-9.298000,,,
2026-09-11T19:05:15.440,11.697709,-0.000000,-0.000000,-0.000000,0.000000,0.186768,-0.064255,-0.000000,-0.000862,-0.001815,-0.016489,0.000319,-0.007818,0.000905,0.002705,-0.000331,0.382459,0.331661,9.697012,0.000000,0.000000,0,0,,38.990286,-76.940897,-9.298000,,,
2026-09-11T19:05:15.474,11.731139,-0.000000,-0.000000,-0.000000,0.000000,0.186768,-0.064255,-0.000000,0.000541,0.001140,-0.016500,0.000319,-0.007823,0.005596,0.001770,0.002623,0.407270,0.314990,9.688578,0.000000,0.000000,0,0,,38.990286,-76.940897,-9.298000,,,
2026-09-11T19:05:15.508,11.764561,-0.000000,-0.000000,-0.000000,0.000000,0.186768,-0.064255,-0.000000,0.000013,0.000028,-0.016480,0.000319,-0.007814,0.000364,0.001431,0.001512,0.413350,0.335191,9.694560,0.000000,0.000000,0,0,,38.990286,-76.940897,-9.298000,,,
2026-09-11T19:05:15.541,11.797974,-0.000000,-0.000000,-0.000000,0.000000,0.186768,-0.064255,-0.000000,0.000231,0.000486,-0.016472,0.000320,-0.007810,0.000506,0.001365,0.001969,0.397071,0.329405,9.683381,0.000000,0.000000,0,0,,38.990286,-76.940897,-9.298000,,,
2026-09-11T19:05:15.574,11.831387,-0.000000,-0.000000,-0.000000,0.000000,0.186768,-0.064255,-0.000000,0.000280,0.000589,-0.016454,0.000320,-0.007802,-0.002502,-0.000535,0.002072,0.381086,0.343723,9.700052,0.000000,0.000000,0,0,,38.990286,-76.940897,-9.298000,,,
2026-09-11T19:05:15.608,11.864802,-0.000000,-0.000000,-0.000000,0.000000,0.186768,-0.064255,-0.000000,-0.000484,-0.001019,-0.016461,0.000320,-0.007805,-0.009491,0.001419,0.000464,0.384519,0.329503,9.682792,0.000000,0.000000,0,0,,38.990286,-76.940897,-9.298000,,,
2026-09-11T19:05:15.641,11.898231,-0.000000,-0.000000,-0.000000,0.000000,0.186768,-0.064255,-0.000000,0.000376,0.000791,-0.016465,0.000320,-0.007807,-0.002653,0.001117,0.002275,0.391285,0.328621,9.702209,0.000000,0.000000,0,0,,38.990286,-76.940897,-9.298000,,,
2026-09-11T19:05:15.674,11.931656,-0.000000,-0.000000,-0.000000,0.000000,0.186768,-0.064255,-0.000000,-0.000822,-0.001730,-0.016480,0.000319,-0.007814,-0.000786,0.000958,-0.000246,0.384519,0.316657,9.701523,0.000000,0.000000,0,0,,38.990286,-76.940897,-9.298000,,,
2026-09-11T19:05:15.708,11.965073,-0.000000,-0.000000,-0.000000,0.000000,0.186768,-0.064255,-0.000000,-0.000564,-0.001186,-0.016529,0.000319,-0.007837,0.003025,0.003065,0.000297,0.405113,0.315774,9.695345,0.000000,0.000000,0,0,,38.990286,-76.940897,-9.298000,,,
2026-09-11T19:05:15.741,11.998488,-0.000000,-0.000000,-0.000000,0.000000,0.186768,-0.064255,-0.000000,0.000425,0.000894,-0.016534,0.000319,-0.007840,0.009096,0.001361,0.002377,0.402073,0.312048,9.689363,0.000000,0.000000,0,0,,38.990286,-76.940897,-9.298000,,,
2026-09-11T19:05:15.774,12.031909,-0.000000,-0.000000,-0.000000,0.000000,0.186768,-0.064255,-0.000000,0.000151,0.000318,-0.016514,0.000319,-0.007830,0.007724,-0.000511,0.001801,0.403740,0.324012,9.695345,0.000000,0.000000,0,0,,38.990286,-76.940897,-9.298000,,,
2026-09-11T19:05:15.808,12.065319,-0.000000,-0.000000,-0.000000,0.000000,0.186768,-0.064255,-0.000000,-0.001458,-0.003068,-0.016560,0.000319,-0.007852,0.010797,0.001602,-0.001585,0.400209,0.347253,9.697600,0.000000,0.000000,0,0,,38.990286,-76.940897,-9.298000,,,
2026-09-11T19:05:15.841,12.098734,-0.000000,-0.000000,-0.000000,0.000000,0.186768,-0.064255,-0.000000,-0.001911,-0.004023,-0.016678,0.000318,-0.007908,0.008416,0.000577,-0.002539,0.389716,0.327150,9.690245,0.000000,0.000000,0,0,,38.990286,-76.940897,-9.298000,,,
2026-09-11T19:05:15.875,12.132160,-0.000000,-0.000000,-0.000000,0.000000,0.394821,-0.135833,-0.000000,-0.000671,-0.001413,-0.016769,0.000317,-0.007951,0.004712,0.000046,0.000071,0.381577,0.310675,9.698581,0.000000,0.000000,0,1,12.111040,38.990286,-76.940897,-9.321000,-0.146781,0.146777,2.715051
2026-09-11T19:05:15.908,12.165584,-0.000000,-0.000000,-0.000000,0.000000,0.761490,-0.261980,-0.000000,-0.002741,-0.005771,-0.016889,0.000316,-0.008008,0.002027,0.001945,-0.004288,0.389128,0.351863,9.682008,0.000000,0.000000,0,0,,38.990286,-76.940897,-9.321000,,,
2026-09-11T19:05:15.941,12.199002,-0.000000,-0.000000,-0.000000,0.000000,1.056061,-0.363324,-0.000000,0.000357,0.000752,-0.016973,0.000316,-0.008048,-0.000180,-0.001162,0.002236,0.386970,0.348136,9.687990,0.000000,0.000000,0,0,,38.990286,-76.940897,-9.321000,,,
2026-09-11T19:05:15.975,12.232428,-0.000000,-0.000000,-0.000000,0.000000,1.308746,-0.450257,-0.000000,-0.001145,-0.002411,-0.017001,0.000315,-0.008061,0.000864,-0.000008,-0.000927,0.395698,0.330876,9.696914,0.000000,0.000000,0,0,,38.990286,-76.940897,-9.321000,,,
2026-09-11T19:05:16.008,12.265842,-0.000000,-0.000000,-0.000000,0.000000,1.566925,-0.539080,-0.000000,-0.000945,-0.001990,-0.017074,0.000315,-0.008096,0.004012,0.002157,-0.000506,0.397267,0.349607,9.688676,0.000000,0.000000,0,0,,38.990286,-76.940897,-9.321000,,,
2026-09-11T19:05:16.042,12.299269,-0.000000,-0.000000,-0.000000,0.000000,1.857376,-0.639006,-0.000000,-0.000690,-0.001454,-0.017132,0.000314,-0.008124,-0.002196,-0.001713,0.000030,0.400013,0.318814,9.705838,0.000000,0.000000,0,0,,38.990286,-76.940897,-9.321000,,,
2026-09-11T19:05:16.075,12.332690,-0.000000,-0.000000,-0.000000,0.000000,2.299576,-0.791139,-0.000000,-0.001009,-0.002124,-0.017192,0.000314,-0.008152,-0.000910,-0.000168,-0.000641,0.398444,0.315088,9.693874,0.000000,0.000000,0,0,,38.990286,-76.940897,-9.321000,,,
2026-09-11T19:05:16.109,12.366104,-0.000000,-0.000000,-0.000000,0.000000,3.037033,-1.044851,-0.000000,-0.002810,-0.005915,-0.017326,0.000313,-0.008216,0.002826,0.001229,-0.004432,0.408643,0.300770,9.687794,0.000000,0.000000,0,0,,38.990286,-76.940897,-9.321000,,,
2026-09-11T19:05:16.142,12.399523,-0.000000,-0.000000,-0.000000,0.000000,4.203644,-1.446208,-0.000000,-0.001576,-0.003319,-0.017480,0.000311,-0.008289,-0.004644,0.000840,-0.001835,0.418057,0.279784,9.684754,0.000000,0.000000,0,0,,38.990286,-76.940897,-9.321000,,,
2026-09-11T19:05:16.175,12.432947,-0.000000,-0.000000,-0.000000,0.000000,5.826874,-2.004659,-0.000000,-0.004609,-0.009703,-0.017698,0.000310,-0.008392,-0.008396,0.000612,-0.008219,0.412566,0.329209,9.687794,0.000000,0.000000,0,0,,38.990286,-76.940897,-9.321000,,,
2026-09-11T19:05:16.209,12.466358,-0.000000,-0.000000,-0.000000,0.000000,8.127824,-2.796270,-0.000000,-0.005367,-0.011299,-0.018049,0.000307,-0.008559,-0.006911,0.000774,-0.009815,0.404328,0.305281,9.691618,0.000000,0.000000,0,0,,38.990286,-76.940897,-9.321000,,,
2026-09-11T19:05:16.242,12.499785,-0.000000,-0.000000,-0.000000,0.000000,11.510927,-3.960181,-0.000000,-0.005408,-0.011385,-0.018428,0.000303,-0.008739,-0.014908,0.001382,-0.009902,0.405113,0.317245,9.693089,0.000000,0.000000,0,0,,38.990286,-76.940897,-9.321000,,,
2026-09-11T19:05:16.276,12.533205,-0.000000,-0.000000,-0.000000,0.000000,13.790590,-4.744469,-0.000000,-0.007313,-0.015397,-0.018875,0.000299,-0.008952,-0.019032,0.002793,-0.013913,0.403544,0.312832,9.683381,0.000000,0.000000,0,0,,38.990286,-76.940897,-9.321000,,,
2026-09-11T19:05:16.309,12.566615,-0.000000,-0.000000,-0.000000,0.000000,15.484544,-5.327251,-0.000000,-0.005920,-0.012462,-0.019341,0.000295,-0.009173,-0.003496,0.000434,-0.010979,0.378733,0.523479,9.698679,0.000000,0.000000,0,0,,38.990286,-76.940897,-9.321000,,,
2026-09-11T19:05:16.342,12.600029,-0.000000,-0.000000,-0.000000,0.000000,16.007081,-5.507023,-0.000000,-0.000494,-0.001040,-0.019566,0.000293,-0.009280,0.011298,0.001667,0.000444,0.289787,0.427472,9.727903,0.000000,0.000000,0,0,,38.990286,-76.940897,-9.321000,,,
2026-09-11T19:05:16.376,12.633459,-0.000000,-0.000000,-0.000000,0.000000,16.007081,-5.507023,-0.000000,-0.000442,-0.000930,-0.019599,0.000293,-0.009295,0.032099,0.001320,0.000553,0.360198,0.298907,9.713683,0.000000,0.000000,0,0,,38.990286,-76.940897,-9.321000,,,
2026-09-11T19:05:16.409,12.666873,-0.000000,-0.000000,-0.000000,0.000000,16.007081,-5.507023,-0.000000,-0.000315,-0.000664,-0.019626,0.000292,-0.009308,0.026837,0.000312,0.000820,0.462972,0.369318,9.689559,0.000000,0.000000,0,0,,38.990286,-76.940897,-9.321000,,,
2026-09-11T19:05:16.443,12.700302,-0.000000,-0.000000,-0.000000,0.000000,16.007081,-5.507023,-0.000000,-0.001232,-0.002594,-0.019680,0.000292,-0.009334,0.019506,0.002593,-0.001111,0.452283,0.353726,9.652195,0.000000,0.000000,0,0,,38.990286,-76.940897,-9.321000,,,
2026-09-11T19:05:16.476,12.733720,-0.000000,-0.000000,-0.000000,0.000000,16.204835,-5.575058,-0.000000,-0.001755,-0.003694,-0.019785,0.000291,-0.009384,0.008178,-0.000818,-0.002211,0.376673,0.355001,9.695639,0.000000,0.000000,0,0,,38.990286,-76.940897,-9.321000,,,
2026-09-11T19:05:16.509,12.767150,-0.000000,-0.000000,-0.000000,0.000000,16.877748,-5.806565,-0.000000,-0.001879,-0.003955,-0.019913,0.000290,-0.009445,-0.001474,-0.000169,-0.002472,0.383930,0.342154,9.696325,0.000000,0.000000,0,0,,38.990286,-76.940897,-9.321000,,,
2026-09-11T19:05:16.543,12.800574,-0.000000,-0.000000,-0.000000,0.000000,18.085557,-6.222095,-0.000000,-0.002643,-0.005564,-0.020072,0.000288,-0.009520,-0.003274,0.003651,-0.004081,0.391580,0.375889,9.686519,0.000000,0.000000,0,0,,38.990286,-76.940897,-9.321000,,,
2026-09-11T19:05:16.577,12.833995,-0.000000,-0.000000,-0.000000,0.000000,20.422899,-7.026227,-0.000000,-0.001979,-0.004166,-0.020235,0.000287,-0.009597,-0.014879,-0.000106,-0.002683,0.376379,0.319010,9.693383,0.000000,0.000000,0,0,,38.990286,-76.940897,-9.321000,,,
2026-09-11T19:05:16.611,12.867405,-0.000000,-0.000000,-0.000000,0.000000,21.615602,-7.436560,-0.000000,-0.003084,-0.006493,-0.020413,0.000285,-0.009682,-0.017507,0.000460,-0.005009,0.383538,0.387853,9.694756,0.000000,0.000000,0,0,,38.990286,-76.940897,-9.321000,,,
2026-09-11T19:05:16.644,12.900831,-0.000000,-0.000000,-0.000000,0.000000,22.429277,-7.716494,-0.000000,-0.002387,-0.005026,-0.020605,0.000283,-0.009773,-0.009251,0.002234,-0.003542,0.363827,0.398542,9.700248,0.000000,0.000000,0,0,,38.990286,-76.940897,-9.321000,,,
2026-09-11T19:05:16.677,12.934257,-0.000000,-0.000000,-0.000000,0.000000,22.642825,-7.789963,-0.000000,-0.001098,-0.002312,-0.020728,0.000282,-0.009832,-0.001458,0.001016,-0.000828,0.380302,0.337643,9.702307,0.000000,0.000000,0,0,,38.990286,-76.940897,-9.321000,,,
2026-09-11T19:05:16.710,12.967701,-0.000000,-0.000000,-0.000000,0.000000,22.686770,-7.805082,-0.000000,-0.000455,-0.000958,-0.020783,0.000281,-0.009857,0.005355,0.001974,0.000526,0.415900,0.375595,9.698973,0.000000,0.000000,0,0,,38.990286,-76.940897,-9.321000,,,
2026-09-11T19:05:16.744,13.001128,-0.000000,-0.000000,-0.000000,0.000000,22.686770,-7.805082,-0.000000,-0.000829,-0.001746,-0.020828,0.000281,-0.009879,0.010035,0.001320,-0.000262,0.418940,0.304496,9.683969,0.000000,0.000000,0,0,,38.990286,-76.940897,-9.321000,,,
2026-09-11T19:05:16.777,13.034554,-0.000000,-0.000000,-0.000000,0.000000,22.686770,-7.805082,-0.000000,-0.001231,-0.002592,-0.020900,0.000280,-0.009913,0.004795,0.001973,-0.001108,0.418744,0.374124,9.672789,0.000000,0.000000,0,0,,38.990286,-76.940897,-9.321000,,,
2026-09-11T19:05:16.811,13.067964,-0.000000,-0.000000,-0.000000,0.000000,22.732089,-7.820673,-0.000000,-0.001625,-0.003420,-0.021001,0.000279,-0.009961,0.002872,0.001418,-0.001937,0.384617,0.336172,9.694756,0.000000,0.000000,0,0,,38.990286,-76.940897,-9.321000,,,
2026-09-11T19:05:16.845,13.101388,-0.000000,-0.000000,-0.000000,0.000000,22.826159,-7.853036,-0.000000,-0.001547,-0.003257,-0.021112,0.000278,-0.010014,0.005381,0.001587,-0.001774,0.385597,0.361669,9.700738,0.000000,0.000000,0,1,13.109220,38.990286,-76.940897,-9.339000,-0.148222,0.154005,2.715051
2026-09-11T19:05:16.879,13.134802,-0.000000,-0.000000,-0.000000,0.000000,22.862552,-7.865557,-0.000000,-0.000537,-0.001131,-0.021186,0.000277,-0.010049,-0.001248,0.001809,0.000353,0.385892,0.391580,9.704563,0.000000,0.000000,0,0,,38.990286,-76.940897,-9.339000,,,
2026-09-11T19:05:16.911,13.168231,-0.000000,-0.000000,-0.000000,0.000000,22.906497,-7.880676,-0.000000,0.000276,0.000582,-0.021195,0.000277,-0.010053,-0.001490,0.002658,0.002065,0.370103,0.349803,9.698679,0.000000,0.000000,0,0,,38.990286,-76.940897,-9.339000,,,
2026-09-11T19:05:16.944,13.201658,-0.000000,-0.000000,-0.000000,0.000000,22.906497,-7.880676,-0.000000,0.000407,0.000857,-0.021171,0.000278,-0.010042,-0.002838,0.000253,0.002341,0.375399,0.379713,9.682890,0.000000,0.000000,0,0,,38.990286,-76.940897,-9.339000,,,
2026-09-11T19:05:16.978,13.235097,-0.000000,-0.000000,-0.000000,0.000000,22.906497,-7.880676,-0.000000,0.000630,0.001326,-0.021134,0.000278,-0.010024,-0.008186,0.001031,0.002810,0.367161,0.357256,9.696423,0.000000,0.000000,0,0,,38.990286,-76.940897,-9.339000,,,
2026-09-11T19:05:17.011,13.268508,-0.000000,-0.000000,-0.000000,0.000000,22.906497,-7.880676,-0.000000,0.000819,0.001724,-0.021083,0.000278,-0.010000,-0.008323,0.001954,0.003207,0.400013,0.329307,9.681910,0.000000,0.000000,0,0,,38.990286,-76.940897,-9.339000,,,
2026-09-11T19:05:17.045,13.301934,-0.000000,-0.000000,-0.000000,0.000000,22.906497,-7.880676,-0.000000,0.000661,0.001391,-0.021031,0.000279,-0.009976,-0.008364,-0.000362,0.002875,0.424040,0.378537,9.701229,0.000000,0.000000,0,0,,38.990286,-76.940897,-9.339000,,,
2026-09-11T19:05:17.078,13.335352,-0.000000,-0.000000,-0.000000,0.000000,22.906497,-7.880676,-0.000000,0.001095,0.002306,-0.020970,0.000280,-0.009946,-0.007593,0.002492,0.003789,0.402171,0.316559,9.699071,0.000000,0.000000,0,0,,38.990286,-76.940897,-9.339000,,,
2026-09-11T19:05:17.111,13.368773,-0.000000,-0.000000,-0.000000,0.000000,22.906497,-7.880676,-0.000000,-0.000999,-0.002103,-0.020966,0.000280,-0.009945,-0.002127,0.001932,-0.000620,0.397758,0.309106,9.702111,0.000000,0.000000,0,0,,38.990286,-76.940897,-9.339000,,,
2026-09-11T19:05:17.145,13.402197,-0.000000,-0.000000,-0.000000,0.000000,22.906497,-7.880676,-0.000000,0.000992,0.002088,-0.020966,0.000280,-0.009945,-0.001747,-0.000530,0.003572,0.410703,0.365886,9.695345,0.000000,0.000000,0,0,,38.990286,-76.940897,-9.339000,,,
2026-09-11T19:05:17.178,13.435616,-0.000000,-0.000000,-0.000000,0.000000,22.906497,-7.880676,-0.000000,0.000014,0.000029,-0.020931,0.000280,-0.009928,0.005361,0.002897,0.001512,0.377948,0.324992,9.700836,0.000000,0.000000,0,0,,38.990286,-76.940897,-9.339000,,,
2026-09-11T19:05:17.212,13.469040,-0.000000,-0.000000,-0.000000,0.000000,22.906497,-7.880676,-0.000000,0.000062,0.000130,-0.020928,0.000280,-0.009927,0.007546,0.002598,0.001613,0.374516,0.356472,9.706132,0.000000,0.000000,0,0,,38.990286,-76.940897,-9.339000,,,
2026-09-11T19:05:17.246,13.502465,-0.000000,-0.000000,-0.000000,0.000000,22.906497,-7.880676,-0.000000,0.000150,0.000317,-0.020921,0.000280,-0.009923,0.002972,-0.000583,0.001800,0.386186,0.336172,9.700052,0.000000,0.000000,0,0,,38.990286,-76.940897,-9.339000,,,
2026-09-11T19:05:17.279,13.535894,-0.000000,-0.000000,-0.000000,0.000000,22.839892,-7.857761,-0.000000,-0.000121,-0.000256,-0.020920,0.000280,-0.009923,0.001942,0.001522,0.001228,0.383342,0.363925,9.691814,0.000000,0.000000,0,0,,38.990286,-76.940897,-9.339000,,,
2026-09-11T19:05:17.312,13.569319,-0.000000,-0.000000,-0.000000,0.000000,22.749255,-7.826579,-0.000000,0.000472,0.000994,-0.020908,0.000280,-0.009917,0.001707,0.001182,0.002478,0.382459,0.337643,9.693285,0.000000,0.000000,0,0,,38.990286,-76.940897,-9.339000,,,
2026-09-11T19:05:17.345,13.602748,-0.000000,-0.000000,-0.000000,0.000000,22.632525,-7.786419,-0.000000,0.000735,0.001548,-0.020865,0.000281,-0.009897,-0.005270,0.000478,0.003031,0.386872,0.348136,9.682792,0.000000,0.000000,0,0,,38.990286,-76.940897,-9.339000,,,
2026-09-11T19:05:17.379,13.636169,-0.000000,-0.000000,-0.000000,0.000000,22.353747,-7.690509,-0.000000,0.001077,0.002268,-0.020801,0.000281,-0.009866,-0.000305,0.000484,0.003751,0.404132,0.372751,9.701327,0.000000,0.000000,0,0,,38.990286,-76.940897,-9.339000,,,
2026-09-11T19:05:17.412,13.669593,-0.000000,-0.000000,-0.000000,0.000000,21.667102,-7.454278,-0.000000,0.002569,0.005408,-0.020673,0.000282,-0.009805,0.000605,0.001146,0.006892,0.411389,0.374222,9.690834,0.000000,0.000000,0,0,,38.990286,-76.940897,-9.339000,,,
2026-09-11T19:05:17.446,13.703029,-0.000000,-0.000000,-0.000000,0.000000,20.836947,-7.168675,-0.000000,0.001586,0.003338,-0.020527,0.000284,-0.009736,-0.001678,0.001055,0.004822,0.385303,0.326463,9.692501,0.000000,0.000000,0,0,,38.990286,-76.940897,-9.339000,,,
2026-09-11T19:05:17.479,13.736440,-0.000000,-0.000000,-0.000000,0.000000,20.157168,-6.934806,-0.000000,0.001896,0.003992,-0.020404,0.000285,-0.009678,-0.001646,-0.000338,0.005475,0.397856,0.321854,9.701425,0.000000,0.000000,0,0,,38.990286,-76.940897,-9.339000,,,
2026-09-11T19:05:17.513,13.769856,-0.000000,-0.000000,-0.000000,0.000000,19.617465,-6.749128,-0.000000,0.001954,0.004114,-0.020269,0.000286,-0.009613,-0.006047,-0.001796,0.005598,0.410408,0.339016,9.684852,0.000000,0.000000,0,0,,38.990286,-76.940897,-9.339000,,,
2026-09-11T19:05:17.546,13.803284,-0.000000,-0.000000,-0.000000,0.000000,19.021457,-6.544079,-0.000000,0.001366,0.002877,-0.020152,0.000288,-0.009558,-0.010826,0.003235,0.004360,0.396483,0.346567,9.694658,0.000000,0.000000,0,0,,38.990286,-76.940897,-9.339000,,,
2026-09-11T19:05:17.580,13.836701,-0.000000,-0.000000,-0.000000,0.000000,18.400729,-6.330526,-0.000000,0.001306,0.002749,-0.020058,0.000288,-0.009513,-0.011579,0.000113,0.004233,0.391874,0.315872,9.699954,0.000000,0.000000,0,0,,38.990286,-76.940897,-9.339000,,,
2026-09-11T19:05:17.613,13.870133,-0.000000,-0.000000,-0.000000,0.000000,17.393420,-5.983975,-0.000000,0.002758,0.005806,-0.019915,0.000290,-0.009445,-0.009471,-0.000001,0.007290,0.401288,0.392952,9.693187,0.000000,0.000000,0,0,,38.990286,-76.940897,-9.339000,,,
2026-09-11T19:05:17.646,13.903564,-0.000000,-0.000000,-0.000000,0.000000,14.952395,-5.144173,-0.000000,0.005299,0.011156,-0.019632,0.000292,-0.009311,0.002711,0.000160,0.012639,0.375693,0.411095,9.701621,0.000000,0.000000,0,0,,38.990286,-76.940897,-9.339000,,,
2026-09-11T19:05:17.680,13.936992,-0.000000,-0.000000,-0.000000,0.000000,12.525790,-4.309331,-0.000000,0.008200,0.017264,-0.019157,0.000297,-0.009085,0.011841,-0.002244,0.018747,0.336074,0.430904,9.708682,0.000000,0.000000,0,0,,38.990286,-76.940897,-9.339000,,,
2026-09-11T19:05:17.713,13.970456,-0.000000,-0.000000,-0.000000,0.000000,9.678958,-3.329917,-0.000000,0.008923,0.018786,-0.018553,0.000302,-0.008799,0.011311,0.000059,0.020269,0.344311,0.204763,9.629836,0.000000,0.000000,0,0,,38.990286,-76.940897,-9.339000,,,
2026-09-11T19:05:17.747,14.003888,-0.000000,-0.000000,-0.000000,0.000000,6.878131,-2.366329,-0.000000,0.005851,0.012319,-0.018033,0.000307,-0.008552,0.009117,0.001642,0.013802,0.405603,0.417763,9.633171,0.000000,0.000000,0,0,,38.990286,-76.940897,-9.339000,,,
2026-09-11T19:05:17.780,14.037307,-0.000000,-0.000000,-0.000000,0.000000,1.128161,-0.388129,-0.000000,0.007394,0.015566,-0.017568,0.000311,-0.008331,-0.003122,-0.001404,0.017049,0.398935,0.384028,9.670730,0.000000,0.000000,0,0,,38.990286,-76.940897,-9.339000,,,
2026-09-11T19:05:17.813,14.070729,-0.000000,-0.000000,-0.000000,0.000000,-0.395508,0.136069,-0.000000,0.009141,0.019244,-0.016986,0.000315,-0.008054,-0.007944,-0.000764,0.020728,0.380106,0.349019,9.658079,0.000000,0.000000,0,0,,38.990286,-76.940897,-9.339000,,,
2026-09-11T19:05:17.847,14.104153,-0.000000,-0.000000,-0.000000,0.000000,-1.110306,0.381986,-0.000000,0.004607,0.009699,-0.016502,0.000319,-0.007825,-0.005725,0.001959,0.011182,0.364121,0.256150,9.690441,0.000000,0.000000,0,1,14.104517,38.990286,-76.940897,-9.357000,-0.163058,0.157711,2.715051
2026-09-11T19:05:17.880,14.137580,-0.000000,-0.000000,-0.000000,0.000000,-2.584534,0.889174,-0.000000,0.005608,0.011807,-0.016143,0.000322,-0.007654,-0.016093,0.000468,0.013291,0.381086,0.285374,9.652784,0.000000,0.000000,0,0,,38.990286,-76.940897,-9.357000,,,
2026-09-11T19:05:17.914,14.171046,-0.000000,-0.000000,-0.000000,0.000000,-3.484726,1.198874,-0.000000,0.004034,0.008493,-0.015803,0.000325,-0.007493,-0.028057,0.001692,0.009976,0.413154,0.225847,9.675045,0.000000,0.000000,0,0,,38.990286,-76.940897,-9.357000,,,
2026-09-11T19:05:17.947,14.204470,-0.000000,-0.000000,-0.000000,0.000000,-4.128113,1.420222,-0.000000,0.003590,0.007559,-0.015535,0.000327,-0.007365,-0.032015,0.000180,0.009042,0.427472,0.392168,9.626208,0.000000,0.000000,0,0,,38.990286,-76.940897,-9.357000,,,
2026-09-11T19:05:17.981,14.237897,-0.000000,-0.000000,-0.000000,0.000000,-4.844971,1.666848,-0.000000,0.002670,0.005621,-0.015314,0.000328,-0.007260,-0.034485,-0.000578,0.007105,0.397562,0.367455,9.714860,0.000000,0.000000,0,0,,38.990286,-76.940897,-9.357000,,,
2026-09-11T19:05:18.014,14.271317,-0.000000,-0.000000,-0.000000,0.000000,-5.944977,2.045290,-0.000000,0.002080,0.004378,-0.015147,0.000329,-0.007181,-0.020079,0.001367,0.005862,0.399719,0.273802,9.706622,0.000000,0.000000,0,0,,38.990286,-76.940897,-9.357000,,,
2026-09-11T19:05:18.048,14.304750,-0.000000,-0.000000,-0.000000,0.000000,-7.529755,2.590512,-0.000000,0.005025,0.010579,-0.014897,0.000331,-0.007062,0.001464,-0.001180,0.012062,0.358433,0.270467,9.705446,0.000000,0.000000,0,0,,38.990286,-76.940897,-9.357000,,,
2026-09-11T19:05:18.081,14.338167,-0.000000,-0.000000,-0.000000,0.000000,-10.274277,3.534728,-0.000000,0.003927,0.008268,-0.014582,0.000333,-0.006913,0.017226,0.001452,0.009752,0.363140,0.307831,9.700150,0.000000,0.000000,0,0,,38.990286,-76.940897,-9.357000,,,
2026-09-11T19:05:18.114,14.371590,-0.000000,-0.000000,-0.000000,0.000000,-13.748016,4.729822,-0.000000,0.005964,0.012555,-0.014234,0.000336,-0.006748,0.035126,0.001903,0.014039,0.349215,0.421098,9.694364,0.000000,0.000000,0,0,,38.990286,-76.940897,-9.357000,,,
2026-09-11T19:05:18.148,14.405016,-0.000000,-0.000000,-0.000000,0.000000,-15.607452,5.369536,-0.000000,0.006934,0.014598,-0.013781,0.000339,-0.006532,0.039151,0.000101,0.016081,0.359316,0.166223,9.733198,0.000000,0.000000,0,0,,38.990286,-76.940897,-9.357000,,,
2026-09-11T19:05:18.181,14.438433,-0.000000,-0.000000,-0.000000,0.000000,-16.615448,5.716324,-0.000000,0.002504,0.005271,-0.013449,0.000341,-0.006374,0.025278,0.002116,0.006754,0.430022,0.201723,9.689853,0.000000,0.000000,0,0,,38.990286,-76.940897,-9.357000,,,
2026-09-11T19:05:18.214,14.471856,-0.000000,-0.000000,-0.000000,0.000000,-16.842728,5.794516,-0.000000,-0.000194,-0.000408,-0.013367,0.000342,-0.006336,-0.001299,0.001739,0.001075,0.474152,0.278509,9.704465,0.000000,0.000000,0,0,,38.990286,-76.940897,-9.357000,,,
2026-09-11T19:05:18.248,14.505315,-0.000000,-0.000000,-0.000000,0.000000,-16.842728,5.794516,-0.000000,-0.001119,-0.002356,-0.013414,0.000341,-0.006358,-0.022494,-0.000626,-0.000873,0.397464,0.378733,9.695443,0.000000,0.000000,0,0,,38.990286,-76.940897,-9.357000,,,
2026-09-11T19:05:18.282,14.538733,-0.000000,-0.000000,-0.000000,0.000000,-16.776123,5.771602,-0.000000,-0.000077,-0.000162,-0.013456,0.000341,-0.006378,-0.024070,0.001922,0.001321,0.374614,0.283118,9.688872,0.000000,0.000000,0,0,,38.990286,-76.940897,-9.357000,,,
2026-09-11T19:05:18.315,14.572168,-0.000000,-0.000000,-0.000000,0.000000,-16.679306,5.738293,-0.000000,-0.000691,-0.001455,-0.013483,0.000341,-0.006391,-0.020550,0.003305,0.000028,0.438750,0.301358,9.664356,0.000000,0.000000,0,0,,38.990286,-76.940897,-9.357000,,,
2026-09-11T19:05:18.348,14.605616,-0.000000,-0.000000,-0.000000,0.000000,-16.600342,5.711127,-0.000000,0.000451,0.000950,-0.013491,0.000341,-0.006395,-0.019208,0.000336,0.002433,0.369122,0.311459,9.723392,0.000000,0.000000,0,0,,38.990286,-76.940897,-9.357000,,,
2026-09-11T19:05:18.382,14.639042,-0.000000,-0.000000,-0.000000,0.000000,-16.307144,5.610256,-0.000000,-0.002689,-0.005661,-0.013570,0.000340,-0.006432,-0.010726,0.003009,-0.004177,0.385597,0.175833,9.690932,0.000000,0.000000,0,0,,38.990286,-76.940897,-9.357000,,,
2026-09-11T19:05:18.415,14.672462,-0.000000,-0.000000,-0.000000,0.000000,-15.807953,5.438516,-0.000000,-0.003399,-0.007156,-0.013784,0.000339,-0.006534,0.002458,0.002222,-0.005672,0.379125,0.289002,9.698581,0.000000,0.000000,0,0,,38.990286,-76.940897,-9.357000,,,
2026-09-11T19:05:18.449,14.705910,-0.000000,-0.000000,-0.000000,0.000000,-15.677490,5.393632,-0.000000,-0.000395,-0.000832,-0.013918,0.000338,-0.006597,0.015085,0.000201,0.000652,0.384126,0.362454,9.686519,0.000000,0.000000,0,0,,38.990286,-76.940897,-9.357000,,,
2026-09-11T19:05:18.482,14.739325,-0.000000,-0.000000,-0.000000,0.000000,-15.677490,5.393632,-0.000000,-0.001950,-0.004104,-0.014000,0.000337,-0.006636,0.029054,0.002214,-0.002621,0.379125,0.286746,9.691030,0.000000,0.000000,0,0,,38.990286,-76.940897,-9.357000,,,
2026-09-11T19:05:18.515,14.772752,-0.000000,-0.000000,-0.000000,0.000000,-15.637665,5.379931,-0.000000,-0.002633,-0.005544,-0.014161,0.000336,-0.006713,0.028512,0.001153,-0.004060,0.339212,0.250364,9.717606,0.000000,0.000000,0,0,,38.990286,-76.940897,-9.357000,,,
2026-09-11T19:05:18.549,14.806175,-0.000000,-0.000000,-0.000000,0.000000,-15.378799,5.290871,-0.000000,-0.002045,-0.004305,-0.014326,0.000335,-0.006791,0.014680,0.000739,-0.002822,0.414723,0.421392,9.693776,0.000000,0.000000,0,0,,38.990286,-76.940897,-9.357000,,,
2026-09-11T19:05:18.582,14.839594,-0.000000,-0.000000,-0.000000,0.000000,-15.281982,5.257563,-0.000000,-0.000637,-0.001341,-0.014420,0.000335,-0.006836,0.014251,0.002508,0.000143,0.404622,0.352549,9.678870,0.000000,0.000000,0,0,,38.990286,-76.940897,-9.357000,,,
2026-09-11T19:05:18.616,14.873015,-0.000000,-0.000000,-0.000000,0.000000,-15.202332,5.230160,-0.000000,-0.001815,-0.003822,-0.014507,0.000334,-0.006877,-0.001544,0.000293,-0.002338,0.366867,0.315284,9.697208,0.000000,0.000000,0,0,,38.990286,-76.940897,-9.357000,,,
2026-09-11T19:05:18.649,14.906441,-0.000000,-0.000000,-0.000000,0.000000,-14.702454,5.058184,-0.000000,-0.003077,-0.006478,-0.014679,0.000333,-0.006959,-0.013382,0.002972,-0.004995,0.414037,0.335191,9.675731,0.000000,0.000000,0,0,,38.990286,-76.940897,-9.357000,,,
2026-09-11T19:05:18.682,14.939858,-0.000000,-0.000000,-0.000000,0.000000,-14.490967,4.985424,-0.000000,0.000270,0.000567,-0.014778,0.000332,-0.007005,-0.010315,0.001134,0.002051,0.425707,0.414527,9.689166,0.000000,0.000000,0,0,,38.990286,-76.940897,-9.357000,,,
2026-09-11T19:05:18.716,14.973290,-0.000000,-0.000000,-0.000000,0.000000,-14.490967,4.985424,-0.000000,0.001451,0.003056,-0.014717,0.000333,-0.006977,-0.019442,0.001184,0.004539,0.412860,0.369711,9.686323,0.000000,0.000000,0,0,,38.990286,-76.940897,-9.357000,,,
2026-09-11T19:05:18.750,15.006724,-0.000000,-0.000000,-0.000000,0.000000,-14.601517,5.023458,-0.000000,0.000314,0.000661,-0.014655,0.000333,-0.006947,-0.026694,0.001879,0.002145,0.433650,0.307340,9.674849,0.000000,0.000000,0,0,,38.990286,-76.940897,-9.357000,,,
2026-09-11T19:05:18.783,15.040142,-0.000000,-0.000000,-0.000000,0.000000,-14.690781,5.054168,-0.000000,0.002537,0.005342,-0.014555,0.000334,-0.006900,-0.028420,-0.000352,0.006825,0.402465,0.258896,9.681812,0.000000,0.000000,0,0,,38.990286,-76.940897,-9.357000,,,
