timestamp,time_s,speed_mps,distance_m,wheel_omega_rad_s,motor_current_A,steer_motor_deg,steer_column_deg,vx_mps,vy_mps,yaw_rate_rad_s,heading_rad,x_m,y_m,gyro_x_rad_s,gyro_y_rad_s,gyro_z_rad_s,accel_x_mps2,accel_y_mps2,accel_z_mps2,grade_deg,bank_deg,moving,gps_new_fix,gps_time_s,gps_latitude_deg,gps_longitude_deg,gps_altitude_m,gps_east_m,gps_north_m,gps_sigma_m
2026-09-11T19:08:10.501,0.000033,-0.000000,-0.000000,-0.000000,0.000000,33.192442,-11.419418,-0.000000,-0.000219,-0.000461,0.000000,0.000000,0.000000,-0.016576,0.000022,0.001022,1.084321,-0.104441,9.653568,2.237119,-2.556290,0,1,-0.660168,38.990291,-76.940906,-9.789000,0.000000,0.000000,2.556500
2026-09-11T19:08:10.534,0.033463,-0.000000,-0.000000,-0.000000,0.000000,33.192442,-11.419418,-0.000000,-0.000459,-0.000967,-0.000024,-0.000000,-0.000011,-0.019337,0.001659,0.000516,1.073632,-0.097870,9.657099,2.236423,-2.555865,0,0,,38.990291,-76.940906,-9.789000,,,
2026-09-11T19:08:10.568,0.066876,-0.000000,-0.000000,-0.000000,0.000000,33.192442,-11.419418,-0.000000,-0.000123,-0.000258,-0.000044,-0.000000,-0.000021,-0.026748,-0.000817,0.001225,1.048527,-0.102970,9.659648,2.234101,-2.555774,0,0,,38.990291,-76.940906,-9.789000,,,
2026-09-11T19:08:10.601,0.100291,-0.000000,-0.000000,-0.000000,0.000000,33.192442,-11.419418,-0.000000,-0.000623,-0.001312,-0.000071,-0.000000,-0.000034,-0.026327,0.000672,0.000172,1.022343,-0.120230,9.651607,2.230100,-2.556802,0,0,,38.990291,-76.940906,-9.789000,,,
2026-09-11T19:08:10.635,0.133713,-0.000000,-0.000000,-0.000000,0.000000,33.192442,-11.419418,-0.000000,-0.000736,-0.001549,-0.000118,-0.000000,-0.000056,-0.019929,0.002315,-0.000065,1.042741,-0.122877,9.664356,2.227471,-2.557989,0,0,,38.990291,-76.940906,-9.789000,,,
2026-09-11T19:08:10.668,0.167126,-0.000000,-0.000000,-0.000000,0.000000,33.192442,-11.419418,-0.000000,-0.000191,-0.000403,-0.000151,-0.000000,-0.000072,-0.014317,0.000696,0.001081,1.052352,-0.135626,9.638564,2.225497,-2.559988,0,0,,38.990291,-76.940906,-9.789000,,,
2026-09-11T19:08:10.702,0.200534,-0.000000,-0.000000,-0.000000,0.000000,33.192442,-11.419418,-0.000000,-0.000544,-0.001144,-0.000177,-0.000000,-0.000084,-0.014428,0.001271,0.000339,1.031660,-0.145433,9.641702,2.222198,-2.562598,0,0,,38.990291,-76.940906,-9.789000,,,
2026-09-11T19:08:10.736,0.233957,-0.000000,-0.000000,-0.000000,0.000000,33.192442,-11.419418,-0.000000,0.000078,0.000164,-0.000193,-0.000000,-0.000092,-0.010944,0.000987,0.001648,1.035582,-0.148963,9.646998,2.219191,-2.565409,0,0,,38.990291,-76.940906,-9.789000,,,
2026-09-11T19:08:10.769,0.267370,-0.000000,-0.000000,-0.000000,0.000000,33.192442,-11.419418,-0.000000,-0.001429,-0.003009,-0.000241,-0.000000,-0.000114,-0.017325,0.001323,-0.001525,0.993610,-0.162202,9.658276,2.213485,-2.569045,0,0,,38.990291,-76.940906,-9.789000,,,
2026-09-11T19:08:10.802,0.300785,-0.000000,-0.000000,-0.000000,0.000000,33.236388,-11.434537,-0.000000,-0.001558,-0.003279,-0.000346,-0.000000,-0.000164,-0.021597,0.001150,-0.001796,0.982430,-0.152101,9.664650,2.207115,-2.571987,0,0,,38.990291,-76.940906,-9.789000,,,
2026-09-11T19:08:10.835,0.334196,-0.000000,-0.000000,-0.000000,0.000000,33.365477,-11.478948,-0.000000,-0.002183,-0.004596,-0.000477,-0.000000,-0.000227,-0.022860,0.001555,-0.003113,0.975566,-0.167988,9.642683,2.200370,-2.575924,0,1,0.329485,38.990291,-76.940906,-9.764000,0.009795,-0.009081,2.876749
2026-09-11T19:08:10.868,0.367605,-0.000000,-0.000000,-0.000000,0.000000,33.582457,-11.553598,-0.000000,-0.002752,-0.005794,-0.000651,-0.000000,-0.000309,-0.023119,0.002638,-0.004311,0.970074,-0.163771,9.666219,2.193342,-2.579545,0,0,,38.990291,-76.940906,-9.764000,,,
2026-09-11T19:08:10.903,0.401018,-0.000000,-0.000000,-0.000000,0.000000,33.936766,-11.675493,-0.000000,-0.002551,-0.005371,-0.000837,-0.000000,-0.000398,-0.013983,0.002907,-0.003888,0.977723,-0.153572,9.655432,2.186889,-2.582466,0,0,,38.990291,-76.940906,-9.764000,,,
2026-09-11T19:08:10.936,0.434442,-0.000000,-0.000000,-0.000000,0.000000,34.177092,-11.758174,-0.000000,-0.000913,-0.001923,-0.000959,-0.000000,-0.000456,-0.007277,0.000213,-0.000439,0.993021,-0.137980,9.653863,2.181502,-2.584346,0,0,,38.990291,-76.940906,-9.764000,,,
2026-09-11T19:08:10.969,0.467857,-0.000000,-0.000000,-0.000000,0.000000,35.296324,-12.143231,-0.000000,-0.007215,-0.015189,-0.001245,-0.000000,-0.000591,0.031029,-0.002504,-0.013706,1.089715,-2.221599,10.081629,2.182469,-2.721012,0,0,,38.990291,-76.940906,-9.764000,,,
2026-09-11T19:08:11.003,0.501280,-0.000000,-0.000000,-0.000000,0.000000,36.136778,-12.432378,-0.000000,-0.008808,-0.018544,-0.001809,-0.000001,-0.000859,0.048592,-0.005953,-0.017061,1.358319,0.623997,9.706917,2.200912,-2.672047,0,0,,38.990291,-76.940906,-9.764000,,,
2026-09-11T19:08:11.037,0.534700,-0.000000,-0.000000,-0.000000,0.000000,36.136778,-12.432378,-0.000000,0.002445,0.005147,-0.002033,-0.000001,-0.000966,0.055409,-0.008843,0.006631,0.957227,-0.018633,9.493033,2.193039,-2.665212,0,0,,38.990291,-76.940906,-9.764000,,,
2026-09-11T19:08:11.070,0.568114,-0.000000,-0.000000,-0.000000,0.000000,36.136778,-12.432378,-0.000000,-0.005297,-0.011151,-0.002133,-0.000001,-0.001013,0.021619,0.004310,-0.009667,0.951735,-0.104245,9.589237,2.184898,-2.663993,0,0,,38.990291,-76.940906,-9.764000,,,
2026-09-11T19:08:11.103,0.601530,-0.000000,-0.000000,-0.000000,0.000000,36.070174,-12.409463,-0.000000,0.000236,0.000496,-0.002311,-0.000001,-0.001098,0.016264,0.002236,0.001980,1.191606,0.015396,9.623462,2.192460,-2.655047,0,0,,38.990291,-76.940906,-9.764000,,,
2026-09-11T19:08:11.136,0.634959,-0.000000,-0.000000,-0.000000,0.000000,35.803068,-12.317569,-0.000000,0.002892,0.006088,-0.002201,-0.000001,-0.001046,0.016512,-0.001448,0.007571,1.202001,-0.263014,9.670926,2.200617,-2.664216,0,0,,38.990291,-76.940906,-9.764000,,,
2026-09-11T19:08:11.172,0.668372,-0.000000,-0.000000,-0.000000,0.000000,35.718611,-12.288513,-0.000000,0.000056,0.000117,-0.002097,-0.000001,-0.000996,0.019450,-0.001201,0.001600,1.016852,0.043051,9.683184,2.196630,-2.653479,0,0,,38.990291,-76.940906,-9.764000,,,
2026-09-11T19:08:11.204,0.701786,-0.000000,-0.000000,-0.000000,0.000000,35.570296,-12.237487,-0.000000,0.000854,0.001798,-0.002065,-0.000001,-0.000981,0.005356,-0.001157,0.003281,0.932318,-0.140235,9.643860,2.187186,-2.654718,0,0,,38.990291,-76.940906,-9.764000,,,
2026-09-11T19:08:11.237,0.735202,-0.000000,-0.000000,-0.000000,0.000000,35.206373,-12.112284,-0.000000,0.003062,0.006445,-0.001928,-0.000001,-0.000916,-0.004849,-0.001287,0.007929,0.893288,0.083553,9.656805,2.197827,-2.641465,0,0,,38.990291,-76.940906,-9.764000,,,
2026-09-11T19:08:11.271,0.768615,-0.000000,-0.000000,-0.000000,0.000000,34.074095,-11.722739,-0.000000,0.005795,0.012201,-0.001616,-0.000001,-0.000768,-0.014177,0.000356,0.013684,1.013027,-0.084141,9.653176,2.225040,-2.639208,0,0,,38.990291,-76.940906,-9.764000,,,
2026-09-11T19:08:11.303,0.802029,-0.000000,-0.000000,-0.000000,0.000000,33.034514,-11.365085,-0.000000,0.005320,0.011199,-0.001225,-0.000000,-0.000582,-0.026012,-0.001275,0.012683,1.032052,-0.152199,9.637485,2.232140,-2.641379,0,0,,38.990291,-76.940906,-9.764000,,,
2026-09-11T19:08:11.337,0.835447,-0.000000,-0.000000,-0.000000,0.000000,32.463225,-11.168541,-0.000000,0.002622,0.005520,-0.000946,-0.000000,-0.000449,-0.036161,0.000626,0.007003,1.003907,-0.207018,9.669651,2.228430,-2.647074,0,0,,38.990291,-76.940906,-9.764000,,,
2026-09-11T19:08:11.370,0.868855,-0.000000,-0.000000,-0.000000,0.000000,32.422713,-11.154603,-0.000000,-0.000125,-0.000264,-0.000858,-0.000000,-0.000408,-0.043592,0.001620,0.001219,0.955658,-0.152690,9.666905,2.220153,-2.649190,0,0,,38.990291,-76.940906,-9.764000,,,
2026-09-11T19:08:11.404,0.902268,-0.000000,-0.000000,-0.000000,0.000000,32.422713,-11.154603,-0.000000,0.000460,0.000969,-0.000846,-0.000000,-0.000402,-0.044281,0.000655,0.002452,0.976154,-0.110913,9.672201,2.213301,-2.648579,0,0,,38.990291,-76.940906,-9.764000,,,
2026-09-11T19:08:11.437,0.935689,-0.000000,-0.000000,-0.000000,0.000000,32.422713,-11.154603,-0.000000,0.000958,0.002017,-0.000796,-0.000000,-0.000378,-0.038861,0.003249,0.003500,0.985274,-0.181325,9.639937,2.207117,-2.652532,0,0,,38.990291,-76.940906,-9.764000,,,
2026-09-11T19:08:11.470,0.969103,-0.000000,-0.000000,-0.000000,0.000000,32.422713,-11.154603,-0.000000,0.001249,0.002630,-0.000719,-0.000000,-0.000341,-0.021610,0.000859,0.004113,1.013321,-0.203292,9.647880,2.202828,-2.657861,0,0,,38.990291,-76.940906,-9.764000,,,
2026-09-11T19:08:11.504,1.002516,-0.353505,-0.009832,-3.273196,0.000000,32.422713,-11.154603,-0.346827,0.000039,0.000082,-0.000674,-0.005794,-0.000316,-0.012846,0.001576,0.001566,1.030875,-0.199663,9.653274,2.199730,-2.662895,0,0,,38.990291,-76.940906,-9.764000,,,
2026-09-11T19:08:11.537,1.035936,-0.139692,-0.015460,-1.293448,0.000000,32.422713,-11.154603,-0.137053,0.000482,0.001014,-0.000655,-0.013880,-0.000302,-0.005601,0.002543,0.002498,1.078633,-0.205057,9.652293,2.199774,-2.668215,0,0,,38.990291,-76.940906,-9.764000,,,
2026-09-11T19:08:11.572,1.069347,-0.023067,-0.015335,-0.213587,0.000000,32.422713,-11.154603,-0.022632,-0.000229,-0.000483,-0.000646,-0.016548,-0.000296,-0.002043,0.000882,0.001001,1.150026,-0.203586,9.636995,2.204463,-2.673390,0,0,,38.990291,-76.940906,-9.764000,,,
2026-09-11T19:08:11.604,1.102762,-0.000000,-0.015324,-0.000000,0.000000,32.422713,-11.154603,-0.000000,-0.000734,-0.001546,-0.000680,-0.016926,-0.000312,0.011509,-0.000497,-0.000062,1.160029,-0.231143,9.630817,2.209753,-2.680291,0,0,,38.990291,-76.940906,-9.764000,,,
2026-09-11T19:08:11.638,1.136182,-0.000000,-0.015324,-0.000000,0.000000,32.422713,-11.154603,-0.000000,-0.000997,-0.002099,-0.000741,-0.016926,-0.000341,0.028143,0.000397,-0.000616,1.118841,-0.259092,9.665434,2.189769,-2.688924,0,0,,38.990291,-76.940906,-9.764000,,,
2026-09-11T19:08:11.672,1.169600,-0.000000,-0.015324,-0.000000,0.000000,32.422713,-11.154603,-0.000000,-0.001728,-0.003638,-0.000837,-0.016926,-0.000386,0.037770,-0.002673,-0.002154,1.066571,-0.147982,9.651705,2.158213,-2.690272,0,0,,38.990291,-76.940906,-9.764000,,,
2026-09-11T19:08:11.705,1.203016,-0.000000,-0.015324,-0.000000,0.000000,32.422713,-11.154603,-0.000000,-0.001541,-0.003243,-0.000952,-0.016926,-0.000441,0.044055,-0.003109,-0.001760,0.942909,-0.228887,9.636701,2.139857,-2.696840,0,0,,38.990291,-76.940906,-9.764000,,,
2026-09-11T19:08:11.738,1.236434,-0.000000,-0.015324,-0.000000,0.000000,32.422713,-11.154603,-0.000000,-0.001305,-0.002748,-0.001052,-0.016926,-0.000488,0.054357,-0.002756,-0.001265,0.906429,-0.065410,9.662100,2.104802,-2.692757,0,0,,38.990291,-76.940906,-9.764000,,,
2026-09-11T19:08:11.771,1.269850,-0.000000,-0.015324,-0.000000,0.000000,32.422713,-11.154603,-0.000000,-0.000119,-0.000251,-0.001102,-0.016926,-0.000512,0.043409,0.000157,0.001233,0.973604,-0.125133,9.683969,2.067248,-2.692585,0,0,,38.990291,-76.940906,-9.764000,,,
2026-09-11T19:08:11.804,1.303266,-0.000000,-0.015324,-0.000000,0.000000,32.422713,-11.154603,-0.000000,-0.000874,-0.001841,-0.001137,-0.016926,-0.000529,0.028797,0.002789,-0.000357,1.094716,-0.061586,9.658766,2.059441,-2.688302,0,0,,38.990291,-76.940906,-9.764000,,,
2026-09-11T19:08:11.839,1.336678,-0.000000,-0.015324,-0.000000,0.000000,32.325896,-11.121294,-0.000000,-0.000020,-0.000043,-0.001169,-0.016926,-0.000544,0.016882,-0.000290,0.001440,1.161304,-0.108560,9.651117,2.064948,-2.687106,0,1,1.334440,38.990291,-76.940906,-9.726000,0.016133,0.005560,2.876749
2026-09-11T19:08:11.872,1.370094,-0.000000,-0.015324,-0.000000,0.000000,32.064284,-11.031290,-0.000000,-0.000828,-0.001744,-0.001198,-0.016926,-0.000558,0.016654,0.001104,-0.000261,1.175229,-0.110325,9.632778,2.072770,-2.686038,0,0,,38.990291,-76.940906,-9.726000,,,
2026-09-11T19:08:11.904,1.403509,0.353505,-0.004876,3.273196,0.000000,31.939314,-10.988296,0.347024,-0.001807,-0.003804,-0.001291,-0.011128,-0.000610,0.020149,0.001651,-0.002321,1.189056,-0.172401,9.644154,2.081406,-2.688912,0,0,,38.990291,-76.940906,-9.726000,,,
2026-09-11T19:08:11.939,1.436930,0.131705,0.000103,1.219490,0.000000,31.939314,-10.988296,0.129290,-0.003976,-0.008371,-0.001495,-0.003169,-0.000717,0.023848,-0.001826,-0.006887,1.147084,-0.110423,9.651019,2.087215,-2.687760,0,0,,38.990291,-76.940906,-9.726000,,,
2026-09-11T19:08:11.972,1.470347,0.025627,0.000114,0.237282,0.000000,31.939314,-10.988296,0.025157,-0.004458,-0.009386,-0.001791,-0.000589,-0.000862,0.026374,0.000247,-0.007902,1.051469,-0.104245,9.658079,2.086738,-2.686276,0,0,,38.990291,-76.940906,-9.726000,,,
2026-09-11T19:08:12.005,1.503770,0.006340,0.000114,0.058699,0.000000,32.112349,-11.047826,0.006222,-0.004973,-0.010470,-0.002123,-0.000065,-0.001020,0.027374,0.001194,-0.008986,0.949872,-0.042757,9.661512,2.079653,-2.680840,0,0,,38.990291,-76.940906,-9.726000,,,
2026-09-11T19:08:12.040,1.537191,-0.000000,-0.000000,-0.000000,0.000000,32.225645,-11.086805,-0.000000,-0.003724,-0.007840,-0.002429,0.000039,-0.001166,0.025349,0.000203,-0.006356,0.881618,-0.034716,9.661806,2.068204,-2.674948,0,0,,38.990291,-76.940906,-9.726000,,,
2026-09-11T19:08:12.072,1.570745,-0.000000,-0.000000,-0.000000,0.000000,32.269591,-11.101923,-0.000000,-0.003591,-0.007560,-0.002687,0.000039,-0.001289,0.032390,0.002184,-0.006076,0.878676,-0.009512,9.673868,2.056646,-2.667461,0,0,,38.990291,-76.940906,-9.726000,,,
2026-09-11T19:08:12.105,1.604160,-0.000000,-0.000000,-0.000000,0.000000,32.313536,-11.117042,-0.000000,-0.002285,-0.004810,-0.002894,0.000039,-0.001387,0.034538,0.001940,-0.003326,0.940752,0.021477,9.658864,2.049303,-2.658083,0,0,,38.990291,-76.940906,-9.726000,,,
2026-09-11T19:08:12.140,1.637576,-0.000000,-0.000000,-0.000000,0.000000,32.313536,-11.117042,-0.000000,-0.000474,-0.000998,-0.002991,0.000038,-0.001433,0.029181,0.000077,0.000486,0.995669,-0.007355,9.643369,2.068142,-2.650674,0,0,,38.990291,-76.940906,-9.726000,,,
2026-09-11T19:08:12.173,1.670989,-0.000000,-0.000000,-0.000000,0.000000,32.313536,-11.117042,-0.000000,-0.001550,-0.003263,-0.003062,0.000038,-0.001467,0.027103,0.002328,-0.001780,1.045585,-0.009512,9.661119,2.098412,-2.643487,0,0,,38.990291,-76.940906,-9.726000,,,
2026-09-11T19:08:12.205,1.704403,-0.000000,-0.000000,-0.000000,0.000000,32.313536,-11.117042,-0.000000,-0.000164,-0.000345,-0.003123,0.000038,-0.001495,0.018418,0.001213,0.001138,1.083145,0.006767,9.639643,2.109898,-2.635327,0,0,,38.990291,-76.940906,-9.726000,,,
2026-09-11T19:08:12.239,1.737822,-0.000000,-0.000000,-0.000000,0.000000,32.313536,-11.117042,-0.000000,-0.000537,-0.001131,-0.003147,0.000038,-0.001507,0.000606,0.000925,0.000352,1.093932,0.005394,9.642487,2.113970,-2.627344,0,0,,38.990291,-76.940906,-9.726000,,,
2026-09-11T19:08:12.273,1.771235,-0.000000,-0.000000,-0.000000,0.000000,32.313536,-11.117042,-0.000000,-0.001153,-0.002427,-0.003207,0.000038,-0.001535,-0.001018,-0.001235,-0.000944,0.996454,-0.055506,9.623070,2.132541,-2.623392,0,0,,38.990291,-76.940906,-9.726000,,,
2026-09-11T19:08:12.306,1.804647,-0.000000,-0.000000,-0.000000,0.000000,32.313536,-11.117042,-0.000000,-0.000268,-0.000564,-0.003257,0.000038,-0.001559,0.003573,-0.001240,0.000920,0.873380,-0.019907,9.646409,2.150159,-2.617180,0,0,,38.990291,-76.940906,-9.726000,,,
2026-09-11T19:08:12.340,1.838066,-0.000000,-0.000000,-0.000000,0.000000,32.313536,-11.117042,-0.000000,-0.000191,-0.000402,-0.003273,0.000038,-0.001567,-0.001455,0.001376,0.001081,0.879755,0.079434,9.646409,2.146943,-2.604608,0,0,,38.990291,-76.940906,-9.726000,,,
2026-09-11T19:08:12.372,1.871487,-0.000000,-0.000000,-0.000000,0.000000,32.313536,-11.117042,-0.000000,0.001629,0.003429,-0.003222,0.000038,-0.001543,-0.006594,-0.000285,0.004913,0.949970,-0.014514,9.656020,2.140668,-2.598253,0,0,,38.990291,-76.940906,-9.726000,,,
2026-09-11T19:08:12.406,1.904901,-0.000000,-0.000000,-0.000000,0.000000,32.313536,-11.117042,-0.000000,0.001941,0.004086,-0.003097,0.000038,-0.001483,-0.025980,-0.000869,0.005570,0.961444,-0.041482,9.624933,2.133739,-2.593715,0,0,,38.990291,-76.940906,-9.726000,,,
2026-09-11T19:08:12.441,1.938320,-0.000000,-0.000000,-0.000000,0.000000,32.313536,-11.117042,-0.000000,0.000864,0.001820,-0.002998,0.000038,-0.001436,-0.039552,-0.001219,0.003303,0.901231,0.064822,9.644939,2.122968,-2.582349,0,0,,38.990291,-76.940906,-9.726000,,,
2026-09-11T19:08:12.473,1.971733,-0.000000,-0.000000,-0.000000,0.000000,32.313536,-11.117042,-0.000000,0.003825,0.008052,-0.002833,0.000039,-0.001358,-0.052520,-0.004642,0.009535,0.783257,0.040698,9.656510,2.104641,-2.572671,0,0,,38.990291,-76.940906,-9.726000,,,
2026-09-11T19:08:12.506,2.005145,-0.000000,-0.000000,-0.000000,0.000000,32.313536,-11.117042,-0.000000,0.003090,0.006505,-0.002590,0.000039,-0.001242,-0.039317,0.001170,0.007989,0.677149,-0.111698,9.724078,2.079614,-2.572959,0,0,,38.990291,-76.940906,-9.726000,,,
2026-09-11T19:08:12.540,2.038567,-0.353505,-0.011199,-3.273196,0.000000,32.239378,-11.091529,-0.346902,0.005668,0.011934,-0.002282,-0.005758,-0.001083,-0.004929,0.005992,0.013417,1.021559,-0.035304,9.670338,2.077274,-2.568032,0,0,,38.990291,-76.940906,-9.726000,,,
2026-09-11T19:08:12.573,2.071983,-0.120255,-0.015415,-1.113471,0.000000,31.815718,-10.945775,-0.118067,0.006123,0.012890,-0.001867,-0.013526,-0.000869,0.008056,0.003934,0.014373,1.186605,-0.308419,9.708289,2.085700,-2.581001,0,0,,38.990291,-76.940906,-9.726000,,,
2026-09-11T19:08:12.607,2.105393,-0.023067,-0.015426,-0.213587,0.000000,31.499861,-10.837108,-0.022656,0.000544,0.001145,-0.001633,-0.015877,-0.000753,0.020464,0.004989,0.002628,1.237992,-0.074923,9.664944,2.097375,-2.578816,0,0,,38.990291,-76.940906,-9.726000,,,
2026-09-11T19:08:12.641,2.138810,-0.000000,-0.015324,-0.000000,0.000000,31.499861,-10.837108,-0.000000,-0.001942,-0.004089,-0.001682,-0.016255,-0.000776,0.027400,0.006838,-0.002606,1.378325,-0.278411,9.575704,2.118056,-2.589823,0,0,,38.990291,-76.940906,-9.726000,,,
2026-09-11T19:08:12.674,2.172223,-0.000000,-0.015324,-0.000000,0.000000,31.499861,-10.837108,-0.000000,-0.000491,-0.001033,-0.001767,-0.016255,-0.000817,0.023846,0.000746,0.000450,1.400782,-0.015004,9.637584,2.139969,-2.583665,0,0,,38.990291,-76.940906,-9.726000,,,
2026-09-11T19:08:12.706,2.205637,-0.000000,-0.015324,-0.000000,0.000000,31.638563,-10.884827,-0.000000,-0.001880,-0.003959,-0.001851,-0.016255,-0.000856,0.021395,-0.001176,-0.002475,1.340667,-0.114934,9.642781,2.157727,-2.584041,0,0,,38.990291,-76.940906,-9.726000,,,
2026-09-11T19:08:12.740,2.239053,-0.000000,-0.015324,-0.000000,0.000000,31.739500,-10.919553,-0.000000,-0.004015,-0.008453,-0.002058,-0.016256,-0.000955,0.018532,-0.002568,-0.006969,1.243679,-0.016966,9.631209,2.168978,-2.578074,0,0,,38.990291,-76.940906,-9.726000,,,
2026-09-11T19:08:12.774,2.272463,-0.000000,-0.015324,-0.000000,0.000000,31.797865,-10.939633,-0.000000,-0.003131,-0.006591,-0.002309,-0.016256,-0.001074,0.010200,-0.003717,-0.005107,1.145319,-0.052662,9.641800,2.151180,-2.574483,0,0,,38.990291,-76.940906,-9.726000,,,
2026-09-11T19:08:12.808,2.305873,-0.000000,-0.015324,-0.000000,0.000000,31.830138,-10.950735,-0.000000,-0.002484,-0.005229,-0.002507,-0.016256,-0.001168,0.001882,-0.003341,-0.003745,1.047154,0.030401,9.667396,2.111393,-2.565559,0,0,,38.990291,-76.940906,-9.726000,,,
2026-09-11T19:08:12.841,2.339287,-0.000000,-0.015324,-0.000000,0.000000,31.830138,-10.950735,-0.000000,-0.002658,-0.005596,-0.002688,-0.016256,-0.001254,-0.009700,-0.003272,-0.004112,0.969780,-0.033637,9.662296,2.073525,-2.560876,0,0,,38.990291,-76.940906,-9.726000,,,
2026-09-11T19:08:12.874,2.372713,-0.000000,-0.015324,-0.000000,0.000000,31.830138,-10.950735,-0.000000,-0.000944,-0.001987,-0.002814,-0.016256,-0.001314,-0.020477,-0.001686,-0.000504,0.933495,0.014612,9.646900,2.046644,-2.553120,0,1,2.355997,38.990291,-76.940905,-9.684000,0.051712,0.038548,2.672012
2026-09-11T19:08:12.907,2.406128,-0.000000,-0.015324,-0.000000,0.000000,31.830138,-10.950735,-0.000000,-0.000510,-0.001074,-0.002866,-0.016257,-0.001338,-0.029495,-0.000635,0.000409,0.875538,0.035304,9.658962,2.031899,-2.544114,0,0,,38.990291,-76.940905,-9.684000,,,
2026-09-11T19:08:12.941,2.439545,-0.000000,-0.015324,-0.000000,0.000000,31.830138,-10.950735,-0.000000,0.001136,0.002392,-0.002844,-0.016256,-0.001328,-0.036593,-0.001199,0.003876,0.876126,0.003530,9.666121,2.020220,-2.537264,0,0,,38.990291,-76.940905,-9.684000,,,
2026-09-11T19:08:12.976,2.472958,-0.000000,-0.015324,-0.000000,0.000000,31.830138,-10.950735,-0.000000,0.002514,0.005292,-0.002715,-0.016256,-0.001267,-0.038820,0.000079,0.006776,0.887796,-0.062763,9.656805,2.009836,-2.534778,0,0,,38.990291,-76.940905,-9.684000,,,
2026-09-11T19:08:13.009,2.506372,-0.000000,-0.015324,-0.000000,0.000000,31.830138,-10.950735,-0.000000,-0.000535,-0.001127,-0.002646,-0.016256,-0.001234,-0.030222,0.000944,0.000357,1.033523,-0.073354,9.652980,2.009048,-2.533005,0,0,,38.990291,-76.940905,-9.684000,,,
2026-09-11T19:08:13.041,2.539796,-0.000000,-0.015324,-0.000000,0.000000,31.830138,-10.950735,-0.000000,0.000442,0.000931,-0.002649,-0.016256,-0.001235,-0.027117,0.000540,0.002415,1.145515,-0.059428,9.648763,2.015557,-2.530350,0,0,,38.990291,-76.940905,-9.684000,,,
2026-09-11T19:08:13.074,2.573200,0.127655,-0.013717,1.181987,0.000000,31.830138,-10.950735,0.125330,-0.000400,-0.000842,-0.002647,-0.014163,-0.001240,-0.020562,0.001375,0.000642,1.130511,-0.144746,9.633857,2.021014,-2.533237,0,0,,38.990291,-76.940905,-9.684000,,,
2026-09-11T19:08:13.107,2.606602,0.228140,-0.000000,2.112406,0.000000,31.731947,-10.916954,0.224011,0.000627,0.001319,-0.002639,-0.008329,-0.001252,-0.020265,0.000421,0.002803,0.993806,0.023536,9.669847,2.017519,-2.525235,0,0,,38.990291,-76.940905,-9.684000,,,
2026-09-11T19:08:13.142,2.640026,0.044913,0.000125,0.415866,0.000000,30.942305,-10.645288,0.044141,0.002917,0.006142,-0.002515,-0.003847,-0.001204,-0.014468,0.000135,0.007626,0.939771,-0.110129,9.663277,2.010544,-2.525965,0,0,,38.990291,-76.940905,-9.684000,,,
2026-09-11T19:08:13.176,2.673437,0.006340,0.000046,0.058699,0.000000,30.179442,-10.382835,0.006236,0.001026,0.002161,-0.002376,-0.003005,-0.001140,-0.001603,0.001429,0.003644,0.975075,-0.185051,9.662689,2.005945,-2.531516,0,0,,38.990291,-76.940905,-9.684000,,,
2026-09-11T19:08:13.208,2.706847,-0.000000,-0.000000,-0.000000,0.000000,30.005720,-10.323069,-0.000000,-0.000741,-0.001559,-0.002366,-0.002901,-0.001136,0.009367,0.000022,-0.000076,0.992433,-0.199565,9.639545,2.002527,-2.537944,0,0,,38.990291,-76.940905,-9.684000,,,
2026-09-11T19:08:13.241,2.740251,-0.000000,-0.000000,-0.000000,0.000000,30.005720,-10.323069,-0.000000,-0.001806,-0.003801,-0.002455,-0.002901,-0.001178,0.016596,0.000825,-0.002318,1.040682,-0.094634,9.648469,2.002286,-2.537513,0,0,,38.990291,-76.940905,-9.684000,,,
2026-09-11T19:08:13.274,2.773651,-0.000000,-0.000000,-0.000000,0.000000,30.005720,-10.323069,-0.000000,-0.003026,-0.006371,-0.002625,-0.002902,-0.001259,0.025423,0.001676,-0.004888,1.100404,-0.228201,9.672593,2.005931,-2.545724,0,0,,38.990291,-76.940905,-9.684000,,,
2026-09-11T19:08:13.308,2.807051,-0.000000,-0.000000,-0.000000,0.000000,30.193861,-10.387796,-0.000000,-0.002866,-0.006033,-0.002833,-0.002902,-0.001358,0.019948,0.001901,-0.004550,1.136983,-0.013729,9.648861,2.020047,-2.539975,0,0,,38.990291,-76.940905,-9.684000,,,
2026-09-11T19:08:13.342,2.840461,-0.000000,-0.000000,-0.000000,0.000000,30.248106,-10.406459,-0.000000,-0.001504,-0.003167,-0.002986,-0.002902,-0.001431,-0.004166,0.000994,-0.001684,1.087950,-0.036285,9.639055,2.045361,-2.535747,0,0,,38.990291,-76.940905,-9.684000,,,
2026-09-11T19:08:13.375,2.873870,-0.000000,-0.000000,-0.000000,0.000000,30.292052,-10.421577,-0.000000,-0.000265,-0.000558,-0.003048,-0.002902,-0.001460,-0.006221,0.000532,0.000926,1.066375,-0.068843,9.652490,2.063722,-2.533672,0,0,,38.990291,-76.940905,-9.684000,,,
2026-09-11T19:08:13.407,2.907270,-0.000000,-0.000000,-0.000000,0.000000,30.335997,-10.436696,-0.000000,-0.000041,-0.000086,-0.003059,-0.002902,-0.001465,-0.008945,-0.000747,0.001398,1.021755,-0.111894,9.629640,2.064842,-2.534404,0,0,,38.990291,-76.940905,-9.684000,,,
2026-09-11T19:08:13.441,2.940670,-0.000000,-0.000000,-0.000000,0.000000,30.335997,-10.436696,-0.000000,-0.011270,-0.023727,-0.003457,-0.002903,-0.001654,-0.007578,-0.004110,-0.022243,1.849142,0.542112,10.955107,2.116901,-2.492835,0,0,,38.990291,-76.940905,-9.684000,,,
2026-09-11T19:08:13.476,2.974072,-0.000000,-0.000000,-0.000000,0.000000,30.335997,-10.436696,-0.000000,-0.001088,-0.002291,-0.003891,-0.002904,-0.001860,-0.006185,-0.001358,-0.000808,0.246441,-0.230947,9.088019,2.063730,-2.501719,0,0,,38.990291,-76.940905,-9.684000,,,
2026-09-11T19:08:13.509,3.007484,-0.000000,-0.000000,-0.000000,0.000000,30.335997,-10.436696,-0.000000,0.002975,0.006263,-0.003825,-0.002903,-0.001829,-0.037588,0.001462,0.007747,0.572806,-0.085710,9.437430,2.032370,-2.501112,0,0,,38.990291,-76.940905,-9.684000,,,
2026-09-11T19:08:13.542,3.040894,-0.000000,-0.000000,-0.000000,0.000000,30.392302,-10.456067,-0.000000,-0.003968,-0.008353,-0.003860,-0.002903,-0.001846,-0.017214,0.000024,-0.006870,0.791495,-0.415704,9.481364,2.015587,-2.521857,0,0,,38.990291,-76.940905,-9.684000,,,
2026-09-11T19:08:13.574,3.074299,-0.000000,-0.000000,-0.000000,0.000000,30.555723,-10.512290,-0.000000,0.000036,0.000076,-0.003998,-0.002904,-0.001911,0.003272,-0.000850,0.001559,1.013713,0.328425,9.755754,2.013447,-2.494242,0,0,,38.990291,-76.940905,-9.684000,,,
2026-09-11T19:08:13.608,3.107697,-0.000000,-0.000000,-0.000000,0.000000,30.555723,-10.512290,-0.000000,0.003045,0.006410,-0.003890,-0.002904,-0.001860,0.029907,-0.000607,0.007894,1.228479,-0.332249,9.709466,2.025298,-2.509661,0,0,,38.990291,-76.940905,-9.684000,,,
2026-09-11T19:08:13.643,3.141104,-0.000000,-0.000000,-0.000000,0.000000,30.555723,-10.512290,-0.000000,-0.004261,-0.008971,-0.003933,-0.002904,-0.001880,0.051821,-0.001532,-0.007487,1.143455,-0.163085,9.646802,2.031490,-2.513970,0,0,,38.990291,-76.940905,-9.684000,,,
2026-09-11T19:08:13.676,3.174513,-0.000000,-0.000000,-0.000000,0.000000,30.555723,-10.512290,-0.000000,-0.003532,-0.007436,-0.004207,-0.002904,-0.002010,0.065602,-0.004662,-0.005953,1.009399,-0.053937,9.654745,2.028892,-2.511172,0,0,,38.990291,-76.940905,-9.684000,,,
2026-09-11T19:08:13.708,3.207912,-0.000000,-0.000000,-0.000000,0.000000,30.555723,-10.512290,-0.000000,-0.004193,-0.008827,-0.004478,-0.002905,-0.002139,0.062505,0.000968,-0.007343,0.786689,-0.045993,9.674162,2.011841,-2.507892,0,0,,38.990291,-76.940905,-9.684000,,,
2026-09-11T19:08:13.742,3.241315,-0.000000,-0.000000,-0.000000,0.000000,30.624388,-10.535913,-0.000000,-0.002645,-0.005569,-0.004719,-0.002905,-0.002253,0.046704,0.001002,-0.004085,0.991845,0.007551,9.683871,2.008320,-2.501185,0,0,,38.990291,-76.940905,-9.684000,,,
2026-09-11T19:08:13.776,3.274716,-0.000000,-0.000000,-0.000000,0.000000,31.172331,-10.724426,-0.000000,-0.003764,-0.007924,-0.004944,-0.002906,-0.002360,0.028439,0.000956,-0.006441,1.219947,-0.052564,9.662394,2.019673,-2.498440,0,0,,38.990291,-76.940905,-9.684000,,,
2026-09-11T19:08:13.809,3.308118,-0.000000,-0.000000,-0.000000,0.000000,31.566466,-10.860023,-0.000000,-0.002553,-0.005375,-0.005166,-0.002906,-0.002466,0.022754,0.000374,-0.003891,1.302519,0.110129,9.628954,2.035662,-2.485204,0,0,,38.990291,-76.940905,-9.684000,,,
2026-09-11T19:08:13.843,3.341529,-0.000000,-0.000000,-0.000000,0.000000,31.566466,-10.860023,-0.000000,-0.001146,-0.002412,-0.005296,-0.002907,-0.002528,0.018842,-0.000537,-0.000929,1.214554,-0.006080,9.641212,2.045145,-2.479629,0,1,3.334924,38.990291,-76.940905,-9.676000,0.051136,0.044478,2.490212
2026-09-11T19:08:13.875,3.374938,-0.000000,-0.000000,-0.000000,0.000000,31.566466,-10.860023,-0.000000,-0.002026,-0.004265,-0.005408,-0.002907,-0.002581,-0.009307,-0.002720,-0.002782,1.160617,0.105127,9.579234,2.051014,-2.466922,0,0,,38.990291,-76.940905,-9.676000,,,
2026-09-11T19:08:13.909,3.408342,-0.000000,-0.000000,-0.000000,0.000000,31.940001,-10.988532,-0.000000,-0.003854,-0.008114,-0.005615,-0.002907,-0.002679,-0.020739,-0.002546,-0.006630,0.859847,0.104049,9.656314,2.037253,-2.454428,0,0,,38.990291,-76.940905,-9.676000,,,
2026-09-11T19:08:13.942,3.441743,-0.000000,-0.000000,-0.000000,0.000000,32.269591,-11.101923,-0.000000,-0.001952,-0.004110,-0.005819,-0.002908,-0.002776,0.000747,0.000852,-0.002627,0.973996,0.034225,9.668278,2.031070,-2.446588,0,0,,38.990291,-76.940905,-9.676000,,,
2026-09-11T19:08:13.975,3.475147,-0.000000,-0.000000,-0.000000,0.000000,32.581328,-11.209172,-0.000000,-0.001677,-0.003530,-0.005946,-0.002908,-0.002837,-0.005079,-0.000320,-0.002046,1.023618,-0.103460,9.641604,2.028182,-2.447739,0,0,,38.990291,-76.940905,-9.676000,,,
2026-09-11T19:08:14.010,3.508557,-0.000000,-0.000000,-0.000000,0.000000,34.104994,-11.733370,-0.000000,-0.011103,-0.023375,-0.006396,-0.002910,-0.003050,0.009047,0.000333,-0.021892,1.042643,-0.073158,9.662198,2.026564,-2.446918,0,0,,38.990291,-76.940905,-9.676000,,,
2026-09-11T19:08:14.042,3.541964,-0.000000,-0.000000,-0.000000,0.000000,35.450819,-12.196383,-0.000000,-0.006626,-0.013949,-0.007019,-0.002912,-0.003346,0.020640,-0.000482,-0.012465,1.075103,0.075413,9.658472,2.011070,-2.436496,0,0,,38.990291,-76.940905,-9.676000,,,
2026-09-11T19:08:14.076,3.575365,0.009643,0.000342,0.089292,0.000000,36.877669,-12.687271,0.009408,-0.006725,-0.014159,-0.007489,-0.002756,-0.003570,0.031521,0.001648,-0.012675,1.086087,-0.146707,9.683773,1.992254,-2.440547,0,0,,38.990291,-76.940905,-9.676000,,,
2026-09-11T19:08:14.110,3.608766,0.009643,0.000661,0.089292,0.000000,37.637785,-12.948779,0.009398,-0.006285,-0.013232,-0.007946,-0.002444,-0.003790,0.038854,0.000916,-0.011748,1.215730,0.279588,9.643762,1.996964,-2.416986,0,0,,38.990291,-76.940905,-9.676000,,,
2026-09-11T19:08:14.143,3.642178,0.009643,0.000991,0.089292,0.000000,37.674864,-12.961536,0.009398,-0.002125,-0.004473,-0.008242,-0.002131,-0.003933,0.040008,-0.000164,-0.002990,1.268882,-0.071981,9.657687,2.008182,-2.416427,0,0,,38.990291,-76.940905,-9.676000,,,
2026-09-11T19:08:14.176,3.675580,0.009643,0.001310,0.089292,0.000000,37.674864,-12.961536,0.009398,-0.003576,-0.007528,-0.008442,-0.001818,-0.004031,0.039556,0.001167,-0.006045,1.324290,0.059330,9.635034,2.013092,-2.407379,0,0,,38.990291,-76.940905,-9.676000,,,
2026-09-11T19:08:14.209,3.708981,0.009643,0.001629,0.089292,0.000000,37.424925,-12.875548,0.009401,-0.003615,-0.007610,-0.008695,-0.001505,-0.004154,0.020842,-0.002978,-0.006126,1.359692,0.031872,9.602476,2.008037,-2.400208,0,0,,38.990291,-76.940905,-9.676000,,,
2026-09-11T19:08:14.244,3.742390,0.009643,0.001960,0.089292,0.000000,37.344588,-12.847909,0.009402,-0.005645,-0.011883,-0.009021,-0.001192,-0.004311,-0.001384,-0.004134,-0.010400,1.336058,0.004119,9.579724,2.007726,-2.394908,0,0,,38.990291,-76.940905,-9.676000,,,
2026-09-11T19:08:14.277,3.775801,0.009643,0.002279,0.089292,0.000000,37.344588,-12.847909,0.009402,-0.006540,-0.013769,-0.009449,-0.000880,-0.004518,-0.017136,-0.003747,-0.012285,1.320564,0.081591,9.600318,2.006926,-2.384653,0,0,,38.990291,-76.940905,-9.676000,,,
2026-09-11T19:08:14.310,3.809213,0.262482,0.013421,2.430387,0.000000,37.344588,-12.847909,0.255910,-0.006382,-0.013436,-0.009904,0.003550,-0.004777,-0.031548,-0.001737,-0.011953,1.421670,0.216139,9.530789,2.005714,-2.365593,0,0,,38.990291,-76.940905,-9.676000,,,
2026-09-11T19:08:14.343,3.842616,0.076210,0.015654,0.705649,0.000000,37.124861,-12.772315,0.074324,-0.003471,-0.007307,-0.010250,0.009064,-0.004997,-0.047930,-0.003402,-0.005823,1.392348,0.087868,9.463614,2.008057,-2.355233,0,0,,38.990291,-76.940905,-9.676000,,,
2026-09-11T19:08:14.376,3.876018,0.027191,0.015950,0.251771,0.000000,36.377104,-12.515059,0.026545,-0.007934,-0.016703,-0.010651,0.010746,-0.005205,-0.050685,-0.003646,-0.015219,1.493847,0.158279,9.769777,2.015697,-2.340440,0,0,,38.990291,-76.940905,-9.676000,,,
2026-09-11T19:08:14.411,3.909417,0.027191,0.016862,0.251771,0.000000,35.864180,-12.338594,0.026563,-0.003718,-0.007828,-0.011061,0.011631,-0.005409,-0.032467,-0.005351,-0.006345,1.437949,-0.184659,9.664160,2.011543,-2.348003,0,0,,38.990291,-76.940905,-9.676000,,,
2026-09-11T19:08:14.444,3.942828,0.181141,0.019755,1.677233,0.000000,34.343947,-11.815578,0.177303,-0.009232,-0.019436,-0.011516,0.015034,-0.005664,0.001869,-0.004935,-0.017953,1.516697,-0.303418,9.591983,2.013126,-2.362958,0,0,,38.990291,-76.940905,-9.676000,,,
2026-09-11T19:08:14.476,3.976230,0.218950,0.031080,2.027319,0.000000,32.623900,-11.223819,0.214763,-0.007515,-0.015821,-0.012105,0.021578,-0.006021,0.026881,-0.007375,-0.014338,1.431084,0.259778,9.628659,2.009087,-2.341325,0,0,,38.990291,-76.940905,-9.676000,,,
2026-09-11T19:08:14.510,4.009631,0.082888,0.032151,0.767480,0.000000,31.408537,-10.805689,0.081418,-0.013664,-0.028765,-0.012850,0.026520,-0.006436,0.043550,-0.007463,-0.027282,1.364399,-0.342350,9.631994,1.995779,-2.358939,0,0,,38.990291,-76.940905,-9.676000,,,
2026-09-11T19:08:14.543,4.043035,0.210543,0.036720,1.949468,0.000000,31.236189,-10.746395,0.206850,-0.017177,-0.036163,-0.013934,0.031327,-0.007017,0.040305,-0.007568,-0.034679,1.309580,0.143765,9.564034,1.995018,-2.344588,0,0,,38.990291,-76.940905,-9.676000,,,
2026-09-11T19:08:14.578,4.076436,0.202132,0.046700,1.871590,0.000000,31.236189,-10.746395,0.198587,-0.014558,-0.030648,-0.015050,0.038089,-0.007645,0.041307,-0.011902,-0.029165,1.513656,0.040011,9.447727,2.016074,-2.337197,0,0,,38.990291,-76.940905,-9.676000,,,
2026-09-11T19:08:14.612,4.109848,0.134627,0.049992,1.246549,0.000000,31.236189,-10.746395,0.132266,-0.019491,-0.041033,-0.016247,0.043607,-0.008299,0.036802,-0.004577,-0.039549,1.486296,-0.165634,9.829402,2.020204,-2.343231,0,0,,38.990291,-76.940905,-9.676000,,,
2026-09-11T19:08:14.644,4.143260,0.222148,0.057489,2.056928,0.000000,31.326140,-10.777342,0.218230,-0.020421,-0.042992,-0.017651,0.049450,-0.009066,0.031338,-0.003658,-0.041508,1.659187,0.331465,9.586491,2.030537,-2.316786,0,0,,38.990291,-76.940905,-9.676000,,,
2026-09-11T19:08:14.677,4.176663,0.261363,0.066216,2.420030,0.000000,31.346739,-10.784429,0.256747,-0.020541,-0.043243,-0.019091,0.057369,-0.009896,0.017915,-0.002338,-0.041760,2.091660,0.632039,9.819399,2.076770,-2.271090,0,0,,38.990291,-76.940905,-9.676000,,,
2026-09-11T19:08:14.710,4.210062,0.213254,0.073166,1.974573,0.000000,31.346739,-10.784429,0.209487,-0.025575,-0.053841,-0.020713,0.065138,-0.010821,0.029116,-0.004682,-0.052358,1.506498,-0.081003,9.764089,2.092905,-2.272003,0,0,,38.990291,-76.940905,-9.676000,,,
2026-09-11T19:08:14.744,4.243464,0.261848,0.082052,2.424516,0.000000,31.346739,-10.784429,0.257223,-0.025167,-0.052983,-0.022497,0.072913,-0.011837,0.019263,-0.003797,-0.051499,1.316641,-0.379713,9.749575,2.090305,-2.292071,0,0,,38.990291,-76.940905,-9.676000,,,
2026-09-11T19:08:14.779,4.276874,0.291306,0.092078,2.697282,0.000000,31.280134,-10.761514,0.286183,-0.031428,-0.066165,-0.024487,0.081965,-0.012996,0.015829,0.043543,-0.064681,-0.077473,0.444732,11.506241,1.995896,-2.258249,0,0,,38.990291,-76.940905,-9.676000,,,
2026-09-11T19:08:14.812,4.310283,0.262376,0.100452,2.429407,0.000000,31.254729,-10.752774,0.257769,-0.018220,-0.038359,-0.026233,0.091028,-0.014055,-0.007684,0.031061,-0.036875,0.704706,-0.125917,8.470788,1.958545,-2.262299,0,0,,38.990291,-76.940905,-9.676000,,,
2026-09-11T19:08:14.844,4.343692,0.223478,0.107253,2.069239,0.000000,31.016463,-10.670801,0.219613,-0.022190,-0.046715,-0.027654,0.098981,-0.014944,0.040869,0.035959,-0.045232,1.152085,0.935064,9.469988,1.943377,-2.197653,0,1,4.336219,38.990291,-76.940906,-9.658000,-0.020886,0.070609,2.606516
2026-09-11T19:08:14.877,4.377093,0.262693,0.116596,2.432341,0.000000,30.659407,-10.547961,0.258254,-0.014195,-0.029885,-0.028933,0.106942,-0.015778,0.060172,0.025718,-0.028401,1.248190,0.631352,9.704563,1.932793,-2.153544,0,0,,38.990291,-76.940906,-9.658000,,,
2026-09-11T19:08:14.912,4.410492,0.253071,0.124913,2.343250,0.000000,30.533064,-10.504495,0.248830,-0.022323,-0.046995,-0.030217,0.115388,-0.016638,0.023842,0.011075,-0.045511,1.765197,0.351568,9.610811,1.962772,-2.127760,0,0,,38.990291,-76.940906,-9.658000,,,
2026-09-11T19:08:14.945,4.443902,0.292349,0.134426,2.706938,0.000000,30.533064,-10.504495,0.287450,-0.025880,-0.054484,-0.031912,0.124317,-0.017721,0.024809,0.005252,-0.053000,1.556021,0.141118,9.520884,1.975761,-2.115609,0,0,,38.990291,-76.940906,-9.658000,,,
2026-09-11T19:08:14.979,4.477312,0.311636,0.144896,2.885521,0.000000,30.533064,-10.504495,0.306413,-0.025127,-0.052898,-0.033706,0.134204,-0.018898,-0.003796,0.001105,-0.051415,1.447167,0.160927,9.761638,1.978496,-2.102276,1,0,,38.990291,-76.940906,-9.658000,,,
2026-09-11T19:08:15.011,4.510911,0.292187,0.154443,2.705437,0.000000,30.533064,-10.504495,0.287290,-0.026199,-0.055156,-0.035522,0.144142,-0.020105,0.014439,0.003156,-0.053673,1.251525,0.254483,9.609733,1.971524,-2.082954,1,0,,38.990291,-76.940906,-9.658000,,,
2026-09-11T19:08:15.044,4.544315,0.321417,0.165426,2.976080,0.000000,30.533064,-10.504495,0.316030,-0.027485,-0.057863,-0.037409,0.154179,-0.021369,0.031995,0.005927,-0.056380,1.354004,-0.137882,9.689657,1.967525,-2.089175,1,0,,38.990291,-76.940906,-9.658000,,,
2026-09-11T19:08:15.080,4.577719,0.331135,0.176546,3.066068,0.000000,30.533064,-10.504495,0.325586,-0.027815,-0.058559,-0.039354,0.164852,-0.022703,0.035821,0.001906,-0.057075,1.791381,0.293023,9.485188,1.985771,-2.067409,1,0,,38.990291,-76.940906,-9.658000,,,
2026-09-11T19:08:15.113,4.611129,0.360418,0.188850,3.337204,0.000000,30.533064,-10.504495,0.354378,-0.029949,-0.063050,-0.041385,0.176163,-0.024126,0.030806,-0.001394,-0.061566,1.662816,0.232025,9.499016,1.994732,-2.049614,1,0,,38.990291,-76.940906,-9.658000,,,
2026-09-11T19:08:15.146,4.644538,0.379867,0.201633,3.517288,0.000000,30.533064,-10.504495,0.373501,-0.032810,-0.069073,-0.043592,0.188266,-0.025691,0.010394,-0.000883,-0.067590,1.349297,0.046091,9.744770,1.981773,-2.043820,1,0,,38.990291,-76.940906,-9.658000,,,
2026-09-11T19:08:15.178,4.677944,0.380049,0.214404,3.518973,0.000000,30.533064,-10.504495,0.373680,-0.032031,-0.067434,-0.045872,0.200686,-0.027331,0.001384,0.002196,-0.065950,1.684684,-0.141020,9.618068,1.988742,-2.050231,1,0,,38.990291,-76.940906,-9.658000,,,
2026-09-11T19:08:15.212,4.711348,0.419025,0.228680,3.879860,0.000000,30.533064,-10.504495,0.412002,-0.033408,-0.070333,-0.048173,0.213742,-0.029040,0.006394,-0.001423,-0.068850,1.404705,-0.706569,9.352995,1.980438,-2.092900,1,0,,38.990291,-76.940906,-9.658000,,,
2026-09-11T19:08:15.245,4.744753,0.428831,0.242727,3.970653,0.000000,30.533064,-10.504495,0.421644,-0.034947,-0.073572,-0.050577,0.227592,-0.030868,0.020424,-0.003823,-0.072088,1.714595,0.261347,9.486561,1.992320,-2.072368,1,0,,38.990291,-76.940906,-9.658000,,,
2026-09-11T19:08:15.280,4.778174,0.448620,0.258096,4.153889,0.000000,30.294798,-10.422522,0.441218,-0.035455,-0.074642,-0.053054,0.241931,-0.032790,0.046698,0.000993,-0.073159,1.769904,0.113855,9.909228,2.007628,-2.061473,1,0,,38.990291,-76.940906,-9.658000,,,
2026-09-11T19:08:15.312,4.811585,0.487697,0.274320,4.515710,0.000000,29.798353,-10.251727,0.479911,-0.038743,-0.081563,-0.055663,0.257229,-0.034864,0.038013,-0.015880,-0.080080,1.354887,0.597029,9.405166,1.997570,-2.019047,1,0,,38.990291,-76.940906,-9.658000,,,
2026-09-11T19:08:15.345,4.844995,0.477972,0.290282,4.425668,0.000000,28.607024,-9.841866,0.470938,-0.035749,-0.075260,-0.058283,0.273016,-0.037011,0.037108,-0.011485,-0.073777,1.421768,-0.185934,9.425270,1.992544,-2.027975,1,0,,38.990291,-76.940906,-9.658000,,,
2026-09-11T19:08:15.379,4.878399,0.497762,0.307223,4.608904,0.000000,26.304701,-9.049782,0.491566,-0.030534,-0.064281,-0.060613,0.288998,-0.039071,0.033777,-0.016085,-0.062798,1.615548,0.257130,9.719959,2.003869,-2.008398,1,0,,38.990291,-76.940906,-9.658000,,,
2026-09-11T19:08:15.413,4.911801,0.527220,0.324757,4.881671,0.000000,23.251875,-7.999498,0.522090,-0.027660,-0.058232,-0.062660,0.305835,-0.041085,0.031003,-0.008937,-0.056748,1.467173,0.014416,9.668769,2.007844,-2.004812,1,0,,38.990291,-76.940906,-9.658000,,,
2026-09-11T19:08:15.446,4.945224,0.556632,0.343099,5.153998,0.000000,21.470030,-7.386478,0.552013,-0.026040,-0.054821,-0.064549,0.323691,-0.043122,0.020915,-0.003301,-0.053337,1.482962,-0.184561,9.820674,2.013959,-2.014148,1,0,,38.990291,-76.940906,-9.658000,,,
2026-09-11T19:08:15.479,4.978627,0.537388,0.360827,4.975815,0.000000,20.708540,-7.124498,0.533239,-0.027733,-0.058385,-0.066440,0.341719,-0.045204,0.012093,-0.006884,-0.056901,1.646635,0.769038,10.135369,2.032429,-1.961649,1,0,,38.990291,-76.940906,-9.658000,,,
2026-09-11T19:08:15.513,5.012029,0.557203,0.379796,5.159290,0.000000,20.601424,-7.087646,0.552946,-0.026444,-0.055672,-0.068344,0.359757,-0.047329,-0.008164,-0.003627,-0.054188,0.902016,0.093654,9.467830,2.001594,-1.953432,1,0,,38.990291,-76.940906,-9.658000,,,
2026-09-11T19:08:15.547,5.045449,0.547763,0.398435,5.071883,0.000000,20.505980,-7.054810,0.543616,-0.026596,-0.055991,-0.070210,0.377976,-0.049481,0.006008,-0.000984,-0.054508,0.675090,-0.207901,10.317577,1.955665,-1.964835,1,0,,38.990291,-76.940906,-9.658000,,,
2026-09-11T19:08:15.580,5.078868,0.567503,0.417142,5.254661,0.000000,20.267714,-6.972837,0.563306,-0.027970,-0.058884,-0.072130,0.396360,-0.051706,0.018480,-0.025763,-0.057400,2.114216,0.186915,9.334656,2.002010,-1.950390,1,0,,38.990291,-76.940906,-9.658000,,,
2026-09-11T19:08:15.613,5.112285,0.577226,0.436488,5.344686,0.000000,19.808348,-6.814799,0.573148,-0.026912,-0.056657,-0.074060,0.415231,-0.054007,0.022918,-0.020476,-0.055174,0.683818,0.300083,8.652702,1.952931,-1.928829,1,0,,38.990291,-76.940906,-9.658000,,,
2026-09-11T19:08:15.646,5.145693,0.557886,0.454944,5.165607,0.000000,18.869704,-6.491870,0.554308,-0.026723,-0.056260,-0.075946,0.433943,-0.056312,0.025380,-0.013312,-0.054776,1.165324,1.536702,10.580787,1.940199,-1.827614,1,0,,38.990291,-76.940906,-9.658000,,,
2026-09-11T19:08:15.679,5.179098,0.558238,0.473914,5.168868,0.000000,17.497099,-6.019644,0.555160,-0.020911,-0.044023,-0.077621,0.452359,-0.058527,0.035614,-0.018573,-0.042539,1.014596,0.395993,10.204408,1.923526,-1.801736,1,0,,38.990291,-76.940906,-9.658000,,,
2026-09-11T19:08:15.714,5.212516,0.577845,0.493453,5.350420,0.000000,16.333235,-5.619232,0.575069,-0.019430,-0.040904,-0.079040,0.471133,-0.060676,0.039508,-0.009171,-0.039421,1.533858,0.560352,9.324163,1.940836,-1.765561,1,0,,38.990291,-76.940906,-9.658000,,,
2026-09-11T19:08:15.748,5.245939,0.578298,0.513322,5.354615,0.000000,16.191099,-5.570332,0.575568,-0.021381,-0.045013,-0.080476,0.490247,-0.062888,0.050035,-0.010892,-0.043530,1.187683,-0.372162,9.626306,1.935438,-1.789969,1,0,,38.990291,-76.940906,-9.658000,,,
2026-09-11T19:08:15.780,5.279358,0.617514,0.533237,5.717718,0.000000,15.943220,-5.485053,0.614686,-0.030441,-0.064087,-0.082299,0.509999,-0.065369,0.041943,-0.036949,-0.062603,1.966135,0.448360,10.265601,1.983960,-1.760143,1,0,,38.990291,-76.940906,-9.658000,,,
2026-09-11T19:08:15.813,5.312758,0.646976,0.554462,5.990521,0.000000,15.943220,-5.485053,0.644014,-0.020060,-0.042231,-0.084075,0.530877,-0.067956,0.054886,-0.030272,-0.040748,1.832471,0.433356,9.349170,2.025909,-1.732422,1,0,,38.990291,-76.940906,-9.658000,,,
2026-09-11T19:08:15.847,5.346167,0.676388,0.576849,6.262848,0.000000,15.917815,-5.476312,0.673300,-0.028727,-0.060477,-0.085791,0.552733,-0.070636,0.071918,-0.030641,-0.058994,1.662423,1.346453,9.637289,2.058365,-1.645066,1,0,,38.990291,-76.940906,-9.658000,,,
2026-09-11T19:08:15.882,5.379586,0.686704,0.599168,6.358366,0.000000,14.887160,-5.121729,0.683962,-0.023347,-0.049151,-0.087622,0.575251,-0.073466,0.094875,-0.011739,-0.047667,1.670955,0.169851,9.772425,2.089270,-1.635238,1,0,,38.990291,-76.940906,-9.658000,,,
2026-09-11T19:08:15.914,5.412995,0.657692,0.620974,6.089740,0.000000,13.476790,-4.636510,0.655540,-0.025986,-0.054708,-0.089357,0.597467,-0.076264,0.085803,-0.017568,-0.053224,1.131393,0.672442,10.126543,2.081766,-1.592867,1,1,5.398747,38.990293,-76.940911,-9.641000,-0.414127,0.224984,2.609291
2026-09-11T19:08:15.947,5.446404,0.658226,0.643544,6.094684,0.000000,12.779158,-4.396499,0.656289,-0.027002,-0.056846,-0.091221,0.619211,-0.079122,0.080198,-0.019497,-0.055363,1.875816,0.713532,9.397419,2.122307,-1.548216,1,0,,38.990293,-76.940911,-9.641000,,,
2026-09-11T19:08:15.980,5.479811,0.668412,0.666671,6.188997,0.000000,12.779158,-4.396499,0.666445,-0.031269,-0.065830,-0.093270,0.641122,-0.082126,0.046798,-0.001846,-0.064346,0.891915,0.649887,9.798903,2.097245,-1.507751,1,0,,38.990293,-76.940911,-9.641000,,,
2026-09-11T19:08:16.015,5.513214,0.659142,0.689024,6.103165,0.000000,13.052443,-4.490519,0.657118,-0.039897,-0.083993,-0.095772,0.663016,-0.085396,0.030511,0.008005,-0.082510,0.603109,-0.467483,10.059073,2.055044,-1.539270,1,0,,38.990293,-76.940911,-9.641000,,,
2026-09-11T19:08:16.049,5.546625,0.630496,0.711047,5.837930,0.000000,16.753462,-5.763806,0.627309,-0.045471,-0.095729,-0.098774,0.684233,-0.088898,0.017146,-0.008190,-0.094246,0.873184,-0.013337,9.414384,2.036654,-1.540756,1,0,,38.990293,-76.940911,-9.641000,,,
2026-09-11T19:08:16.081,5.580042,0.630848,0.732602,5.841189,0.000000,20.377577,-7.010634,0.626132,-0.048779,-0.102692,-0.102090,0.704912,-0.092565,0.012276,-0.030477,-0.101208,0.852296,0.873773,9.772817,2.023503,-1.484557,1,0,,38.990293,-76.940911,-9.641000,,,
2026-09-11T19:08:16.114,5.613444,0.631296,0.754181,5.845330,0.000000,22.093504,-7.600976,0.625749,-0.056416,-0.118769,-0.105788,0.725525,-0.096481,0.009275,0.016441,-0.117286,0.906233,0.271252,8.799115,2.019783,-1.467320,1,0,,38.990293,-76.940911,-9.641000,,,
2026-09-11T19:08:16.148,5.646845,0.651085,0.775987,6.028566,0.000000,24.239958,-8.339435,0.644201,-0.056355,-0.118642,-0.109753,0.746408,-0.100636,0.012192,-0.018118,-0.117158,1.612017,0.584869,14.076073,2.062844,-1.429859,1,0,,38.990293,-76.940911,-9.641000,,,
2026-09-11T19:08:16.182,5.680266,0.661006,0.798306,6.120422,0.000000,25.507506,-8.775518,0.653268,-0.061624,-0.129734,-0.113904,0.767734,-0.105015,0.035146,0.007634,-0.128251,1.772356,0.161810,8.849521,2.114811,-1.419626,1,0,,38.990293,-76.940911,-9.641000,,,
2026-09-11T19:08:16.215,5.713676,0.680329,0.820579,6.299338,0.000000,25.738905,-8.855128,0.672219,-0.054299,-0.114313,-0.117981,0.789503,-0.109500,0.074879,0.001062,-0.112830,1.508067,-0.073942,8.208951,2.154023,-1.425271,1,0,,38.990293,-76.940911,-9.641000,,,
2026-09-11T19:08:16.248,5.747090,0.699716,0.843741,6.478855,0.000000,25.985411,-8.939935,0.691216,-0.062681,-0.131960,-0.122095,0.811884,-0.114169,0.029620,0.006258,-0.130476,1.002632,0.215942,9.386337,2.164857,-1.411171,1,0,,38.990293,-76.940911,-9.641000,,,
2026-09-11T19:08:16.281,5.780500,0.699716,0.867097,6.478855,0.000000,26.602019,-9.152071,0.690809,-0.064461,-0.135707,-0.126566,0.834529,-0.119139,-0.002680,0.023351,-0.134223,1.200922,0.218590,10.368375,2.189450,-1.396894,1,0,,38.990293,-76.940911,-9.641000,,,
2026-09-11T19:08:16.314,5.813904,0.680253,0.889677,6.298641,0.000000,28.032988,-9.644377,0.670639,-0.066685,-0.140390,-0.131178,0.856798,-0.124233,-0.049050,0.035005,-0.138906,0.914274,1.805110,9.292487,2.195966,-1.280141,1,0,,38.990293,-76.940911,-9.641000,,,
2026-09-11T19:08:16.349,5.847305,0.661010,0.912019,6.120459,0.000000,29.159773,-10.032032,0.650903,-0.062751,-0.132108,-0.135729,0.878384,-0.129311,-0.067786,0.021842,-0.130624,0.432767,0.094438,9.091451,2.174486,-1.275848,1,0,,38.990293,-76.940911,-9.641000,,,
2026-09-11T19:08:16.383,5.880854,0.631903,0.933768,5.850954,0.000000,30.037306,-10.333936,0.621653,-0.060562,-0.127498,-0.140083,0.899244,-0.134294,-0.145186,0.014913,-0.126015,0.432473,0.802576,9.150487,2.157310,-1.226024,1,0,,38.990293,-76.940911,-9.641000,,,
2026-09-11T19:08:16.416,5.914265,0.631903,0.954765,5.850954,0.000000,32.039564,-11.022786,0.620245,-0.058854,-0.123903,-0.144283,0.919499,-0.139208,-0.164896,-0.006123,-0.122420,0.786788,1.836295,9.175494,2.164591,-1.110238,1,0,,38.990293,-76.940911,-9.641000,,,
2026-09-11T19:08:16.449,5.947673,0.622677,0.974817,5.765524,0.000000,32.796934,-11.283349,0.610641,-0.060303,-0.126955,-0.148473,0.939549,-0.144176,-0.195322,-0.020539,-0.125471,0.252129,0.931730,9.067327,2.141289,-1.054212,1,0,,38.990293,-76.940911,-9.641000,,,
2026-09-11T19:08:16.481,5.981079,0.564572,0.993342,5.227522,0.000000,32.796934,-11.283349,0.553660,-0.054298,-0.114311,-0.152503,0.958490,-0.148982,-0.173361,-0.026771,-0.112827,0.188582,2.179724,10.108597,2.117789,-0.919003,1,0,,38.990293,-76.940911,-9.641000,,,
2026-09-11T19:08:16.515,6.014486,0.545499,1.012095,5.050915,0.000000,32.205046,-11.079718,0.535331,-0.042308,-0.089069,-0.155901,0.976217,-0.153370,-0.108656,-0.030381,-0.087586,1.495514,1.634867,9.561190,2.181390,-0.821536,1,0,,38.990293,-76.940911,-9.641000,,,
2026-09-11T19:08:16.550,6.047898,0.507277,1.029765,4.697010,0.000000,29.174879,-10.037229,0.499513,-0.032049,-0.067472,-0.158516,0.993098,-0.157303,-0.075001,-0.001962,-0.065989,-0.097968,0.988216,10.337680,2.142349,-0.767876,1,0,,38.990293,-76.940911,-9.641000,,,
2026-09-11T19:08:16.582,6.081319,0.497711,1.045886,4.608434,0.000000,26.732481,-9.196955,0.491313,-0.026255,-0.055273,-0.160567,1.009290,-0.160895,-0.036036,-0.005176,-0.053789,0.521322,0.044228,8.917775,2.140781,-0.776313,1,0,,38.990293,-76.940911,-9.641000,,,
2026-09-11T19:08:16.615,6.114724,0.449505,1.060424,4.162081,0.000000,24.492644,-8.426368,0.444652,-0.025368,-0.053407,-0.162382,1.024581,-0.164259,-0.021321,-0.000482,-0.051923,0.711276,1.013419,10.019651,2.149641,-0.722179,1,0,,38.990293,-76.940911,-9.641000,,,
2026-09-11T19:08:16.649,6.148124,0.449681,1.075713,4.163712,0.000000,23.054121,-7.931464,0.445379,-0.026176,-0.055108,-0.164194,1.039107,-0.167524,-0.015704,-0.013056,-0.053624,1.475901,0.522204,9.475774,2.208000,-0.700370,1,0,,38.990293,-76.940911,-9.641000,,,
2026-09-11T19:08:16.683,6.181543,0.459564,1.090775,4.255221,0.000000,22.578963,-7.767992,0.455347,-0.026994,-0.056830,-0.166065,1.053807,-0.170875,-0.023965,-0.011585,-0.055347,0.680287,0.663616,9.660825,2.215074,-0.669554,1,0,,38.990293,-76.940911,-9.641000,,,
2026-09-11T19:08:16.716,6.214963,0.411164,1.104970,3.807073,0.000000,22.535017,-7.752873,0.407406,-0.026983,-0.056807,-0.167964,1.067873,-0.174160,-0.026539,-0.006725,-0.055323,0.613602,0.718239,9.878533,2.215249,-0.635718,1,0,,38.990293,-76.940911,-9.641000,,,
2026-09-11T19:08:16.750,6.248371,0.440623,1.119622,4.079840,0.000000,22.369536,-7.695941,0.436654,-0.024537,-0.051657,-0.169775,1.081627,-0.177379,-0.017840,-0.009639,-0.050173,0.879362,0.363434,9.395752,2.230924,-0.625262,1,0,,38.990293,-76.940911,-9.641000,,,
2026-09-11T19:08:16.782,6.281777,0.401805,1.132747,3.720421,0.000000,22.513731,-7.745550,0.398140,-0.021134,-0.044492,-0.171381,1.095239,-0.180497,-0.016049,-0.004832,-0.043009,0.794044,0.013631,9.449492,2.240452,-0.637865,1,0,,38.990293,-76.940911,-9.641000,,,
2026-09-11T19:08:16.817,6.315184,0.392547,1.146304,3.634699,0.000000,22.403181,-7.707517,0.389001,-0.027123,-0.057100,-0.173078,1.108054,-0.183544,-0.031033,0.001307,-0.055617,1.044310,0.522989,9.638368,2.265749,-0.617085,1,0,,38.990293,-76.940911,-9.641000,,,
2026-09-11T19:08:16.853,6.348592,0.412187,1.159987,3.816543,0.000000,22.359236,-7.692398,0.408477,-0.025663,-0.054028,-0.174935,1.121021,-0.186719,-0.031795,0.000223,-0.052545,0.983313,0.965857,9.578155,2.286306,-0.567891,1,1,6.340507,38.990294,-76.940917,-9.569000,-0.937728,0.385290,2.494954
2026-09-11T19:08:16.883,6.382011,0.373613,1.172314,3.459377,0.000000,22.425841,-7.715312,0.370231,-0.018732,-0.039436,-0.176496,1.133703,-0.189724,-0.038124,-0.002077,-0.037952,0.491313,-0.830035,9.563053,2.270363,-0.635936,1,0,,38.990294,-76.940917,-9.569000,,,
2026-09-11T19:08:16.915,6.415410,0.383417,1.184904,3.550153,0.000000,22.355116,-7.690980,0.379967,-0.024774,-0.052155,-0.178026,1.145906,-0.192648,-0.041110,-0.012637,-0.050672,0.527304,1.605545,9.941295,2.261352,-0.545317,1,0,,38.990294,-76.940917,-9.569000,,,
2026-09-11T19:08:16.949,6.448810,0.344929,1.196240,3.193787,0.000000,22.263106,-7.659325,0.341852,-0.021461,-0.045182,-0.179651,1.157631,-0.195552,-0.032450,-0.001988,-0.043698,0.735695,-0.837880,9.510391,2.267870,-0.614028,1,0,,38.990294,-76.940917,-9.569000,,,
2026-09-11T19:08:16.987,6.482215,0.354749,1.208100,3.284709,0.000000,22.095564,-7.601685,0.351631,-0.020547,-0.043257,-0.181128,1.168900,-0.198320,-0.034501,-0.005316,-0.041773,0.778354,1.798540,9.887457,2.273982,-0.511448,1,0,,38.990294,-76.940917,-9.569000,,,
2026-09-11T19:08:17.018,6.515632,0.296888,1.217852,2.748960,0.000000,22.051619,-7.586566,0.294289,-0.019226,-0.040476,-0.182528,1.179395,-0.200925,-0.008781,-0.004431,-0.038993,0.711963,0.996650,9.810867,2.277558,-0.462074,1,0,,38.990294,-76.940917,-9.569000,,,
2026-09-11T19:08:17.050,6.549042,0.306612,1.228140,2.839002,0.000000,21.955488,-7.553494,0.303952,-0.017501,-0.036843,-0.183819,1.189110,-0.203348,0.001347,-0.001292,-0.035360,0.637923,0.408055,9.634642,2.279373,-0.451387,0,0,,38.990294,-76.940917,-9.569000,,,
2026-09-11T19:08:17.087,6.582460,0.258867,1.237767,2.396913,0.000000,21.963728,-7.556329,0.256619,-0.018768,-0.039512,-0.185095,1.198206,-0.205662,0.015969,0.000508,-0.038029,0.427472,0.562509,9.851859,2.266867,-0.430889,0,0,,38.990294,-76.940917,-9.569000,,,
2026-09-11T19:08:17.117,6.615860,0.258867,1.246334,2.396913,0.000000,21.963728,-7.556329,0.256619,-0.015314,-0.032240,-0.186293,1.206525,-0.207803,0.035751,-0.003638,-0.030757,0.553487,0.565746,9.635720,2.259005,-0.410539,0,0,,38.990294,-76.940917,-9.569000,,,
2026-09-11T19:08:17.149,6.649263,0.278506,1.255494,2.578757,0.000000,21.943129,-7.549242,0.276092,-0.015423,-0.032469,-0.187374,1.215171,-0.209961,0.025593,-0.001319,-0.030985,0.521812,0.844451,9.614048,2.248581,-0.372338,0,0,,38.990294,-76.940917,-9.569000,,,
2026-09-11T19:08:17.183,6.682667,0.201358,1.262171,1.864425,0.000000,21.919783,-7.541210,0.199616,-0.014110,-0.029706,-0.188412,1.222885,-0.211929,0.046289,0.000085,-0.028222,0.606934,0.157201,9.651019,2.245683,-0.379216,0,0,,38.990294,-76.940917,-9.569000,,,
2026-09-11T19:08:17.217,6.716088,0.211082,1.269200,1.954467,0.000000,21.831892,-7.510972,0.209271,-0.012628,-0.026586,-0.189353,1.229512,-0.213650,0.046707,-0.001908,-0.025103,0.727457,0.261445,9.542361,2.252539,-0.379298,0,0,,38.990294,-76.940917,-9.569000,,,
2026-09-11T19:08:17.251,6.749505,0.230690,1.276742,2.136018,0.000000,21.787947,-7.495853,0.228719,-0.013487,-0.028393,-0.190272,1.236617,-0.215460,0.031518,-0.002417,-0.026910,0.897995,0.800321,9.710741,2.264197,-0.344442,0,0,,38.990294,-76.940917,-9.569000,,,
2026-09-11T19:08:17.283,6.782924,0.172959,1.283339,1.601470,0.000000,21.787947,-7.495853,0.171481,-0.012437,-0.026183,-0.191184,1.243101,-0.217153,0.029542,0.005289,-0.024700,0.764330,0.571826,9.627581,2.263958,-0.324889,0,0,,38.990294,-76.940917,-9.569000,,,
2026-09-11T19:08:17.316,6.816326,0.134471,1.286985,1.245104,0.000000,21.787947,-7.495853,0.133322,-0.008878,-0.018691,-0.191933,1.248030,-0.218471,0.021490,-0.001817,-0.017207,0.757368,0.223788,9.638760,2.263984,-0.328207,0,0,,38.990294,-76.940917,-9.569000,,,
2026-09-11T19:08:17.351,6.849724,0.192784,1.293342,1.785035,0.000000,21.787947,-7.495853,0.191136,-0.009972,-0.020993,-0.192596,1.253288,-0.219816,0.011061,0.001280,-0.019510,0.888581,0.878970,9.672397,2.270086,-0.289008,0,0,,38.990294,-76.940917,-9.569000,,,
2026-09-11T19:08:17.385,6.883141,0.173145,1.299357,1.603191,0.000000,21.886137,-7.529634,0.171652,-0.007741,-0.016296,-0.193219,1.259181,-0.221268,0.013731,0.004213,-0.014812,0.968897,0.393933,9.441156,2.285091,-0.281693,0,0,,38.990294,-76.940917,-9.569000,,,
2026-09-11T19:08:17.418,6.916554,0.173145,1.305134,1.603191,0.000000,21.875838,-7.526091,0.171653,-0.007785,-0.016390,-0.193765,1.264759,-0.222625,0.013726,0.001212,-0.014906,0.906429,0.248108,9.625717,2.294017,-0.283896,0,0,,38.990294,-76.940917,-9.569000,,,
2026-09-11T19:08:17.450,6.949968,0.115284,1.308552,1.067441,0.000000,21.538008,-7.409865,0.114321,-0.005162,-0.010868,-0.194220,1.269406,-0.223758,0.018203,0.001940,-0.009385,0.904565,0.454342,9.534123,2.298380,-0.272830,0,0,,38.990294,-76.940917,-9.569000,,,
2026-09-11T19:08:17.483,6.983374,0.115284,1.312402,1.067441,0.000000,21.213225,-7.298128,0.114350,-0.010225,-0.021527,-0.194761,1.273104,-0.224749,0.023414,0.004713,-0.020043,0.828858,0.660282,9.635034,2.299651,-0.248485,0,0,,38.990294,-76.940917,-9.569000,,,
2026-09-11T19:08:17.518,7.016782,0.163906,1.318395,1.517652,0.000000,21.013411,-7.229384,0.162603,-0.008178,-0.017217,-0.195409,1.277582,-0.225947,0.006753,-0.000104,-0.015733,0.861416,0.362062,9.624443,2.300563,-0.243683,0,0,,38.990294,-76.940917,-9.569000,,,
2026-09-11T19:08:17.552,7.050195,0.114887,1.322576,1.063773,0.000000,20.833510,-7.167492,0.113990,-0.006697,-0.014100,-0.195932,1.282067,-0.227089,0.013978,-0.001067,-0.012616,0.898583,0.674698,9.619441,2.297679,-0.218776,0,0,,38.990294,-76.940917,-9.569000,,,
2026-09-11T19:08:17.584,7.083612,0.114887,1.326427,1.063773,0.000000,20.669401,-7.111033,0.114004,-0.005734,-0.012072,-0.196369,1.285763,-0.228036,0.003605,0.000929,-0.010588,0.692055,0.396581,9.621697,2.283925,-0.212160,0,0,,38.990294,-76.940917,-9.569000,,,
2026-09-11T19:08:17.617,7.117018,0.105266,1.330027,0.974682,0.000000,20.398863,-7.017957,0.104477,-0.006340,-0.013347,-0.196794,1.289302,-0.228946,-0.004331,-0.001436,-0.011864,0.870438,0.564765,9.651117,2.285699,-0.194735,0,0,,38.990294,-76.940917,-9.569000,,,
2026-09-11T19:08:17.651,7.150418,0.076400,1.332055,0.707407,0.000000,19.940184,-6.860155,0.075853,-0.001992,-0.004194,-0.197087,1.292229,-0.229672,-0.002893,-0.000218,-0.002710,0.872988,0.335584,9.722509,2.286353,-0.192402,0,0,,38.990294,-76.940917,-9.569000,,,
2026-09-11T19:08:17.684,7.183824,0.076400,1.334607,0.707407,0.000000,19.209593,-6.608805,0.075892,-0.003197,-0.006731,-0.197269,1.294697,-0.230253,-0.001647,-0.001623,-0.005248,0.988216,0.609091,9.636211,2.290773,-0.172385,0,0,,38.990294,-76.940917,-9.569000,,,
2026-09-11T19:08:17.719,7.217227,0.076400,1.337171,0.707407,0.000000,18.183745,-6.255875,0.075945,-0.001638,-0.003449,-0.197439,1.297168,-0.230830,0.000531,0.001507,-0.001966,0.849844,0.386872,9.636309,2.280541,-0.166985,0,0,,38.990294,-76.940917,-9.569000,,,
2026-09-11T19:08:17.756,7.250637,0.076400,1.339757,0.707407,0.000000,16.947783,-5.830659,0.076005,-0.000018,-0.000038,-0.197497,1.299651,-0.231355,0.003821,0.000682,0.001446,0.921727,0.550741,9.679458,2.276355,-0.151056,0,0,,38.990294,-76.940917,-9.569000,,,
2026-09-11T19:08:17.785,7.284050,0.076400,1.342298,0.707407,0.000000,15.571745,-5.357252,0.076066,0.000301,0.000634,-0.197487,1.302144,-0.231849,0.002512,-0.000775,0.002117,1.063825,0.453656,9.630425,2.281440,-0.141588,0,0,,38.990294,-76.940917,-9.569000,,,
2026-09-11T19:08:17.818,7.317453,0.076400,1.344815,0.707407,0.000000,13.609999,-4.682339,0.076145,-0.000403,-0.000848,-0.197491,1.304636,-0.232349,-0.004323,-0.000321,0.000635,1.081281,0.357158,9.632778,2.288844,-0.138465,0,0,,38.990294,-76.940917,-9.569000,,,
2026-09-11T19:08:17.852,7.350920,0.056761,1.346547,0.525563,0.000000,13.303068,-4.576744,0.056580,-0.000704,-0.001482,-0.197530,1.306810,-0.232803,-0.007593,-0.000235,0.000002,1.168560,0.353726,9.611302,2.305673,-0.135591,0,1,7.338829,38.990295,-76.940919,-9.527000,-1.125274,0.458494,2.494954
2026-09-11T19:08:17.886,7.384338,0.056761,1.348450,0.525563,0.000000,13.306502,-4.577925,0.056580,-0.004564,-0.009608,-0.197715,1.308647,-0.233261,-0.012015,-0.000620,-0.008124,1.251721,0.418646,9.651019,2.325239,-0.128521,0,0,,38.990295,-76.940919,-9.527000,,,
2026-09-11T19:08:17.918,7.417747,0.056761,1.350330,0.525563,0.000000,12.994765,-4.470676,0.056588,-0.000898,-0.001889,-0.197907,1.310482,-0.233722,-0.013032,-0.000492,-0.000406,1.172483,0.598990,9.594336,2.329302,-0.109888,0,0,,38.990295,-76.940919,-9.527000,,,
2026-09-11T19:08:17.951,7.451149,0.056761,1.352232,0.525563,0.000000,11.850813,-4.077115,0.056617,0.000431,0.000907,-0.197924,1.312335,-0.234101,-0.004701,-0.000687,0.002391,0.990962,0.350980,9.682008,2.308679,-0.107523,0,0,,38.990295,-76.940919,-9.527000,,,
2026-09-11T19:08:17.985,7.484554,0.085691,1.355251,0.793438,0.000000,11.105116,-3.820567,0.085501,0.000322,0.000678,-0.197897,1.314664,-0.234555,0.000861,-0.000712,0.002162,1.171110,0.566040,9.600612,2.306680,-0.091268,0,0,,38.990295,-76.940919,-9.527000,,,
2026-09-11T19:08:18.018,7.517954,0.085691,1.358100,0.793438,0.000000,10.470656,-3.602290,0.085522,-0.000118,-0.000249,-0.197890,1.317465,-0.235114,0.008086,0.000615,0.001234,1.162873,0.372751,9.633269,2.316030,-0.087695,0,0,,38.990295,-76.940919,-9.527000,,,
2026-09-11T19:08:18.052,7.551366,0.085691,1.360993,0.793438,0.000000,9.960478,-3.426770,0.085538,-0.000133,-0.000280,-0.197899,1.320267,-0.235680,0.008604,-0.000260,0.001203,1.173366,0.473073,9.617284,2.326595,-0.077668,0,0,,38.990295,-76.940919,-9.527000,,,
2026-09-11T19:08:18.085,7.584781,0.017619,1.361016,0.163143,0.000000,9.391249,-3.230934,0.017591,0.001107,0.002330,-0.197865,1.321959,-0.236002,0.009821,-0.000253,0.003813,1.225145,0.409722,9.610027,2.322112,-0.071856,0,0,,38.990295,-76.940919,-9.527000,,,
2026-09-11T19:08:18.118,7.618181,0.017619,1.361586,0.163143,0.000000,8.891371,-3.058958,0.017594,-0.000981,-0.002066,-0.197860,1.322536,-0.236116,0.012910,0.000872,-0.000582,1.248779,0.415508,9.616303,2.311122,-0.065731,0,0,,38.990295,-76.940919,-9.527000,,,
2026-09-11T19:08:18.152,7.651582,0.017619,1.362167,0.163143,0.000000,8.447111,-2.906116,0.017597,-0.000648,-0.001364,-0.197917,1.323107,-0.236258,0.003257,0.001385,0.000120,1.342432,0.475524,9.605516,2.315918,-0.055791,0,0,,38.990295,-76.940919,-9.527000,,,
2026-09-11T19:08:18.187,7.684998,0.145069,1.363956,1.343227,0.000000,8.252791,-2.839263,0.144890,0.000971,0.002044,-0.197906,1.325769,-0.236786,-0.012116,0.002484,0.003527,1.422062,0.409428,9.619539,2.322722,-0.050256,0,0,,38.990295,-76.940919,-9.527000,,,
2026-09-11T19:08:18.220,7.718418,0.215514,1.376682,1.995498,0.000000,8.252791,-2.839263,0.215249,-0.002284,-0.004809,-0.197952,1.331666,-0.237991,-0.020216,0.000979,-0.003325,1.557492,0.502885,9.571192,2.338902,-0.038646,0,0,,38.990295,-76.940919,-9.527000,,,
2026-09-11T19:08:18.256,7.751820,0.042320,1.376682,0.391853,0.000000,8.189619,-2.817530,0.042269,-0.001595,-0.003358,-0.198089,1.335870,-0.238901,-0.031813,0.001481,-0.001874,1.544645,0.383244,9.626992,2.350822,-0.034969,0,0,,38.990295,-76.940919,-9.527000,,,
2026-09-11T19:08:18.286,7.785223,0.032698,1.377570,0.302762,0.000000,8.009718,-2.755637,0.032660,-0.002871,-0.006043,-0.198246,1.337082,-0.239220,-0.033648,0.003120,-0.004560,1.559944,0.569963,9.713879,2.361612,-0.019247,0,0,,38.990295,-76.940919,-9.527000,,,
2026-09-11T19:08:18.319,7.818625,0.032698,1.378652,0.302762,0.000000,7.710341,-2.652640,0.032663,0.002069,0.004355,-0.198274,1.338149,-0.239448,-0.024890,-0.001405,0.005838,1.523561,0.305771,9.613949,2.366088,-0.020816,0,0,,38.990295,-76.940919,-9.527000,,,
2026-09-11T19:08:18.353,7.852032,0.295105,1.391754,2.732451,0.000000,7.327879,-2.521059,0.294819,-0.001167,-0.002457,-0.198242,1.343515,-0.240511,-0.013175,-0.000514,-0.000973,1.506498,0.360492,9.555894,2.359301,-0.018771,0,0,,38.990295,-76.940919,-9.527000,,,
2026-09-11T19:08:18.386,7.885450,0.137991,1.394500,1.277698,0.000000,7.110213,-2.446174,0.137866,-0.002747,-0.005784,-0.198380,1.350590,-0.241999,-0.006221,0.002761,-0.004300,1.345963,0.232614,9.771837,2.342110,-0.025021,0,0,,38.990295,-76.940919,-9.527000,,,
2026-09-11T19:08:18.419,7.918852,0.147635,1.399091,1.366989,0.000000,6.781309,-2.333019,0.147512,-0.000022,-0.000047,-0.198477,1.355254,-0.242984,0.000948,-0.001635,0.001436,1.532191,0.314990,9.606300,2.343587,-0.025920,0,0,,38.990295,-76.940919,-9.527000,,,
2026-09-11T19:08:18.452,7.952252,0.186209,1.406235,1.724156,0.000000,6.165388,-2.121120,0.186081,-0.001558,-0.003281,-0.198533,1.360710,-0.244109,0.003927,-0.000428,-0.001797,1.568279,0.412468,9.646802,2.358346,-0.020463,0,0,,38.990295,-76.940919,-9.527000,,,
2026-09-11T19:08:18.487,7.985670,0.166760,1.411624,1.544072,0.000000,5.235670,-1.801263,0.166677,-0.002699,-0.005682,-0.198683,1.366474,-0.245341,0.002096,0.001320,-0.004198,1.558375,0.504944,9.876179,2.365684,-0.009055,0,0,,38.990295,-76.940919,-9.527000,,,
2026-09-11T19:08:18.519,8.019074,0.264797,1.421137,2.451828,0.000000,3.902205,-1.342502,0.264725,0.002161,0.004549,-0.198702,1.373536,-0.246772,0.005424,-0.003816,0.006032,1.914748,0.412075,9.722215,2.380510,-0.003927,0,0,,38.990295,-76.940919,-9.527000,,,
2026-09-11T19:08:18.553,8.052475,0.197444,1.427130,1.828188,0.000000,1.868361,-0.642785,0.197432,0.002395,0.005042,-0.198541,1.381118,-0.248221,-0.002987,-0.001076,0.006525,1.583284,0.667048,9.763109,2.371079,0.017655,0,0,,38.990295,-76.940919,-9.527000,,,
2026-09-11T19:08:18.586,8.085881,0.255757,1.435959,2.368119,0.000000,-0.946199,0.325527,0.255753,0.007096,0.014938,-0.198208,1.388570,-0.249557,-0.002327,0.005025,0.016422,1.648792,0.674207,9.889712,2.380550,0.039282,0,0,,38.990295,-76.940919,-9.527000,,,
2026-09-11T19:08:18.621,8.119297,0.285216,1.445974,2.640885,0.000000,-3.716127,1.278484,0.285145,0.010913,0.022974,-0.197574,1.397490,-0.251039,0.010914,-0.000834,0.024458,1.414413,0.358923,9.771542,2.377737,0.040090,0,0,,38.990295,-76.940919,-9.527000,,,
2026-09-11T19:08:18.654,8.152708,0.256285,1.453960,2.373011,0.000000,-6.498415,2.235693,0.256090,0.012466,0.026245,-0.196752,1.406433,-0.252427,0.019171,0.005059,0.027728,1.525817,0.427472,9.678870,2.370166,0.045314,0,0,,38.990295,-76.940919,-9.527000,,,
2026-09-11T19:08:18.686,8.186129,0.315029,1.464350,2.916931,0.000000,-9.262850,3.186760,0.314541,0.014533,0.030596,-0.195802,1.415874,-0.253844,0.022121,0.001488,0.032080,1.576027,0.403740,9.731433,2.366627,0.048758,0,0,,38.990295,-76.940919,-9.527000,,,
2026-09-11T19:08:18.724,8.219533,0.286163,1.473943,2.649657,0.000000,-14.020627,4.823610,0.285149,0.017169,0.036145,-0.194687,1.425802,-0.255268,0.026547,0.004333,0.037628,1.987220,0.571532,9.654647,2.391157,0.062975,1,0,,38.990295,-76.940919,-9.527000,,,
2026-09-11T19:08:18.753,8.252936,0.315319,1.484584,2.919622,0.000000,-16.348355,5.624434,0.313801,0.033590,0.070715,-0.192903,1.435781,-0.256362,0.107649,-0.015289,0.072199,1.298891,-1.157773,10.643746,2.377590,-0.035633,1,0,,38.990295,-76.940919,-9.527000,,,
2026-09-11T19:08:18.788,8.286342,0.344954,1.496912,3.194019,0.000000,-17.297986,5.951142,0.343095,0.026798,0.056417,-0.190779,1.446744,-0.257463,0.064533,0.003805,0.057901,1.766276,-0.590949,8.140794,2.397811,-0.096292,1,0,,38.990295,-76.940919,-9.527000,,,
2026-09-11T19:08:18.821,8.319753,0.345033,1.508020,3.194753,0.000000,-18.055356,6.211705,0.343008,0.018594,0.039145,-0.189183,1.458143,-0.258883,0.037811,0.005528,0.040628,1.793440,-0.541033,9.446648,2.418955,-0.152671,1,0,,38.990295,-76.940919,-9.527000,,,
2026-09-11T19:08:18.853,8.353154,0.383885,1.521304,3.554487,0.000000,-18.520215,6.371634,0.381513,0.021404,0.045061,-0.187777,1.470154,-0.260493,0.006290,0.002002,0.046545,1.889251,1.528661,10.095260,2.451756,-0.074745,1,1,8.336089,38.990295,-76.940921,-9.486000,-1.271334,0.503713,2.494954
2026-09-11T19:08:18.887,8.386559,0.403524,1.534668,3.736331,0.000000,-19.127896,6.580698,0.400865,0.035223,0.074155,-0.185785,1.483170,-0.261990,0.002885,-0.006783,0.075638,1.968195,0.806597,9.240022,2.489313,-0.045207,1,0,,38.990295,-76.940921,-9.486000,,,
2026-09-11T19:08:18.922,8.419966,0.422811,1.548966,3.914914,0.000000,-20.172284,6.940006,0.419713,0.033710,0.070968,-0.183361,1.496855,-0.263374,0.001394,-0.002047,0.072451,1.625256,0.927905,9.005251,2.503447,-0.008146,1,0,,38.990295,-76.940921,-9.486000,,,
2026-09-11T19:08:18.955,8.453378,0.442054,1.563128,4.093096,0.000000,-20.949567,7.207420,0.438562,0.035963,0.075711,-0.180911,1.511167,-0.264826,0.010402,-0.008794,0.077195,1.081183,0.238988,9.727118,2.478100,-0.016300,1,0,,38.990295,-76.940921,-9.486000,,,
2026-09-11T19:08:18.987,8.486798,0.422617,1.577619,3.913120,0.000000,-21.100629,7.259391,0.419229,0.033232,0.069961,-0.178477,1.525476,-0.266250,0.009594,-0.011010,0.071445,0.684210,-0.502689,9.566191,2.425743,-0.072131,1,0,,38.990295,-76.940921,-9.486000,,,
2026-09-11T19:08:19.021,8.520200,0.412973,1.591473,3.823828,0.000000,-20.597318,7.086233,0.409819,0.026873,0.056575,-0.176363,1.539282,-0.267706,0.018719,-0.010329,0.058058,0.893288,0.435709,9.093118,2.393176,-0.066198,1,0,,38.990295,-76.940921,-9.486000,,,
2026-09-11T19:08:19.055,8.553599,0.403170,1.604837,3.733052,0.000000,-19.015286,6.541956,0.400544,0.023203,0.048848,-0.174603,1.552753,-0.269245,0.040202,-0.017075,0.050331,1.042741,0.433552,9.414286,2.369385,-0.060237,1,0,,38.990295,-76.940921,-9.486000,,,
2026-09-11T19:08:19.088,8.587018,0.412985,1.618418,3.823938,0.000000,-18.498242,6.364074,0.410440,0.011238,0.023660,-0.173391,1.566200,-0.271024,0.102741,-0.005074,0.025143,1.233284,0.399719,10.008961,2.354373,-0.055890,1,0,,38.990295,-76.940921,-9.486000,,,
2026-09-11T19:08:19.122,8.620427,0.403166,1.631953,3.733016,0.000000,-16.925137,5.822868,0.401085,0.013956,0.029382,-0.172505,1.579626,-0.272943,0.156846,-0.003176,0.030865,1.652224,0.727555,10.044658,2.366125,-0.030511,1,0,,38.990295,-76.940921,-9.486000,,,
2026-09-11T19:08:19.154,8.653830,0.412971,1.645373,3.823809,0.000000,-15.418637,5.304577,0.411203,0.006324,0.013314,-0.171792,1.593050,-0.274933,0.167940,-0.005520,0.014798,2.082050,0.773156,9.276699,2.405085,-0.002057,1,0,,38.990295,-76.940921,-9.486000,,,
2026-09-11T19:08:19.187,8.687237,0.442383,1.660492,4.096136,0.000000,-13.050397,4.489815,0.441025,0.002454,0.005167,-0.171484,1.607101,-0.277220,0.180670,-0.029368,0.006651,2.518544,0.834448,9.486071,2.470156,0.030258,1,0,,38.990295,-76.940921,-9.486000,,,
2026-09-11T19:08:19.223,8.720820,0.501199,1.677388,4.640735,0.000000,-9.816296,3.377166,0.500329,0.001049,0.002209,-0.171360,1.622686,-0.279858,0.150866,0.004310,0.003692,1.253290,0.373633,10.634233,2.446940,0.032481,1,0,,38.990295,-76.940921,-9.486000,,,
2026-09-11T19:08:19.256,8.754230,0.462463,1.692586,4.282067,0.000000,-4.571697,1.572832,0.462289,-0.005583,-0.011754,-0.171519,1.638518,-0.282676,0.100150,0.029312,-0.010270,1.036367,0.740304,9.829107,2.403684,0.058824,1,0,,38.990295,-76.940921,-9.486000,,,
2026-09-11T19:08:19.290,8.787647,0.472449,1.708775,4.374528,0.000000,-2.415631,0.831066,0.472399,-0.009704,-0.020430,-0.172057,1.653861,-0.285597,0.069653,0.003974,-0.018947,1.809131,0.666950,9.385749,2.406905,0.080405,1,0,,38.990295,-76.940921,-9.486000,,,
2026-09-11T19:08:19.321,8.821056,0.511828,1.725557,4.739150,0.000000,-0.431911,0.148593,0.511826,-0.009195,-0.019358,-0.172721,1.670005,-0.288729,0.037379,-0.007774,-0.017874,2.338102,0.507984,9.388593,2.439535,0.091470,1,0,,38.990295,-76.940921,-9.486000,,,
2026-09-11T19:08:19.355,8.854456,0.570572,1.744048,5.283071,0.000000,1.244877,-0.428283,0.570556,-0.005024,-0.010577,-0.173221,1.687770,-0.292074,0.021174,-0.017061,-0.009093,2.805388,-0.337937,9.480383,2.497146,0.047424,1,0,,38.990295,-76.940921,-9.486000,,,
2026-09-11T19:08:19.388,8.887861,0.580194,1.763507,5.372163,0.000000,3.837651,-1.320293,0.580040,-0.011307,-0.023804,-0.173796,1.706652,-0.295661,-0.013557,0.003391,-0.022321,2.914340,0.802282,8.987697,2.557345,0.078151,1,0,,38.990295,-76.940921,-9.486000,,,
2026-09-11T19:08:19.422,8.921264,0.619296,1.784721,5.734220,0.000000,8.149098,-2.803589,0.618555,-0.018485,-0.038917,-0.174843,1.726280,-0.299623,-0.066864,-0.004258,-0.037433,2.116275,1.467957,9.799786,2.566704,0.152277,1,0,,38.990295,-76.940921,-9.486000,,,
2026-09-11T19:08:19.456,8.954674,0.648610,1.807063,6.005651,0.000000,8.123005,-2.794612,0.647839,-0.020050,-0.042210,-0.176198,1.746998,-0.303951,-0.100239,-0.017393,-0.040726,1.871403,-0.042757,9.462143,2.566296,0.128028,1,0,,38.990295,-76.940921,-9.486000,,,
2026-09-11T19:08:19.489,8.988087,0.697356,1.830749,6.457000,0.000000,10.259846,-3.529764,0.696033,-0.025673,-0.054048,-0.177807,1.768964,-0.308657,-0.120565,-0.023454,-0.052565,1.326055,-0.097184,9.157548,2.530402,0.101187,1,0,,38.990295,-76.940921,-9.486000,,,
2026-09-11T19:08:19.522,9.021498,0.717060,1.854833,6.639449,0.000000,12.187948,-4.193101,0.715141,-0.031213,-0.065712,-0.179807,1.791993,-0.313785,-0.112049,-0.019235,-0.064228,2.049786,-0.074334,9.484992,2.540235,0.076732,1,0,,38.990295,-76.940921,-9.486000,,,
2026-09-11T19:08:19.555,9.054900,0.746343,1.879989,6.910585,0.000000,13.844137,-4.762891,0.743766,-0.035305,-0.074327,-0.182146,1.815760,-0.319264,-0.165885,-0.011098,-0.072844,2.128730,0.553193,10.281194,2.561597,0.093697,1,0,,38.990295,-76.940921,-9.486000,,,
2026-09-11T19:08:19.589,9.088304,0.795409,1.906500,7.364902,0.000000,14.339895,-4.933450,0.792463,-0.041279,-0.086904,-0.184839,1.840754,-0.325204,-0.231596,-0.017224,-0.085420,1.687332,0.747365,9.584431,2.565522,0.123920,1,0,,38.990295,-76.940921,-9.486000,,,
2026-09-11T19:08:19.623,9.121711,0.824902,1.933923,7.637978,0.000000,13.250875,-4.558787,0.822292,-0.021342,-0.044931,-0.187041,1.867068,-0.331219,-0.228702,-0.032192,-0.043447,1.875424,0.395110,8.787053,2.589844,0.128948,1,0,,38.990295,-76.940921,-9.486000,,,
2026-09-11T19:08:19.656,9.155120,0.854360,1.962394,7.910745,0.000000,9.218893,-3.171637,0.853052,-0.018178,-0.038269,-0.188431,1.894439,-0.337091,-0.208589,-0.022758,-0.036786,1.921613,0.860828,9.396536,2.623115,0.163785,1,0,,38.990295,-76.940921,-9.486000,,,
2026-09-11T19:08:19.689,9.188524,0.835366,1.991013,7.734869,0.000000,6.510076,-2.239705,0.834728,0.012435,0.026179,-0.188633,1.922111,-0.342469,-0.193182,-0.009917,0.027662,1.663110,1.515324,10.920391,2.646688,0.237063,1,0,,38.990295,-76.940921,-9.486000,,,
2026-09-11T19:08:19.722,9.221930,0.845633,2.019325,7.829932,0.000000,-0.329600,0.113394,0.845631,0.020741,0.043665,-0.187466,1.949786,-0.347171,-0.182809,0.004728,0.045148,1.206708,1.825116,9.714664,2.646537,0.328611,1,0,,38.990295,-76.940921,-9.486000,,,
2026-09-11T19:08:19.756,9.255332,0.856199,2.047887,7.927772,0.000000,-6.376887,2.193883,0.855572,0.030686,0.064603,-0.185658,1.977864,-0.351597,-0.167231,-0.012031,0.066086,0.978998,2.071655,8.933368,2.635261,0.433911,1,0,,38.990295,-76.940921,-9.486000,,,
2026-09-11T19:08:19.790,9.288747,0.846794,2.075960,7.840681,0.000000,-9.618540,3.309131,0.845382,0.040499,0.085262,-0.183154,2.006019,-0.355639,-0.126868,-0.000763,0.086745,0.446006,0.047758,9.924918,2.590561,0.405957,1,0,,38.990295,-76.940921,-9.486000,,,
2026-09-11T19:08:19.823,9.322166,0.808464,2.102585,7.485781,0.000000,-15.482495,5.326547,0.804973,0.035644,0.075041,-0.180476,2.033371,-0.359375,-0.033260,0.013322,0.076524,0.313126,0.895641,9.799982,2.538924,0.433971,1,0,,38.990295,-76.940921,-9.486000,,,
2026-09-11T19:08:19.856,9.355567,0.770112,2.127968,7.130665,0.000000,-17.239621,5.931062,0.765989,0.043546,0.091676,-0.177691,2.059423,-0.362747,0.026692,0.018350,0.093160,-0.074629,0.063449,9.849505,2.462710,0.407164,1,1,9.340505,38.990296,-76.940927,-9.448000,-1.792198,0.611387,2.608784
2026-09-11T19:08:19.890,9.388972,0.751202,2.153033,6.955578,0.000000,-17.279447,5.944764,0.747163,0.039727,0.083637,-0.174763,2.084548,-0.365809,0.097059,0.034301,0.085120,0.288512,-0.668912,10.513612,2.409874,0.333749,1,0,,38.990296,-76.940927,-9.448000,,,
2026-09-11T19:08:19.924,9.422392,0.722393,2.177004,6.688821,0.000000,-17.370770,5.976182,0.718467,0.032560,0.068547,-0.172220,2.108880,-0.368848,0.112887,0.028339,0.070030,0.319991,-0.116013,9.037417,2.355404,0.297777,1,0,,38.990296,-76.940927,-9.448000,,,
2026-09-11T19:08:19.957,9.455806,0.703131,2.200302,6.510474,0.000000,-17.163403,5.904841,0.699401,0.032088,0.067554,-0.169946,2.132406,-0.371817,0.095362,0.014705,0.069037,0.695880,-0.229083,9.909228,2.321103,0.255019,1,0,,38.990296,-76.940927,-9.448000,,,
2026-09-11T19:08:19.990,9.489207,0.703108,2.223259,6.510257,0.000000,-16.570828,5.700973,0.699630,0.025498,0.053681,-0.167922,2.155600,-0.374797,0.114800,0.007116,0.055164,1.832176,0.034421,9.821458,2.356750,0.230431,1,0,,38.990296,-76.940927,-9.448000,,,
2026-09-11T19:08:20.023,9.522602,0.712852,2.246900,6.600482,0.000000,-15.590985,5.363871,0.709731,0.016886,0.035550,-0.166432,2.178923,-0.378015,0.104055,0.005884,0.037033,1.744505,0.260955,9.771052,2.380507,0.221575,1,0,,38.990296,-76.940927,-9.448000,,,
2026-09-11T19:08:20.057,9.556046,0.732272,2.271247,6.780295,0.000000,-15.045102,5.176067,0.729286,0.023899,0.050315,-0.164996,2.202768,-0.381311,0.098359,-0.003777,0.051798,2.859129,0.530148,9.817437,2.468868,0.229504,1,0,,38.990296,-76.940927,-9.448000,,,
2026-09-11T19:08:20.091,9.589459,0.771279,2.297177,7.141473,0.000000,-14.883740,5.120553,0.768201,0.023132,0.048699,-0.163342,2.227578,-0.384624,0.095135,0.070461,0.050183,2.670449,0.502002,11.824270,2.534875,0.235469,1,0,,38.990296,-76.940927,-9.448000,,,
2026-09-11T19:08:20.123,9.622864,0.810142,2.324087,7.501317,0.000000,-14.837048,5.104489,0.806929,0.035996,0.075780,-0.161263,2.253701,-0.387900,0.048980,0.003772,0.077264,1.286927,-0.216825,6.414726,2.503102,0.193308,1,0,,38.990296,-76.940927,-9.448000,,,
2026-09-11T19:08:20.157,9.656264,0.849375,2.352661,7.864582,0.000000,-15.235303,5.241503,0.845823,0.031705,0.066747,-0.158882,2.281130,-0.391183,0.027161,-0.009759,0.068231,2.871387,1.591129,10.989136,2.567944,0.268918,1,0,,38.990296,-76.940927,-9.448000,,,
2026-09-11T19:08:20.191,9.689668,0.888456,2.382066,8.226440,0.000000,-15.139859,5.208667,0.884787,0.034974,0.073630,-0.156538,2.309850,-0.394622,-0.025154,0.030001,0.075114,2.582581,0.195152,9.711330,2.607006,0.252791,1,0,,38.990296,-76.940927,-9.448000,,,
2026-09-11T19:08:20.225,9.723090,0.917691,2.413465,8.497136,0.000000,-14.662641,5.044486,0.914136,0.030890,0.065031,-0.154221,2.339720,-0.398186,-0.077785,0.022423,0.066514,2.771850,1.223870,10.212645,2.654191,0.303817,1,0,,38.990296,-76.940927,-9.448000,,,
2026-09-11T19:08:20.257,9.756505,0.976400,2.446368,9.040745,0.000000,-13.448651,4.626830,0.973219,0.028824,0.060683,-0.152120,2.371036,-0.402010,-0.112522,0.039835,0.062166,1.750095,1.464035,10.345035,2.638024,0.369845,1,0,,38.990296,-76.940927,-9.448000,,,
2026-09-11T19:08:20.290,9.789910,1.005683,2.479635,9.311881,0.000000,-11.630414,4.001289,1.003232,0.022572,0.047521,-0.150313,2.403801,-0.406134,-0.134925,0.005149,0.049004,2.183451,0.358041,10.465559,2.657044,0.364273,1,0,,38.990296,-76.940927,-9.448000,,,
2026-09-11T19:08:20.324,9.823316,1.044930,2.514498,9.675276,0.000000,-10.743268,3.696078,1.042756,0.021175,0.044580,-0.148775,2.437702,-0.410502,-0.157585,0.010336,0.046063,2.197278,1.941619,8.786072,2.687286,0.461344,1,0,,38.990296,-76.940927,-9.448000,,,
2026-09-11T19:08:20.358,9.856722,1.064559,2.550386,9.857027,0.000000,-10.314801,3.548670,1.062518,0.028333,0.059647,-0.147034,2.472605,-0.414866,-0.156681,0.041444,0.061131,2.137654,0.549270,9.487542,2.723380,0.466121,1,0,,38.990296,-76.940927,-9.448000,,,
2026-09-11T19:08:20.392,9.890137,1.094081,2.587117,10.130380,0.000000,-10.511868,3.616468,1.091902,0.033435,0.070390,-0.144861,2.508367,-0.419079,-0.155789,0.055931,0.071874,1.788635,-0.452283,9.756930,2.740242,0.405123,1,0,,38.990296,-76.940927,-9.448000,,,
2026-09-11T19:08:20.425,9.923560,1.123342,2.624987,10.401316,0.000000,-10.576413,3.638674,1.121078,0.036199,0.076209,-0.142411,2.545135,-0.423221,-0.078458,-0.015460,0.077693,1.238972,0.953010,11.025813,2.727714,0.435244,1,0,,38.990296,-76.940927,-9.448000,,,
2026-09-11T19:08:20.457,9.956963,1.143252,2.662994,10.585668,0.000000,-10.649197,3.663715,1.140916,0.041520,0.087410,-0.139679,2.582721,-0.427246,-0.016134,0.001478,0.088894,1.717341,-1.297224,6.592913,2.751418,0.318444,1,0,,38.990296,-76.940927,-9.448000,,,
2026-09-11T19:08:20.491,9.990364,1.163253,2.701536,10.770864,0.000000,-10.742581,3.695842,1.160834,0.037226,0.078371,-0.136910,2.620976,-0.431242,0.118070,-0.053651,0.079854,0.295180,0.836801,9.933548,2.688434,0.341624,1,0,,38.990296,-76.940927,-9.448000,,,
2026-09-11T19:08:20.525,10.023772,1.095725,2.738153,10.145598,0.000000,-10.664990,3.669148,1.093479,0.027721,0.058361,-0.134626,2.658432,-0.435265,0.212400,0.014465,0.059845,0.262622,0.858180,11.683545,2.631673,0.367694,1,0,,38.990296,-76.940927,-9.448000,,,
2026-09-11T19:08:20.559,10.057182,1.086590,2.774896,10.061017,0.000000,-5.319454,1.830088,1.086036,-0.000350,-0.000737,-0.133663,2.694575,-0.439682,0.241705,-0.005269,0.000747,-0.970172,-1.004299,10.129191,2.502720,0.277094,1,0,,38.990296,-76.940927,-9.448000,,,
2026-09-11T19:08:20.591,10.090597,0.989947,2.807559,9.166173,0.000000,-1.558010,0.536013,0.989903,-0.015633,-0.032912,-0.134225,2.728912,-0.444578,0.225368,0.033264,-0.031428,0.156612,-2.189433,10.000626,2.454941,0.112825,1,0,,38.990296,-76.940927,-9.448000,,,
2026-09-11T19:08:20.624,10.124026,1.009853,2.841089,9.350488,0.000000,7.458332,-2.565940,1.008840,-0.027573,-0.058049,-0.135746,2.761919,-0.449790,0.155641,0.001908,-0.056566,1.081968,-1.017440,10.635214,2.470491,0.027902,1,0,,38.990296,-76.940927,-9.448000,,,
2026-09-11T19:08:20.657,10.157426,1.009990,2.874288,9.351755,0.000000,11.338568,-3.900883,1.007650,-0.058619,-0.123408,-0.138776,2.795080,-0.455823,0.100715,0.007098,-0.121924,1.211121,-0.419332,9.528435,2.497196,-0.013049,1,0,,38.990296,-76.940927,-9.448000,,,
2026-09-11T19:08:20.692,10.190843,0.990566,2.907499,9.171908,0.000000,17.773809,-6.114843,0.984930,-0.073501,-0.154739,-0.143424,2.827732,-0.462690,0.042980,0.012076,-0.153255,0.486998,-1.323604,9.603849,2.477394,-0.110287,1,0,,38.990296,-76.940927,-9.448000,,,
2026-09-11T19:08:20.725,10.224265,1.010017,2.941518,9.352013,0.000000,23.444815,-8.065877,1.000026,-0.080631,-0.169750,-0.148846,2.860172,-0.470069,0.020248,-0.009189,-0.168267,0.597127,-0.232712,10.376711,2.463559,-0.134710,1,0,,38.990296,-76.940927,-9.448000,,,
2026-09-11T19:08:20.758,10.257669,0.990568,2.974068,9.171929,0.000000,26.595144,-9.149706,0.977965,-0.096704,-0.203588,-0.155082,2.892379,-0.477996,-0.011539,0.012677,-0.202105,0.851021,0.185934,9.821556,2.459941,-0.129863,1,0,,38.990296,-76.940927,-9.448000,,,
2026-09-11T19:08:20.792,10.291075,0.990649,3.007050,9.172679,0.000000,32.868337,-11.307914,0.971418,-0.098779,-0.207956,-0.161956,2.924016,-0.486360,-0.044043,-0.027055,-0.206472,1.415884,0.235065,10.622269,2.484933,-0.121701,1,0,,38.990296,-76.940927,-9.448000,,,
2026-09-11T19:08:20.827,10.324496,0.951820,3.039224,8.813148,0.000000,33.427956,-11.500444,0.932710,-0.101057,-0.212751,-0.168986,2.954851,-0.494893,-0.088541,-0.025391,-0.211268,1.094814,-2.994755,9.067131,2.476151,-0.322941,1,0,,38.990296,-76.940927,-9.448000,,,
2026-09-11T19:08:20.859,10.357903,0.952008,3.071193,8.814885,0.000000,33.587945,-11.555486,0.932711,-0.102429,-0.215640,-0.176142,2.984963,-0.503591,0.021966,-0.057248,-0.214156,0.627135,4.434371,9.411148,2.427240,-0.040969,1,1,10.341594,38.990299,-76.940937,-9.402000,-2.692043,0.882517,3.275680
2026-09-11T19:08:20.891,10.391308,0.961906,3.103275,8.906541,0.000000,33.113473,-11.392250,0.942955,-0.075780,-0.159537,-0.182408,3.015259,-0.512107,0.033129,0.007953,-0.158054,0.499060,-1.927889,10.297767,2.368043,-0.177085,1,0,,38.990299,-76.940937,-9.402000,,,
2026-09-11T19:08:20.926,10.424720,0.962183,3.135632,8.909104,0.000000,30.472634,-10.483704,0.946121,-0.073558,-0.154858,-0.187660,3.045821,-0.520366,-0.046708,0.018420,-0.153375,1.977707,-2.239054,11.484862,2.399423,-0.332108,1,0,,38.990299,-76.940937,-9.402000,,,
2026-09-11T19:08:20.960,10.458129,0.991711,3.168819,9.182511,0.000000,28.253396,-9.720205,0.977474,-0.072112,-0.151814,-0.192783,3.076913,-0.528832,-0.044585,-0.008616,-0.150331,2.170604,1.416374,10.525968,2.439229,-0.248736,1,0,,38.990299,-76.940937,-9.402000,,,
2026-09-11T19:08:20.992,10.491545,1.020941,3.202953,9.453154,0.000000,26.698830,-9.185377,1.007849,-0.062576,-0.131740,-0.197521,3.109018,-0.537473,-0.062929,-0.062671,-0.130256,3.163920,0.481703,6.403154,2.544006,-0.227774,1,0,,38.990299,-76.940937,-9.402000,,,
2026-09-11T19:08:21.025,10.524948,1.040558,3.237633,9.634798,0.000000,24.021599,-8.264312,1.029752,-0.058578,-0.123322,-0.201781,3.141971,-0.546206,-0.044441,0.021628,-0.121838,2.179136,0.060899,7.253685,2.583429,-0.234651,1,0,,38.990299,-76.940937,-9.402000,,,
2026-09-11T19:08:21.059,10.558350,1.069819,3.273486,9.905733,0.000000,23.321908,-8.023592,1.059346,-0.061726,-0.129950,-0.206011,3.175732,-0.555240,-0.034776,0.013285,-0.128466,2.256118,0.750993,9.750556,2.623802,-0.196114,1,0,,38.990299,-76.940937,-9.402000,,,
2026-09-11T19:08:21.093,10.591764,1.128407,3.311539,10.448208,0.000000,20.424264,-7.026696,1.119931,-0.054701,-0.115160,-0.210106,3.210954,-0.564666,-0.048291,-0.003866,-0.113676,1.791283,1.247504,10.318361,2.630291,-0.126418,1,0,,38.990299,-76.940937,-9.402000,,,
2026-09-11T19:08:21.125,10.625174,1.138455,3.349432,10.541254,0.000000,16.627114,-5.720337,1.132786,-0.039252,-0.082636,-0.213410,3.247414,-0.574110,-0.045213,0.005749,-0.081152,2.475983,1.478451,9.203835,2.680063,-0.044841,1,0,,38.990299,-76.940937,-9.402000,,,
2026-09-11T19:08:21.159,10.658573,1.178060,3.389205,10.907963,0.000000,9.344552,-3.214869,1.176206,-0.025024,-0.052682,-0.215669,3.284862,-0.583369,-0.072111,-0.016768,-0.051199,1.736071,0.835429,8.158152,2.680044,-0.007840,1,0,,38.990299,-76.940937,-9.402000,,,
2026-09-11T19:08:21.193,10.691981,1.207784,3.429866,11.183184,0.000000,7.967827,-2.741225,1.206402,-0.014519,-0.030566,-0.217060,3.323591,-0.592558,-0.029720,-0.027918,-0.029083,1.489630,2.494027,11.923710,2.664329,0.134483,1,0,,38.990299,-76.940937,-9.402000,,,
2026-09-11T19:08:21.227,10.725404,1.227692,3.470539,11.367519,0.000000,6.159203,-2.118992,1.226853,-0.006183,-0.013017,-0.217788,3.363222,-0.601668,-0.022162,-0.053589,-0.011534,1.280258,0.593204,9.877945,2.635383,0.150864,1,0,,38.990299,-76.940937,-9.402000,,,
2026-09-11T19:08:21.260,10.758817,1.189114,3.510278,11.010316,0.000000,5.114129,-1.759448,1.188554,0.001783,0.003753,-0.217943,3.402606,-0.610462,-0.031520,-0.038841,0.005237,0.529265,0.716768,9.756636,2.556218,0.173736,1,0,,38.990299,-76.940937,-9.402000,,,
2026-09-11T19:08:21.292,10.792222,1.199280,3.550438,11.104443,0.000000,4.430230,-1.524162,1.198855,0.002777,0.005846,-0.217783,3.441555,-0.619006,0.018382,-0.021125,0.007329,1.173170,-0.407466,9.293958,2.522648,0.123427,1,0,,38.990299,-76.940937,-9.402000,,,
2026-09-11T19:08:21.326,10.825628,1.199624,3.590416,11.107630,0.000000,4.058755,-1.396361,1.199268,0.002869,0.006039,-0.217584,3.480686,-0.627565,0.032809,-0.033199,0.007523,2.136869,0.832585,9.964733,2.561344,0.153912,1,0,,38.990299,-76.940937,-9.402000,,,
2026-09-11T19:08:21.360,10.859027,1.209244,3.630896,11.196706,0.000000,3.413994,-1.174539,1.208990,0.004472,0.009415,-0.217326,3.519982,-0.636122,0.013192,-0.074248,0.010899,1.853947,0.701568,8.508054,2.588806,0.175309,1,0,,38.990299,-76.940937,-9.402000,,,
2026-09-11T19:08:21.394,10.892445,1.228605,3.672400,11.375969,0.000000,1.983025,-0.682233,1.228518,0.003920,0.008253,-0.217031,3.559784,-0.644761,0.001265,0.003123,0.009737,1.854830,-0.059821,9.034867,2.623062,0.147267,1,0,,38.990299,-76.940937,-9.402000,,,
2026-09-11T19:08:21.429,10.925868,1.238489,3.713939,11.467495,0.000000,-0.504691,0.173632,1.238484,0.015956,0.033591,-0.216332,3.600118,-0.653300,-0.046069,-0.005472,0.035075,1.767747,-0.590556,8.191005,2.657869,0.083130,1,0,,38.990299,-76.940937,-9.402000,,,
2026-09-11T19:08:21.460,10.959287,1.258093,3.755797,11.649009,0.000000,-3.902900,1.342741,1.257747,0.028273,0.059522,-0.214776,3.641022,-0.661499,-0.103287,0.016103,0.061005,1.394211,1.023618,10.087905,2.675496,0.122064,1,0,,38.990299,-76.940937,-9.402000,,,
2026-09-11T19:08:21.493,10.992690,1.297239,3.798760,12.011470,0.000000,-5.597541,1.925760,1.296506,0.038530,0.081116,-0.212427,3.682948,-0.669451,-0.179540,-0.034467,0.082600,1.770689,1.001357,10.352684,2.720337,0.157146,1,0,,38.990299,-76.940937,-9.402000,,,
2026-09-11T19:08:21.526,11.026096,1.336256,3.843021,12.372739,0.000000,-7.089622,2.439090,1.335045,0.045719,0.096250,-0.209464,3.726224,-0.677277,-0.226749,-0.261883,0.097734,2.096171,0.406976,21.857062,2.783616,0.151865,1,0,,38.990299,-76.940937,-9.402000,,,
2026-09-11T19:08:21.561,11.059500,1.307313,3.886941,12.104751,0.000000,-9.048622,3.113058,1.305384,0.050425,0.106157,-0.206084,3.769707,-0.684804,-0.163428,-0.011933,0.107641,3.396631,0.898485,15.009470,2.933901,0.177800,1,0,,38.990299,-76.940937,-9.402000,,,
2026-09-11T19:08:21.593,11.092904,1.288129,3.929836,11.927121,0.000000,-12.566998,4.323509,1.284463,0.064891,0.136613,-0.202029,3.812455,-0.691684,-0.061039,0.002195,0.138096,-0.174166,-0.626253,6.208198,2.852408,0.102387,1,0,,38.990299,-76.940937,-9.402000,,,
2026-09-11T19:08:21.627,11.126307,1.269125,3.972685,11.751155,0.000000,-18.212598,6.265802,1.261543,0.080065,0.168558,-0.196932,3.854612,-0.697738,0.069991,0.015780,0.170042,-0.100714,1.981728,9.645625,2.778544,0.194175,1,0,,38.990299,-76.940937,-9.402000,,,
2026-09-11T19:08:21.660,11.159710,1.240396,4.013836,11.485146,0.000000,-18.465970,6.352971,1.232779,0.082434,0.173545,-0.191219,3.896012,-0.703111,0.123414,0.006968,0.175028,0.685485,-0.282922,8.574248,2.759898,0.138309,1,0,,38.990299,-76.940937,-9.402000,,,
2026-09-11T19:08:21.694,11.193118,1.240955,4.055375,11.490328,0.000000,-18.084195,6.221627,1.233646,0.069260,0.145810,-0.185884,3.936957,-0.708344,0.126759,-0.014995,0.147294,0.325287,0.272821,7.694592,2.721199,0.121229,1,0,,38.990299,-76.940937,-9.402000,,,
2026-09-11T19:08:21.729,11.226541,1.173587,4.094350,10.866546,0.000000,-17.154477,5.901770,1.167367,0.045350,0.095474,-0.181852,3.976755,-0.713799,0.117753,0.000491,0.096957,0.625076,0.574768,9.903834,2.705663,0.128313,1,0,,38.990299,-76.940937,-9.402000,,,
2026-09-11T19:08:21.761,11.259948,1.174295,4.133964,10.873104,0.000000,-12.148145,4.179408,1.171172,0.025312,0.053288,-0.179367,4.015394,-0.719655,0.093482,-0.016244,0.054771,0.823366,-0.137293,10.792219,2.706991,0.092404,1,0,,38.990299,-76.940937,-9.402000,,,
2026-09-11T19:08:21.793,11.293353,1.174756,4.172552,10.877372,0.000000,-3.941357,1.355971,1.174427,0.009445,0.019884,-0.178145,4.054050,-0.726050,0.047071,0.023384,0.021367,1.192587,-2.137850,10.961579,2.729099,-0.070032,1,0,,38.990299,-76.940937,-9.402000,,,
2026-09-11T19:08:21.827,11.326759,1.136238,4.210912,10.520718,0.000000,-0.565807,0.194658,1.136231,-0.012147,-0.025573,-0.178240,4.092026,-0.732935,0.046010,0.058675,-0.024089,0.660870,-2.486966,6.308128,2.706688,-0.249860,1,0,,38.990299,-76.940937,-9.402000,,,
2026-09-11T19:08:21.862,11.360159,1.146660,4.249534,10.617225,0.000000,7.522877,-2.588146,1.145491,-0.018994,-0.039987,-0.179335,4.129431,-0.740223,0.100074,0.018665,-0.038504,-0.116405,-1.540134,7.886802,2.627247,-0.365317,1,1,11.332044,38.990302,-76.940949,-9.302000,-3.749184,1.228704,2.761609
2026-09-11T19:08:21.895,11.393576,1.137404,4.287963,10.531521,0.000000,8.687428,-2.988794,1.135857,-0.026310,-0.055389,-0.180928,4.166796,-0.747797,0.099433,-0.003147,-0.053905,1.414511,-1.475509,10.100555,2.642476,-0.474256,1,0,,38.990302,-76.940949,-9.302000,,,
2026-09-11T19:08:21.927,11.426984,1.127662,4.325092,10.441316,0.000000,8.955906,-3.081160,1.126032,-0.039672,-0.083520,-0.183249,4.203754,-0.755722,0.095834,0.021989,-0.082037,1.269275,0.265564,8.751062,2.643722,-0.467294,1,0,,38.990302,-76.940949,-9.302000,,,
2026-09-11T19:08:21.961,11.460383,1.117857,4.362324,10.350524,0.000000,10.437001,-3.590711,1.115662,-0.042085,-0.088600,-0.186123,4.240302,-0.763939,0.095659,0.040458,-0.087117,0.853865,-0.352451,8.200811,2.611134,-0.500076,1,0,,38.990302,-76.940949,-9.302000,,,
2026-09-11T19:08:21.996,11.493801,1.137300,4.401038,10.530555,0.000000,11.351614,-3.905372,1.134659,-0.046152,-0.097161,-0.189227,4.276967,-0.772403,0.061062,0.043215,-0.095678,2.051355,-0.305967,9.954829,2.652762,-0.528766,1,0,,38.990302,-76.940949,-9.302000,,,
2026-09-11T19:08:22.029,11.527220,1.137733,4.438988,10.534565,0.000000,11.381826,-3.915766,1.135077,-0.044814,-0.094345,-0.192427,4.313916,-0.781089,0.018685,0.014822,-0.092861,2.626221,0.584476,10.645413,2.731685,-0.499714,1,0,,38.990302,-76.940949,-9.302000,,,
2026-09-11T19:08:22.063,11.560636,1.196247,4.479592,11.076360,0.000000,11.040563,-3.798359,1.193619,-0.039180,-0.082485,-0.195381,4.351824,-0.789965,0.005780,0.064867,-0.081001,2.673783,0.880049,8.785974,2.807270,-0.452416,1,0,,38.990302,-76.940949,-9.302000,,,
2026-09-11T19:08:22.095,11.594051,1.235317,4.520687,11.438125,0.000000,10.641622,-3.661109,1.232796,-0.037366,-0.078666,-0.198074,4.391332,-0.799144,-0.006383,0.011947,-0.077183,2.423812,-0.564863,10.484290,2.859326,-0.499246,1,0,,38.990302,-76.940949,-9.302000,,,
2026-09-11T19:08:22.128,11.627457,1.254850,4.562716,11.618979,0.000000,10.353231,-3.561891,1.252426,-0.060893,-0.128196,-0.201529,4.431690,-0.808991,-0.125748,0.027745,-0.126713,3.208344,5.756896,11.740325,2.959920,-0.132405,1,0,,38.990302,-76.940949,-9.302000,,,
2026-09-11T19:08:22.161,11.660863,1.274653,4.605815,11.802344,0.000000,10.693807,-3.679062,1.272026,-0.047442,-0.099877,-0.205338,4.472621,-0.819283,-0.229761,0.028033,-0.098394,0.367847,0.525342,9.387710,2.872987,-0.110283,1,0,,38.990302,-76.940949,-9.302000,,,
2026-09-11T19:08:22.196,11.694277,1.294474,4.649541,11.985872,0.000000,11.355734,-3.906789,1.291466,-0.054239,-0.114187,-0.208915,4.514184,-0.829754,-0.251038,-0.003695,-0.112703,1.757646,3.166371,10.217451,2.874998,0.083872,1,0,,38.990302,-76.940949,-9.302000,,,
2026-09-11T19:08:22.230,11.727700,1.314092,4.693974,12.167516,0.000000,11.587820,-3.986635,1.310912,-0.049166,-0.103507,-0.212553,4.556351,-0.840541,-0.194150,0.010912,-0.102024,2.411553,-1.372833,10.396912,2.920187,-0.018731,1,0,,38.990302,-76.940949,-9.302000,,,
2026-09-11T19:08:22.263,11.761115,1.295564,4.737689,11.995960,0.000000,10.976019,-3.776153,1.292751,-0.047468,-0.099932,-0.215952,4.598513,-0.851367,-0.146009,0.138823,-0.098449,-2.134810,0.479937,17.114566,2.670459,-0.000662,1,0,,38.990302,-76.940949,-9.302000,,,
2026-09-11T19:08:22.295,11.794517,1.315709,4.780766,12.182492,0.000000,9.736624,-3.349756,1.313461,-0.035111,-0.073918,-0.218855,4.640718,-0.862103,-0.084393,-0.067816,-0.072434,1.194842,1.891605,6.166225,2.648045,0.106471,1,0,,38.990302,-76.940949,-9.302000,,,
2026-09-11T19:08:22.328,11.827923,1.345514,4.825301,12.458463,0.000000,9.167394,-3.153920,1.343476,-0.024268,-0.051091,-0.220943,4.683811,-0.872752,-0.066318,-0.013377,-0.049607,1.881112,0.445712,9.760755,2.683166,0.117017,1,0,,38.990302,-76.940949,-9.302000,,,
2026-09-11T19:08:22.364,11.861329,1.384769,4.871921,12.821932,0.000000,8.358526,-2.875640,1.383025,-0.009011,-0.018971,-0.222114,4.728117,-0.883301,-0.072541,-0.006394,-0.017488,1.007339,-1.112270,7.086580,2.669797,0.023877,1,0,,38.990302,-76.940949,-9.302000,,,
2026-09-11T19:08:22.395,11.894744,1.375602,4.917390,12.737055,0.000000,8.384619,-2.884616,1.373859,-0.020347,-0.042837,-0.223146,4.772933,-0.893949,-0.087706,-0.046661,-0.041353,0.714218,0.724417,9.357309,2.643863,0.052749,1,0,,38.990302,-76.940949,-9.302000,,,
2026-09-11T19:08:22.429,11.928152,1.385584,4.963748,12.829481,0.000000,8.358526,-2.875640,1.383839,-0.024311,-0.051181,-0.224717,4.817682,-0.904906,-0.053003,-0.021737,-0.049697,1.803443,1.519639,11.610878,2.693163,0.133538,1,0,,38.990302,-76.940949,-9.302000,,,
2026-09-11T19:08:22.462,11.961551,1.395386,5.009833,12.920240,0.000000,8.500662,-2.924540,1.393569,-0.032921,-0.069308,-0.226729,4.862672,-0.916218,-0.026464,-0.049459,-0.067824,1.424220,0.561725,11.676778,2.721282,0.153097,1,0,,38.990302,-76.940949,-9.302000,,,
2026-09-11T19:08:22.496,11.994953,1.385484,5.056419,12.828551,0.000000,8.364706,-2.877766,1.383736,-0.024178,-0.050902,-0.228736,4.907644,-0.927619,0.013576,0.022478,-0.049418,0.408251,-0.773941,10.185285,2.683306,0.084318,1,0,,38.990302,-76.940949,-9.302000,,,
2026-09-11T19:08:22.530,12.028374,1.385826,5.102617,12.831719,0.000000,8.325567,-2.864301,1.384094,-0.017102,-0.036005,-0.230189,4.952525,-0.938811,0.097008,-0.063778,-0.034521,-0.214962,-1.138454,8.803626,2.606033,-0.008666,1,0,,38.990302,-76.940949,-9.302000,,,
2026-09-11T19:08:22.563,12.061781,1.327913,5.147164,12.295487,0.000000,7.945165,-2.733428,1.326402,-0.023507,-0.049488,-0.231617,4.996444,-0.949832,0.103725,0.010022,-0.048005,-0.300868,0.172107,9.323182,2.529855,-0.014746,1,0,,38.990302,-76.940949,-9.302000,,,
2026-09-11T19:08:22.596,12.095187,1.289579,5.189306,11.940551,0.000000,8.100347,-2.786817,1.288054,-0.027749,-0.058420,-0.233419,5.038740,-0.960727,0.179138,-0.011306,-0.056936,0.614190,0.211726,12.419926,2.519889,-0.017572,1,0,,38.990302,-76.940949,-9.302000,,,
2026-09-11T19:08:22.629,12.128592,1.251250,5.230959,11.585651,0.000000,8.353033,-2.873750,1.249677,-0.033561,-0.070654,-0.235575,5.079730,-0.971571,0.119179,-0.004702,-0.069170,-0.053937,0.004119,9.077918,2.466599,-0.032957,1,0,,38.990302,-76.940949,-9.302000,,,
2026-09-11T19:08:22.664,12.161996,1.232090,5.272236,11.408238,0.000000,11.664038,-4.012857,1.229069,-0.054835,-0.115443,-0.238683,5.119623,-0.982731,0.076256,-0.027247,-0.113959,0.170538,-0.995963,8.720662,2.422904,-0.109414,1,0,,38.990302,-76.940949,-9.302000,,,
2026-09-11T19:08:22.697,12.195416,1.232570,5.313399,11.412686,0.000000,15.484533,-5.327248,1.227246,-0.066196,-0.139361,-0.242941,5.159001,-0.994484,0.096192,-0.051910,-0.137877,0.968407,-0.672050,8.751749,2.425982,-0.162204,1,0,,38.990302,-76.940949,-9.302000,,,
2026-09-11T19:08:22.730,12.228836,1.213224,5.353855,11.233552,0.000000,18.999472,-6.536515,1.205337,-0.081751,-0.172108,-0.248146,5.197830,-1.006762,0.070201,-0.056442,-0.170624,1.114624,-0.024320,9.655039,2.433301,-0.170120,1,0,,38.990302,-76.940949,-9.302000,,,
2026-09-11T19:08:22.763,12.262240,1.232905,5.394733,11.415783,0.000000,21.550360,-7.414115,1.222597,-0.079989,-0.168398,-0.253833,5.236438,-1.019450,0.084784,-0.060430,-0.166914,2.003204,1.866009,18.640088,2.494163,-0.055736,1,0,,38.990302,-76.940949,-9.302000,,,
2026-09-11T19:08:22.796,12.295644,1.204314,5.434540,11.151058,0.000000,21.825704,-7.508843,1.193987,-0.084244,-0.177355,-0.259607,5.274782,-1.032351,0.069598,0.056006,-0.175872,0.330288,-0.372359,2.363893,2.438628,-0.087070,1,0,,38.990302,-76.940949,-9.302000,,,
2026-09-11T19:08:22.830,12.329050,1.194930,5.474393,11.064167,0.000000,22.339315,-7.685544,1.184196,-0.082797,-0.174310,-0.265481,5.312418,-1.045354,-0.001903,0.030526,-0.172827,1.348316,-1.027149,10.597949,2.443436,-0.160771,1,0,,38.990302,-76.940949,-9.302000,,,
2026-09-11T19:08:22.865,12.362458,1.185587,5.514861,10.977660,0.000000,22.639379,-7.788777,1.174649,-0.093136,-0.196075,-0.271668,5.349628,-1.058642,-0.026727,0.041610,-0.194592,1.773238,0.763644,6.991455,2.472082,-0.116229,1,0,,38.990302,-76.940949,-9.302000,,,
2026-09-11T19:08:22.898,12.395870,1.225202,5.556080,11.344459,0.000000,22.953176,-7.896735,1.213583,-0.088510,-0.186338,-0.278057,5.387204,-1.072394,-0.076781,0.048754,-0.184854,1.914160,-1.072357,8.162565,2.508813,-0.191271,1,1,12.387681,38.990306,-76.940962,-9.214000,-4.880219,1.692757,3.642088
2026-09-11T19:08:22.930,12.429278,1.274250,5.598553,11.798613,0.000000,23.222341,-7.989338,1.261882,-0.082545,-0.173780,-0.284072,5.426139,-1.086611,-0.105367,0.037939,-0.172296,3.595314,0.068941,9.277581,2.655580,-0.192061,1,0,,38.990306,-76.940962,-9.214000,,,
2026-09-11T19:08:22.963,12.462682,1.332842,5.642621,12.341125,0.000000,22.929144,-7.888467,1.320229,-0.082413,-0.173502,-0.289872,5.466720,-1.101463,-0.099336,0.022030,-0.172018,2.498931,1.263489,10.827130,2.729007,-0.114921,1,0,,38.990306,-76.940962,-9.214000,,,
2026-09-11T19:08:22.999,12.496089,1.352629,5.688433,12.524343,0.000000,20.311651,-6.987953,1.342581,-0.061488,-0.129448,-0.294933,5.508618,-1.116587,-0.074249,0.047773,-0.127964,1.666248,2.071066,10.654533,2.748646,0.010063,1,0,,38.990306,-76.940962,-9.214000,,,
2026-09-11T19:08:23.031,12.529506,1.381696,5.734415,12.793486,0.000000,15.501013,-5.332917,1.375716,-0.045455,-0.095695,-0.298695,5.551528,-1.131580,-0.035782,0.018307,-0.094211,1.851986,0.218198,10.073685,2.779195,0.011031,1,0,,38.990306,-76.940962,-9.214000,,,
2026-09-11T19:08:23.064,12.562914,1.391340,5.780830,12.882778,0.000000,6.763449,-2.326875,1.390193,-0.034900,-0.073474,-0.301520,5.595269,-1.146522,-0.032303,0.064495,-0.071990,0.328719,-0.028047,7.895040,2.708456,-0.005858,1,0,,38.990306,-76.940962,-9.214000,,,
2026-09-11T19:08:23.097,12.596321,1.381797,5.827074,12.794420,0.000000,7.342291,-2.526017,1.380455,-0.011068,-0.023301,-0.303137,5.639221,-1.161034,-0.071438,-0.007948,-0.021817,0.868281,3.217562,7.068437,2.673093,0.182959,1,0,,38.990306,-76.940962,-9.214000,,,
2026-09-11T19:08:23.130,12.629797,1.372496,5.872349,12.708295,0.000000,5.959387,-2.050248,1.371617,-0.009174,-0.019313,-0.303850,5.683079,-1.175124,-0.059996,0.005824,-0.017830,0.864358,4.959419,9.767031,2.639691,0.482717,1,0,,38.990306,-76.940962,-9.214000,,,
2026-09-11T19:08:23.165,12.663207,1.333872,5.917033,12.350668,0.000000,4.180288,-1.438173,1.333452,-0.011709,-0.024650,-0.304585,5.726087,-1.188992,-0.101946,-0.025175,-0.023166,0.598892,2.750863,10.014845,2.600634,0.636028,1,0,,38.990306,-76.940962,-9.214000,,,
2026-09-11T19:08:23.198,12.696629,1.334507,5.962365,12.356546,0.000000,-1.472178,0.506483,1.334455,0.016987,0.035762,-0.304399,5.768646,-1.202274,-0.187830,-0.007826,0.037246,0.888581,3.078798,12.029622,2.594585,0.803742,1,0,,38.990306,-76.940962,-9.214000,,,
2026-09-11T19:08:23.231,12.730053,1.315582,6.006000,12.181313,0.000000,-6.429072,2.211837,1.314602,0.043098,0.090733,-0.302285,5.811195,-1.214541,-0.099881,-0.013089,0.092217,1.040878,3.370153,9.711918,2.606742,0.983873,1,0,,38.990306,-76.940962,-9.214000,,,
2026-09-11T19:08:23.264,12.763453,1.315944,6.050558,12.184664,0.000000,-15.035489,5.172760,1.310584,0.065292,0.137457,-0.298474,5.853608,-1.225783,-0.059314,-0.011773,0.138941,0.809735,0.681366,8.656722,2.607150,0.983856,1,0,,38.990306,-76.940962,-9.214000,,,
2026-09-11T19:08:23.298,12.796860,1.326281,6.094604,12.280383,0.000000,-18.213284,6.266038,1.318358,0.091837,0.193341,-0.292949,5.896377,-1.236069,-0.015138,0.028441,0.194824,1.365772,0.643610,9.632876,2.644722,0.976554,1,0,,38.990306,-76.940962,-9.214000,,,
2026-09-11T19:08:23.332,12.830278,1.307554,6.138968,12.106981,0.000000,-19.708112,6.780314,1.298409,0.106795,0.224833,-0.285961,5.939228,-1.245369,0.010445,0.109504,0.226316,1.667229,-4.179790,11.180072,2.698905,0.654500,1,0,,38.990306,-76.940962,-9.214000,,,
2026-09-11T19:08:23.365,12.863686,1.317611,6.182500,12.200103,0.000000,-20.146878,6.931265,1.307982,0.101622,0.213941,-0.278632,5.982013,-1.254152,0.021221,-0.034631,0.215424,1.774317,0.797967,11.874382,2.754210,0.659226,1,0,,38.990306,-76.940962,-9.214000,,,
2026-09-11T19:08:23.397,12.897094,1.308413,6.225383,12.114933,0.000000,-20.268414,6.973078,1.298735,0.094541,0.199034,-0.271734,6.024806,-1.262831,0.124289,-0.022281,0.200518,0.712159,-0.136018,6.874658,2.732300,0.604812,1,0,,38.990306,-76.940962,-9.214000,,,
2026-09-11T19:08:23.431,12.930500,1.231470,6.266250,11.402499,0.000000,-20.048001,6.897248,1.222558,0.094794,0.199565,-0.265076,6.066249,-1.270954,0.229141,0.036150,0.201049,-0.417371,0.055506,10.983939,2.629078,0.564342,1,0,,38.990306,-76.940962,-9.214000,,,
2026-09-11T19:08:23.465,12.963900,1.203018,6.307094,11.139055,0.000000,-19.981397,6.874334,1.194370,0.075461,0.158866,-0.259090,6.105971,-1.278667,0.238504,0.101216,0.160350,-1.647811,1.108446,11.521833,2.439433,0.595992,1,0,,38.990306,-76.940962,-9.214000,,,
2026-09-11T19:08:23.499,12.997318,1.184107,6.346650,10.963952,0.000000,-18.318341,6.302182,1.176951,0.068722,0.144677,-0.254018,6.144908,-1.286392,0.243014,0.034260,0.146161,2.354479,-1.305069,9.263852,2.504025,0.472267,1,0,,38.990306,-76.940962,-9.214000,,,
2026-09-11T19:08:23.532,13.030789,1.203713,6.386275,11.145487,0.000000,-17.735379,6.101621,1.196893,0.053900,0.113475,-0.249698,6.183894,-1.294304,0.197395,-0.008401,0.114958,1.501888,1.501202,8.509132,2.508158,0.533975,1,0,,38.990306,-76.940962,-9.214000,,,
2026-09-11T19:08:23.564,13.064191,1.213414,6.426652,11.235312,0.000000,-12.911694,4.442097,1.209769,0.030124,0.063420,-0.246744,6.223201,-1.302818,0.132342,0.006191,0.064903,1.687921,0.044620,9.589629,2.522210,0.504419,1,0,,38.990306,-76.940962,-9.214000,,,
2026-09-11T19:08:23.598,13.097595,1.242578,6.468373,11.505351,0.000000,-4.729626,1.627165,1.242077,0.011943,0.025144,-0.245264,6.263091,-1.312109,0.066252,0.026520,0.026628,2.001930,-1.991044,10.538913,2.557083,0.346367,1,0,,38.990306,-76.940962,-9.214000,,,
2026-09-11T19:08:23.632,13.131004,1.271947,6.510721,11.777291,0.000000,-0.367366,0.126388,1.271944,-0.005899,-0.012419,-0.245052,6.303855,-1.322204,0.050599,-0.015306,-0.010936,1.809719,0.181129,9.301608,2.579006,0.333711,1,0,,38.990306,-76.940962,-9.214000,,,
2026-09-11T19:08:23.666,13.164414,1.311014,6.554914,12.139019,0.000000,9.066456,-3.119194,1.309072,-0.029302,-0.061688,-0.246290,6.345532,-1.333260,-0.001686,-0.022592,-0.060205,2.326039,0.224278,9.847936,2.628594,0.328194,1,0,,38.990306,-76.940962,-9.214000,,,
2026-09-11T19:08:23.699,13.197839,1.359979,6.600554,12.592402,0.000000,9.643240,-3.317628,1.357700,-0.046406,-0.097697,-0.248953,6.388431,-1.345412,-0.036843,-0.024490,-0.096214,2.152167,1.242895,10.009452,2.661806,0.392066,1,0,,38.990306,-76.940962,-9.214000,,,
2026-09-11T19:08:23.732,13.231258,1.408933,6.648006,13.045676,0.000000,10.876455,-3.741900,1.405929,-0.055587,-0.117025,-0.252541,6.432743,-1.358523,-0.044940,-0.005418,-0.115542,3.844109,2.638773,9.644840,2.803754,0.547686,1,0,,38.990306,-76.940962,-9.214000,,,
2026-09-11T19:08:23.765,13.264659,1.467247,6.696050,13.585624,0.000000,10.802297,-3.716387,1.464162,-0.054085,-0.113863,-0.256397,6.478668,-1.372363,-0.087033,0.007172,-0.112380,1.858262,-0.284393,9.699169,2.817578,0.512440,1,0,,38.990306,-76.940962,-9.214000,,,
2026-09-11T19:08:23.798,13.298065,1.477247,6.745530,13.678213,0.000000,10.124578,-3.483226,1.474518,-0.043191,-0.090927,-0.259818,6.525713,-1.386463,-0.143876,0.074423,-0.089444,0.931338,2.018405,8.338889,2.775791,0.624542,1,0,,38.990306,-76.940962,-9.214000,,,
2026-09-11T19:08:23.833,13.331483,1.487332,6.795716,13.771590,0.000000,10.077200,-3.466927,1.484610,-0.037769,-0.079514,-0.262666,6.573131,-1.400541,-0.191579,-0.031921,-0.078031,0.641061,-1.516598,13.497677,2.721151,0.505471,1,0,,38.990306,-76.940962,-9.214000,,,
2026-09-11T19:08:23.865,13.364885,1.458613,6.844182,13.505672,0.000000,9.893865,-3.403853,1.456039,-0.045586,-0.095971,-0.265597,6.620175,-1.414705,-0.209312,-0.052310,-0.094487,1.762549,1.922888,7.553768,2.746730,0.611818,1,0,,38.990306,-76.940962,-9.214000,,,
2026-09-11T19:08:23.899,13.398290,1.488236,6.894140,13.779960,0.000000,9.615087,-3.307943,1.485756,-0.024112,-0.050763,-0.268047,6.667265,-1.428784,-0.230414,-0.058585,-0.049280,0.259582,-0.026282,11.347471,2.684070,0.586654,1,1,13.387180,38.990310,-76.940976,-9.108000,-6.048994,2.174602,3.077908
2026-09-11T19:08:23.933,13.431697,1.459863,6.942993,13.517251,0.000000,6.368627,-2.191042,1.458796,-0.014913,-0.031396,-0.269420,6.714511,-1.442471,-0.121715,0.114155,-0.029912,1.352337,-0.072961,12.505833,2.704299,0.556828,1,0,,38.990310,-76.940976,-9.108000,,,
2026-09-11T19:08:23.966,13.465106,1.451054,6.992347,13.435688,0.000000,-0.861063,0.296237,1.451035,0.020063,0.042238,-0.269239,6.761389,-1.455322,-0.081449,0.129296,0.043722,-0.545838,-0.319697,0.263603,2.607862,0.504423,1,0,,38.990310,-76.940976,-9.108000,,,
2026-09-11T19:08:23.999,13.498512,1.432143,7.039115,13.260585,0.000000,-7.303858,2.512795,1.430766,0.052130,0.109747,-0.266700,6.808125,-1.466905,-0.051075,0.030158,0.111230,0.629391,0.256738,9.002113,2.595081,0.483724,1,0,,38.990310,-76.940976,-9.108000,,,
2026-09-11T19:08:24.033,13.531919,1.413143,7.086681,13.084656,0.000000,-12.132352,4.173974,1.409395,0.066762,0.140552,-0.262519,6.854432,-1.477396,-0.032716,0.039747,0.142035,0.107971,1.838845,11.541545,2.552255,0.563015,1,0,,38.990310,-76.940976,-9.108000,,,
2026-09-11T19:08:24.067,13.565322,1.393961,7.133016,12.907043,0.000000,-15.557340,5.352296,1.387883,0.073158,0.154016,-0.257600,6.900180,-1.487151,-0.020727,0.015706,0.155500,0.635177,1.849338,9.367410,2.545670,0.641089,1,0,,38.990310,-76.940976,-9.108000,,,
2026-09-11T19:08:24.100,13.598740,1.374159,7.178907,12.723699,0.000000,-15.411084,5.301978,1.368280,0.064452,0.135688,-0.252759,6.945322,-1.496552,0.094062,0.017236,0.137171,0.413546,0.698920,9.009468,2.523577,0.645649,1,0,,38.990310,-76.940976,-9.108000,,,
2026-09-11T19:08:24.133,13.632163,1.355094,7.224411,12.547162,0.000000,-15.367139,5.286860,1.349329,0.049438,0.104079,-0.248752,6.989790,-1.505978,0.179258,0.027005,0.105563,-0.065999,0.870438,11.682662,2.469221,0.664199,1,0,,38.990310,-76.940976,-9.108000,,,
2026-09-11T19:08:24.166,13.665563,1.287466,7.266656,11.920980,0.000000,-14.820569,5.098820,1.282371,0.047080,0.099116,-0.245359,7.032798,-1.515165,0.244257,0.003758,0.100599,-0.388736,-0.538581,9.783114,2.390196,0.592189,1,0,,38.990310,-76.940976,-9.108000,,,
2026-09-11T19:08:24.200,13.698966,1.268754,7.309653,11.747724,0.000000,-11.826795,4.068851,1.265556,0.027230,0.057327,-0.242746,7.074391,-1.524243,0.188758,0.004026,0.058810,1.659285,1.877385,7.157187,2.437938,0.680900,1,0,,38.990310,-76.940976,-9.108000,,,
2026-09-11T19:08:24.234,13.732386,1.269292,7.352183,11.752705,0.000000,-5.918896,2.036317,1.268491,0.001003,0.002111,-0.241753,7.115613,-1.533943,0.112317,0.029877,0.003594,1.042153,0.483076,8.848246,2.441145,0.682891,1,0,,38.990310,-76.940976,-9.108000,,,
2026-09-11T19:08:24.268,13.765796,1.279197,7.395043,11.844414,0.000000,-1.301205,0.447662,1.279158,-0.003396,-0.007150,-0.241837,7.156924,-1.544173,0.055761,0.036432,-0.005666,1.744897,-0.068548,11.136432,2.487919,0.649907,1,0,,38.990310,-76.940976,-9.108000,,,
2026-09-11T19:08:24.299,13.799204,1.279478,7.436924,11.847015,0.000000,3.919362,-1.348404,1.279123,-0.024491,-0.051559,-0.242817,7.198296,-1.554879,-0.001041,0.041348,-0.050076,1.261527,-0.839155,9.912562,2.500515,0.571077,1,0,,38.990310,-76.940976,-9.108000,,,
2026-09-11T19:08:24.333,13.832611,1.279654,7.479693,11.848645,0.000000,9.761342,-3.358260,1.277456,-0.031157,-0.065594,-0.244774,7.239513,-1.566089,-0.028929,0.034874,-0.064110,1.534741,-0.136607,9.191969,2.526197,0.539763,1,0,,38.990310,-76.940976,-9.108000,,,
2026-09-11T19:08:24.366,13.866020,1.279984,7.523043,11.851705,0.000000,9.022511,-3.104075,1.278106,-0.033505,-0.070537,-0.247048,7.280655,-1.577529,-0.012989,0.077110,-0.069054,1.470998,0.814540,9.524611,2.541805,0.570786,1,0,,38.990310,-76.940976,-9.108000,,,
2026-09-11T19:08:24.402,13.899437,1.299954,7.567510,12.036607,0.000000,8.604344,-2.960210,1.298219,-0.033242,-0.069984,-0.249396,7.322108,-1.589186,-0.003327,0.018068,-0.068501,2.124120,1.165618,8.862074,2.592959,0.624255,1,0,,38.990310,-76.940976,-9.108000,,,
2026-09-11T19:08:24.433,13.932861,1.348929,7.612615,12.490081,0.000000,8.081120,-2.780202,1.347341,-0.018570,-0.039094,-0.251219,7.364729,-1.600978,0.001492,0.021913,-0.037611,2.063810,-0.797967,11.130646,2.632261,0.547479,1,0,,38.990310,-76.940976,-9.108000,,,
2026-09-11T19:08:24.467,13.966264,1.378710,7.658472,12.765835,0.000000,6.873997,-2.364907,1.377536,-0.006430,-0.013536,-0.252098,7.408701,-1.612715,-0.228965,-0.050207,-0.012053,0.699410,-3.644740,6.527012,2.580061,0.285154,1,0,,38.990310,-76.940976,-9.108000,,,
2026-09-11T19:08:24.500,13.999671,1.379428,7.704066,12.772483,0.000000,6.499775,-2.236161,1.378378,-0.006658,-0.014017,-0.252558,7.453222,-1.624419,-0.035702,0.069635,-0.012533,3.526275,5.635686,8.450587,2.715283,0.626503,1,0,,38.990310,-76.940976,-9.108000,,,
2026-09-11T19:08:24.534,14.033077,1.370224,7.749638,12.687259,0.000000,6.854771,-2.358293,1.369063,0.001500,0.003157,-0.252740,7.497634,-1.635974,-0.197286,0.006384,0.004640,1.160813,-6.952719,9.129991,2.698076,0.147672,1,0,,38.990310,-76.940976,-9.108000,,,
2026-09-11T19:08:24.569,14.066487,1.370665,7.795962,12.691344,0.000000,7.800282,-2.683583,1.369162,-0.020102,-0.042321,-0.253394,7.541840,-1.647727,-0.095834,0.072401,-0.040837,1.492376,-1.170424,10.182245,2.704989,0.052470,1,0,,38.990310,-76.940976,-9.108000,,,
2026-09-11T19:08:24.601,14.099908,1.399905,7.842434,12.962079,0.000000,8.168324,-2.810203,1.398221,-0.042037,-0.088498,-0.255580,7.586333,-1.660374,-0.129053,0.076821,-0.087015,-0.369711,-0.984097,16.604522,2.592896,-0.025383,1,0,,38.990310,-76.940976,-9.108000,,,
2026-09-11T19:08:24.633,14.133327,1.419338,7.888952,13.142023,0.000000,8.648289,-2.975329,1.417425,-0.036999,-0.077892,-0.258360,7.631502,-1.673610,-0.075973,-0.122973,-0.076409,0.449341,-0.965171,4.760736,2.537375,-0.102006,1,0,,38.990310,-76.940976,-9.108000,,,
2026-09-11T19:08:24.667,14.166729,1.419392,7.936586,13.142519,0.000000,8.645543,-2.974384,1.417480,-0.036006,-0.075801,-0.260927,7.676947,-1.686943,-0.092286,-0.170961,-0.074318,2.065771,-1.593679,15.966894,2.591624,-0.218590,1,0,,38.990310,-76.940976,-9.108000,,,
2026-09-11T19:08:24.702,14.200136,1.448938,7.985803,13.416089,0.000000,8.648289,-2.975329,1.446984,-0.038619,-0.081304,-0.263551,7.722834,-1.700552,-0.056994,-0.102876,-0.079821,1.456974,2.159326,11.400525,2.611424,-0.090389,1,0,,38.990310,-76.940976,-9.108000,,,
2026-09-11T19:08:24.735,14.233558,1.439314,8.033927,13.326981,0.000000,8.759526,-3.013598,1.437323,-0.029652,-0.062425,-0.265953,7.769056,-1.714265,0.015448,-0.105348,-0.060942,0.434140,-1.473057,10.505080,2.566989,-0.200511,1,0,,38.990310,-76.940976,-9.108000,,,
2026-09-11T19:08:24.767,14.266971,1.420153,8.081048,13.149568,0.000000,8.211583,-2.825086,1.418427,-0.020721,-0.043624,-0.267725,7.814856,-1.727657,0.072378,-0.078947,-0.042140,0.599873,0.967916,6.944285,2.533849,-0.153205,1,0,,38.990310,-76.940976,-9.108000,,,
2026-09-11T19:08:24.801,14.300374,1.401088,8.128010,12.973036,0.000000,7.239293,-2.490582,1.399764,-0.011965,-0.025189,-0.268874,7.860096,-1.740660,0.057842,-0.035421,-0.023706,0.019809,-2.776753,7.410787,2.464501,-0.350437,1,0,,38.990310,-76.940976,-9.108000,,,
2026-09-11T19:08:24.835,14.333794,1.382083,8.174459,12.797069,0.000000,6.909703,-2.377191,1.380894,-0.017314,-0.036451,-0.269904,7.904754,-1.753498,0.128572,-0.029711,-0.034968,1.081674,-2.211302,9.505880,2.468761,-0.507987,1,0,,38.990310,-76.940976,-9.108000,,,
2026-09-11T19:08:24.868,14.367218,1.363174,8.220590,12.621983,0.000000,7.266072,-2.499795,1.361877,-0.026087,-0.054921,-0.271431,7.948729,-1.766453,0.114248,-0.017468,-0.053437,1.284769,0.865535,10.462323,2.488633,-0.463057,1,0,,38.990310,-76.940976,-9.108000,,,
2026-09-11T19:08:24.901,14.400843,1.373162,8.266777,12.714463,0.000000,7.934178,-2.729648,1.371604,-0.036099,-0.075998,-0.273632,7.992707,-1.779830,0.061407,-0.027555,-0.074515,1.294282,-0.028930,9.760167,2.506371,-0.474688,1,0,,38.990310,-76.940976,-9.108000,,,
2026-09-11T19:08:24.935,14.434263,1.373801,8.313590,12.720378,0.000000,10.008534,-3.443303,1.371321,-0.044961,-0.094654,-0.276484,8.036450,-1.793582,0.013339,-0.021140,-0.093171,0.709609,-0.668323,7.672331,2.483106,-0.525848,1,0,,38.990310,-76.940976,-9.108000,,,
2026-09-11T19:08:24.968,14.467666,1.364800,8.358148,12.637038,0.000000,10.925207,-3.758672,1.361864,-0.058435,-0.123022,-0.280119,8.079867,-1.807782,-0.019589,-0.038375,-0.121538,0.124250,1.227302,9.208248,2.420078,-0.451346,1,0,,38.990310,-76.940976,-9.108000,,,
2026-09-11T19:08:25.003,14.501075,1.365358,8.403561,12.642203,0.000000,11.422338,-3.929704,1.362148,-0.057866,-0.121823,-0.284210,8.123031,-1.822318,-0.036055,-0.032914,-0.120339,1.229852,2.480788,8.909832,2.426629,-0.296645,1,0,,38.990310,-76.940976,-9.108000,,,
2026-09-11T19:08:25.036,14.534493,1.356251,8.449121,12.557875,0.000000,10.610723,-3.650478,1.353499,-0.046003,-0.096849,-0.287863,8.166074,-1.836786,-0.032589,0.000419,-0.095365,1.063825,0.132880,9.989838,2.422373,-0.297839,1,0,,38.990310,-76.940976,-9.108000,,,
2026-09-11T19:08:25.070,14.567894,1.337244,8.493668,12.381892,0.000000,10.053854,-3.458895,1.334808,-0.033670,-0.070884,-0.290665,8.208725,-1.850867,-0.068550,0.092865,-0.069400,2.325451,-0.396875,14.641034,2.502847,-0.335649,1,0,,38.990310,-76.940976,-9.108000,,,
2026-09-11T19:08:25.103,14.601304,1.327597,8.537770,12.292567,0.000000,9.255972,-3.184394,1.325547,-0.028469,-0.059935,-0.292850,8.250989,-1.864644,-0.073893,0.143713,-0.058451,1.724009,0.466502,11.015614,2.545188,-0.318163,1,1,14.593597,38.990315,-76.940991,-9.030000,-7.317736,2.667381,2.608784
2026-09-11T19:08:25.137,14.634710,1.346958,8.582510,12.471831,0.000000,8.377066,-2.882018,1.345254,-0.020654,-0.043483,-0.294577,8.293452,-1.878345,-0.104571,0.128878,-0.041999,2.140399,1.828646,9.010546,2.614751,-0.214094,1,0,,38.990315,-76.940991,-9.030000,,,
2026-09-11T19:08:25.170,14.668120,1.386105,8.628891,12.834309,0.000000,5.618811,-1.933077,1.385317,-0.004957,-0.010435,-0.295478,8.336971,-1.892018,-0.061969,0.175942,-0.008951,1.861694,1.273688,10.083002,2.667244,-0.149922,1,0,,38.990315,-76.940991,-9.030000,,,
2026-09-11T19:08:25.204,14.701536,1.415693,8.676058,13.108265,0.000000,0.673590,-0.231740,1.415681,0.012456,0.026222,-0.295214,8.381780,-1.905520,-0.039142,0.114890,0.027706,0.315578,1.615449,4.470852,2.619119,-0.067665,1,0,,38.990315,-76.940991,-9.030000,,,
2026-09-11T19:08:25.237,14.734943,1.435502,8.723988,13.291684,0.000000,-4.994669,1.718349,1.434856,0.015233,0.032070,-0.294240,8.427475,-1.918908,-0.032793,0.085258,0.033553,1.986925,0.441495,11.781513,2.679889,-0.062883,1,0,,38.990315,-76.940991,-9.030000,,,
2026-09-11T19:08:25.271,14.768342,1.435783,8.771565,13.294285,0.000000,-6.407099,2.204277,1.434720,0.029654,0.062430,-0.292662,8.473564,-1.932052,-0.071330,0.169636,0.063914,-0.759917,1.237207,10.736517,2.560736,-0.009492,1,0,,38.990315,-76.940991,-9.030000,,,
2026-09-11T19:08:25.304,14.801758,1.397254,8.817969,12.937538,0.000000,-6.706476,2.307274,1.396121,0.024129,0.050798,-0.290770,8.519122,-1.944794,-0.148394,0.153513,0.052281,-0.340585,1.140121,11.427591,2.469740,0.038258,1,0,,38.990315,-76.940991,-9.030000,,,
2026-09-11T19:08:25.337,14.835165,1.358822,8.862880,12.581688,0.000000,-6.446238,2.217742,1.357805,0.005509,0.011598,-0.289728,8.563340,-1.957485,-0.176450,0.241022,0.013082,-1.063727,2.008794,8.952785,2.336002,0.145258,1,0,,38.990315,-76.940991,-9.030000,,,
2026-09-11T19:08:25.372,14.868575,1.330072,8.906834,12.315479,0.000000,-6.314402,2.172386,1.329116,-0.023011,-0.048444,-0.290344,8.606266,-1.970602,-0.191104,0.153497,-0.046960,1.260939,-1.633690,11.199979,2.359976,0.020514,1,0,,38.990315,-76.940991,-9.030000,,,
2026-09-11T19:08:25.405,14.901982,1.340605,8.950253,12.413013,0.000000,-6.337748,2.180418,1.339635,-0.029504,-0.062114,-0.292190,8.648714,-1.984243,-0.121002,0.206609,-0.060630,0.936339,-1.719694,11.551253,2.368704,-0.107176,1,0,,38.990315,-76.940991,-9.030000,,,
2026-09-11T19:08:25.438,14.935387,1.311770,8.994674,12.146015,0.000000,-7.888193,2.713828,1.310298,-0.024088,-0.050712,-0.294075,8.690828,-1.997889,-0.107018,0.099522,-0.049229,0.312244,0.089633,9.001328,2.344910,-0.117448,1,0,,38.990315,-76.940991,-9.030000,,,
2026-09-11T19:08:25.471,14.968801,1.321856,9.039813,12.239412,0.000000,-10.066233,3.463153,1.319443,-0.000064,-0.000134,-0.294924,8.732755,-2.011028,-0.171439,0.003767,0.001349,-0.826308,-1.146495,10.965992,2.251016,-0.211905,1,0,,38.990315,-76.940991,-9.030000,,,
2026-09-11T19:08:25.504,15.002214,1.312771,9.084382,12.155285,0.000000,-12.721494,4.376661,1.308943,0.056998,0.119995,-0.292922,8.775057,-2.022838,-0.099042,-0.018191,0.121479,-0.584182,0.358825,8.689967,2.171722,-0.218063,1,0,,38.990315,-76.940991,-9.030000,,,
2026-09-11T19:08:25.537,15.035614,1.323042,9.128746,12.250384,0.000000,-16.007779,5.507263,1.316934,0.062797,0.132204,-0.288710,8.817642,-2.033496,-0.037801,0.044098,0.133687,-0.039227,1.447952,9.491562,2.123767,-0.154790,1,0,,38.990315,-76.940991,-9.030000,,,
2026-09-11T19:08:25.571,15.069015,1.294491,9.171538,11.986027,0.000000,-16.204160,5.574826,1.288368,0.066841,0.140717,-0.284152,8.859990,-2.043713,0.001576,0.039250,0.142201,0.476407,0.856022,8.878745,2.102588,-0.130979,1,0,,38.990315,-76.940991,-9.030000,,,
