timestamp,time_s,drive_pos_turns,drive_encoder_count,drive_wheel_angle_deg,drive_distance_m,drive_distance_since_start_m,drive_velocity_turns_s,drive_velocity_mps,drive_velocity_mph,drive_acceleration_mps2,drive_iq_A,steer_pos_turns,steer_encoder_count,steer_angle_deg,steer_velocity_turns_s,steer_velocity_deg_s,steer_acceleration_deg_s2,gps_received,gps_ros_stamp_s,gps_latitude_deg,gps_longitude_deg,gps_altitude_m,gps_status,gps_service,gps_cov_x_m2,gps_cov_y_m2,gps_cov_z_m2,gps_covariance_type,imu_received,imu_ros_stamp_s,imu_qx,imu_qy,imu_qz,imu_qw,imu_roll_deg,imu_pitch_deg,imu_yaw_deg,imu_gyro_x_rad_s,imu_gyro_y_rad_s,imu_gyro_z_rad_s,imu_accel_x_mps2,imu_accel_y_mps2,imu_accel_z_mps2
2026-09-11T19:03:04.605,7.264000004170157e-06,-114.20862579345703,-10278.776321411133,-41115.10528564453,-78.23290866851808,-0.0007630157470703125,-0.28739550709724426,-0.19686592236161232,-0.4403765263994544,0.0,0.0,0.3873596489429474,3173.250244140625,139.44947361946106,0.0,0.0,0.0,1,1789167784.162556,38.990486345,-76.939695455,-8.961000000000002,0,1,16.104169,7.387524,61.7796,1,1,1789167784.5962083,0.9982534266128065,-0.03819271753000555,0.0450132030316022,0.0022856369570009465,179.93528296532634,-5.166124444028833,-4.3791634756813735,0.009807005066956137,-0.0026883306468468656,0.11221140640092023,0.0734518097114563,0.23869386493682862,-9.75143872133255
2026-09-11T19:03:04.639,0.033409376000008706,-114.2313232421875,-10280.819091796875,-41123.2763671875,-78.24845642089845,-0.016310768127441408,-0.5999773144721985,-0.410984460413456,-0.9193460549692545,-6.410329324439562,0.0,0.3873596489429474,3173.250244140625,139.44947361946106,0.0,0.0,0.0,1,1789167784.162556,38.990486345,-76.939695455,-8.961000000000002,0,1,16.104169,7.387524,61.7796,1,1,1789167784.6282084,0.9980948957549091,-0.04205972345051247,0.04506621187533605,0.002568127424984768,179.92316700032066,-5.17377498043799,-4.822562165762414,0.012199153339739567,-0.01268086421329,0.11857033899763637,0.1869147520828247,0.15955419813156127,-9.534809819259644
2026-09-11T19:03:04.674,0.06686752000001661,-114.24473571777344,-10282.02621459961,-41128.10485839844,-78.2576439666748,-0.025498313903808596,-0.4161524772644043,-0.285064446926117,-0.6376710069034464,3.7635086240082307,0.0,0.3873596489429474,3173.250244140625,139.44947361946106,0.0,0.0,0.0,1,1789167784.162556,38.990486345,-76.939695455,-8.961000000000002,0,1,16.104169,7.387524,61.7796,1,1,1789167784.6682084,0.997861450592631,-0.04687671376895411,0.04549484323000799,0.002306158466118889,179.980601891712,-5.221789717805799,-5.378348630215654,0.009919578803709772,-0.018564892720538486,0.11724720489169947,0.07619767175674438,0.2049589883804321,-9.636995113945007
2026-09-11T19:03:04.706,0.10028553600000123,-114.26297760009766,-10283.667984008789,-41134.671936035156,-78.2701396560669,-0.03799400329589844,-0.5965666174888611,-0.40864813297986985,-0.9141198393429434,-3.698115592912809,0.0,0.3871746361255646,3171.734619140625,139.38286900520325,0.0,0.0,0.0,1,1789167784.162556,38.990486345,-76.939695455,-8.961000000000002,0,1,16.104169,7.387524,61.7796,1,1,1789167784.6962082,0.9977401749611131,-0.05017725810785649,0.04464626160993918,0.001870123418865034,-179.956932990068,-5.1220960936532975,-5.75998862039369,0.011480950352543899,-0.02975123149534574,0.1346223066611534,0.053544309883117674,0.06894075063705445,-9.848818757438659
2026-09-11T19:03:04.739,0.13368956800002252,-114.28055572509766,-10285.250015258789,-41141.000061035156,-78.2821806716919,-0.05003501892089844,-0.49243471026420593,-0.3373177765309811,-0.7545583762772475,2.1353816344339296,0.0,0.3871746361255646,3171.734619140625,139.38286900520325,0.0,0.0,0.0,1,1789167784.162556,38.990486345,-76.939695455,-8.961000000000002,0,1,16.104169,7.387524,61.7796,1,1,1789167784.7282083,0.997543470555146,-0.05410789458043301,0.044475528917681174,0.0011346472402091437,-179.85335942815968,-5.0977587051417865,-6.216019674304338,0.014883993328082443,-0.024229009742035682,0.13679157638845718,0.36931844509124756,0.10453889072418213,-9.579528143997193
2026-09-11T19:03:04.774,0.16709139200000322,-114.29698944091797,-10286.729049682617,-41146.91619873047,-78.29343776702882,-0.0612921142578125,-0.49243471026420593,-0.3373177765309811,-0.7545583762772475,0.0,0.0,0.3871746361255646,3171.734619140625,139.38286900520325,0.0,0.0,0.0,1,1789167784.162556,38.990486345,-76.939695455,-8.961000000000002,0,1,16.104169,7.387524,61.7796,1,1,1789167784.7682083,0.9973166228681732,-0.0590445463432925,0.04327339752221063,0.0008416441178753803,-179.80265984311012,-4.957337232510861,-6.784843979489518,0.008145277086132337,-0.023843291977344933,0.13864965391013034,0.10395049171447754,0.05432884189605713,-9.518432713489533
2026-09-11T19:03:04.808,0.20051001600000973,-114.31995391845703,-10288.795852661133,-41155.18341064453,-78.30916843414307,-0.07702278137207032,-0.6239500045776367,-0.4274057531356812,-0.9560794406220489,-2.695741650065621,0.0,0.3871746361255646,3171.734619140625,139.38286900520325,0.0,0.0,0.0,1,1789167784.162556,38.990486345,-76.939695455,-8.961000000000002,0,1,16.104169,7.387524,61.7796,1,1,1789167784.7962084,0.9971422625538278,-0.0626599851360427,0.04219879627493412,0.0005441366840275034,-179.75831556867882,-4.831437690638986,-7.2016237210116065,0.014153398503197617,-0.01581425381939542,0.1526007687530218,0.02147656385421753,0.19240647617340087,-9.71132952217102
2026-09-11T19:03:04.840,0.23391686400000822,-114.33708190917969,-10290.337371826172,-41161.34948730469,-78.32090110778809,-0.08875545501708985,-0.546455979347229,-0.3743223458528519,-0.8373352403651831,1.5889977792227417,0.0,0.3869781792163849,3170.125244140625,139.31214451789856,-0.0457763709127903,-16.479493528604507,-493.296869210925,1,1789167784.162556,38.990486345,-76.939695455,-8.961000000000002,0,1,16.104169,7.387524,61.7796,1,1,1789167784.8362083,0.9969210636444299,-0.06711054968185926,0.04055257339256474,-0.00023616667433616075,-179.66004487810517,-4.635915358026723,-7.716193384516575,0.032858790228521645,-0.034003726217829926,0.17857667854337864,-1.960447433834076,0.9016234158706664,-10.064859260501862
2026-09-11T19:03:04.873,0.26731827200001135,-114.36127471923828,-10292.514724731445,-41170.05889892578,-78.33747318267822,-0.10532752990722657,-0.6766983866691589,-0.4635383948683739,-1.0369058582417086,-2.671026593115884,0.0,0.3874817192554474,3174.250244140625,139.49341893196106,0.0,0.0,493.3772111823239,1,1789167784.162556,38.990486345,-76.939695455,-8.961000000000002,0,1,16.104169,7.387524,61.7796,1,1,1789167784.8682084,0.9967215564757556,-0.07068422348708782,0.03936836178570649,0.0001072235239866982,-179.69241968779474,-4.501991553363649,-8.12496556466204,0.019962377852610347,-0.023822173493395805,0.1766418065346177,0.6436104501152038,0.532991436290741,-10.02710365737915
2026-09-11T19:03:04.908,0.30072659200001794,-114.38522338867188,-10294.670104980469,-41178.680419921875,-78.35387802124023,-0.1217323684692383,-0.677185595035553,-0.46387213259935384,-1.0376524082841654,-0.009989659192077841,0.0,0.3874817192554474,3174.250244140625,139.49341893196106,0.0,0.0,0.0,1,1789167784.162556,38.990486345,-76.939695455,-8.961000000000002,0,1,16.104169,7.387524,61.7796,1,1,1789167784.8962083,0.9965100514828737,-0.07368729406302782,0.03921258133356982,-0.0005229267895873872,-179.6079776897595,-4.477890551240123,-8.473447256027054,0.019595684176766333,-0.021165258773084835,0.15914767331017773,0.32793438140869136,-0.42139175745010377,-9.170394699249266
2026-09-11T19:03:04.940,0.33413977600000067,-114.40630340576172,-10296.567306518555,-41186.26922607422,-78.36831783294679,-0.13617218017578125,-0.7037376165390015,-0.48206026732921603,-1.0783381069461693,-0.5443400643851122,0.0,0.3873596489429474,3173.250244140625,139.44947361946106,0.0,0.0,0.0,1,1789167784.162556,38.990486345,-76.939695455,-8.961000000000002,0,1,16.104169,7.387524,61.7796,1,1,1789167784.9362082,0.9961954854544508,-0.0784279269657632,0.03783397811285407,-0.003493584431497687,-179.25906903002584,-4.291574498996211,-9.03069341896867,0.014385352760787663,-0.02150315451627094,0.18009947831574366,0.32999377794265744,-0.15602380407333374,-9.665728598918914
2026-09-11T19:03:04.973,0.3675447040000108,-114.4290771484375,-10298.616943359375,-41194.4677734375,-78.3839178466797,-0.15177219390869143,-0.6774345636367798,-0.4640426760911942,-1.0380339032104369,0.5393692582728017,0.0,0.3873596489429474,3173.250244140625,139.44947361946106,0.0,0.0,0.0,1,1789167784.162556,38.990486345,-76.939695455,-8.961000000000002,0,1,16.104169,7.387524,61.7796,1,1,1789167784.9682083,0.9958035220038309,-0.08238497192711776,0.03956316221475971,-0.004776835867208012,-179.0785637441337,-4.474028312653704,-9.494860137916037,0.02142566189748239,-0.034959817582072415,0.17129952822718827,0.3699068441009521,-0.18495342205047605,-9.998762438411713
2026-09-11T19:03:05.007,0.4009553920000144,-114.44924926757812,-10300.432434082031,-41201.729736328125,-78.39773574829103,-0.16559009552001955,-0.5741091966629028,-0.39326479971408845,-0.8797083028679492,2.1184202006584893,0.0,0.3873596489429474,3173.250244140625,139.44947361946106,0.0,0.0,0.0,1,1789167784.162556,38.990486345,-76.939695455,-8.961000000000002,0,1,16.104169,7.387524,61.7796,1,1,1789167784.9962084,0.99550675352772,-0.08572491209249139,0.03963947338274478,-0.0068011232434684364,-178.83113831477627,-4.459630955587328,-9.888920648061495,0.015617729745620859,-0.035137666632850645,0.16080399077032037,0.19387747369766234,-0.2504618451309204,-9.533142688732147
2026-09-11T19:03:05.042,0.4343669440000042,-114.47029113769531,-10302.326202392578,-41209.30480957031,-78.41214942932129,-0.18000377655029298,-0.6522546410560608,-0.44679442912340167,-0.9994506735938645,-1.602129389539569,0.0,0.3870525658130646,3170.734619140625,139.33892369270325,0.0,0.0,0.0,1,1789167784.162556,38.990486345,-76.939695455,-8.961000000000002,0,1,16.104169,7.387524,61.7796,1,1,1789167785.0362084,0.9950859893645269,-0.09041901137462087,0.03931045641675956,-0.009108466872254117,-178.54965563768786,-4.392436681084663,-10.439530200419993,0.01757878169316169,-0.03674563847271302,0.16064656207179048,-0.15406247404098508,-0.1580832006072998,-9.686616763763427
2026-09-11T19:03:05.074,0.46777865600000723,-114.4914321899414,-10304.228897094727,-41216.915588378906,-78.42663105010988,-0.19448539733886722,-0.6259939670562744,-0.428805867433548,-0.9592114071079714,0.538390899869245,0.0,0.3868732750415802,3169.265869140625,139.27437901496887,-0.015258789993822575,-5.493164397776127,-164.40834871842628,1,1789167784.162556,38.990486345,-76.939695455,-8.961000000000002,0,1,16.104169,7.387524,61.7796,1,1,1789167785.0682082,0.9947174344393236,-0.09437233222337917,0.0390245997690547,-0.010400439703946418,-178.38763505957448,-4.339942365430799,-10.900358094612566,0.01502972832062397,-0.0494015444776995,0.15135250927199548,0.05874183446884155,-0.268996413936615,-9.713879251213074
2026-09-11T19:03:05.107,0.501183296000022,-114.510009765625,-10305.90087890625,-41223.603515625,-78.43935668945313,-0.20721103668212892,-0.5229001045227051,-0.358186571598053,-0.8012405413342265,2.1140564854302815,0.0,0.3868084251880646,3168.734619140625,139.25103306770325,0.0,0.0,164.44315513574466,1,1789167784.162556,38.990486345,-76.939695455,-8.961000000000002,0,1,16.104169,7.387524,61.7796,1,1,1789167785.0962083,0.994405855943456,-0.09767480337487518,0.03846569790168152,-0.011705406271414469,-178.2304672356789,-4.256084020861303,-11.285441959212465,0.011772071271776555,-0.04486124496156145,0.14761314134959763,0.40756438072204587,-0.23535960388183594,-9.734669349555968
2026-09-11T19:03:05.141,0.5345855360000087,-114.5274658203125,-10307.471923828125,-41229.8876953125,-78.45131408691407,-0.21916843414306642,-0.5229001045227051,-0.358186571598053,-0.8012405413342265,0.0,0.0,0.3868084251880646,3168.734619140625,139.25103306770325,0.0,0.0,0.0,1,1789167784.162556,38.990486345,-76.939695455,-8.961000000000002,0,1,16.104169,7.387524,61.7796,1,1,1789167785.1362083,0.993958867054122,-0.10222548847577138,0.03734499812792924,-0.014179958575439685,-177.94176098473233,-4.090937494646092,-11.81760232643627,0.012863949251824205,-0.04021814555248094,0.1389414729610638,0.13572403823852539,-0.2977298989105225,-9.887260826072692
2026-09-11T19:03:05.178,0.5680052160000173,-114.5491943359375,-10309.427490234375,-41237.7099609375,-78.4661981201172,-0.23405246734619142,-0.6009990572929382,-0.41168435424566274,-0.9209116728831028,-1.6007868012977968,0.0,0.3864422142505646,3165.734619140625,139.11919713020325,-0.015258789993822575,-5.493164397776127,-164.36915008685634,1,1789167785.1641874,38.990485676666665,-76.93969428666666,-9.004000000000001,0,1,13.249600000000001,10.975969000000001,95.667961,1,1,1789167785.1682084,0.9935555834112767,-0.10571583848403394,0.0377322318699876,-0.015739848919376014,-177.74449797076673,-4.1087768646799665,-12.227933364714003,0.011446392833354411,-0.03270066339829096,0.13694586349433346,0.3353874355316162,-0.4217840234565735,-9.813416750354767
2026-09-11T19:03:05.208,0.6014226240000085,-114.56547546386719,-10310.892791748047,-41243.57116699219,-78.47735069274903,-0.24520503997802737,-0.5220898985862732,-0.35763158053159716,-0.7999990616759054,1.6175034794463978,0.0,0.38570788502693176,3159.718994140625,138.85483860969543,-0.0305175818502903,-10.986329466104507,-164.38034536759508,1,1789167785.1641874,38.990485676666665,-76.93969428666666,-9.004000000000001,0,1,13.249600000000001,10.975969000000001,95.667961,1,1,1789167785.1962082,0.9932201506141051,-0.1086190997031481,0.037580741694535215,-0.01741583898239831,-177.5431329406605,-4.063873322324938,-12.569372348032292,0.007228281097134516,-0.01842387011697734,0.12204808206516028,0.22437615570068362,-0.435317200679779,-9.624638734741211
2026-09-11T19:03:05.240,0.6348260800000105,-114.57789611816406,-10312.010650634766,-41248.04260253906,-78.48585884094238,-0.2537131881713867,-0.39293304085731506,-0.26915913298726085,-0.6020918329171003,2.6486016160822063,0.0,0.38474276661872864,3151.812744140625,138.5073959827423,-0.0457763709127903,-16.479493528604507,-164.44897385766498,1,1789167785.1641874,38.990485676666665,-76.93969428666666,-9.004000000000001,0,1,13.249600000000001,10.975969000000001,95.667961,1,1,1789167785.2362084,0.9927277164019482,-0.11240567102136823,0.03818248395332182,-0.019968578536367024,-177.22845557920715,-4.089833433900774,-13.019051045765126,0.012692208853427964,-0.0036585591780305135,0.10917174097564691,0.3217561918067932,-0.5565273966789246,-9.692500753860473
2026-09-11T19:03:05.274,0.6682321279999996,-114.59101104736328,-10313.190994262695,-41252.76397705078,-78.49484256744385,-0.26269691467285156,-0.39293304085731506,-0.26915913298726085,-0.6020918329171003,0.0,0.0,0.3831329643726349,3138.625244140625,137.92786717414856,-0.0305175818502903,-10.986329466104507,164.43621414007984,1,1789167785.1641874,38.990485676666665,-76.93969428666666,-9.004000000000001,0,1,13.249600000000001,10.975969000000001,95.667961,1,1,1789167785.2682083,0.9923818888484105,-0.1152206416163491,0.038030497316820226,-0.02135583538551548,-177.06070399823844,-4.046168898324483,-13.349215166591247,0.008447742645502954,0.00925844808305432,0.09294209879427684,0.19730980125427244,-0.4818007224464417,-9.800471972141265
2026-09-11T19:03:05.308,0.7016398720000154,-114.60414123535156,-10314.37271118164,-41257.49084472656,-78.50383674621582,-0.2716910934448242,-0.39293304085731506,-0.26915913298726085,-0.6020918329171003,0.0,0.0,0.3822918236255646,3131.734619140625,137.62505650520325,-0.015258789993822575,-5.493164397776127,164.427896368153,1,1789167785.1641874,38.990485676666665,-76.93969428666666,-9.004000000000001,0,1,13.249600000000001,10.975969000000001,95.667961,1,1,1789167785.2962084,0.9920898875702523,-0.11761433608987672,0.03773239672604325,-0.022378319067577337,-176.93849731395312,-3.9912332025678454,-13.628657575673722,0.0028475046746287485,0.002694788365079245,0.09155124591336256,0.30018156145095826,-0.49445130115509034,-9.763108635025024
2026-09-11T19:03:05.342,0.7350553280000156,-114.61424255371094,-10315.281829833984,-41261.12731933594,-78.51075614929199,-0.2786104965209961,-0.26162952184677124,-0.17921622246503832,-0.40089527215693926,2.691655936768364,0.0,0.3820476830005646,3129.734619140625,137.53716588020325,0.0,0.0,164.38992775606886,1,1789167785.1641874,38.990485676666665,-76.93969428666666,-9.004000000000001,0,1,13.249600000000001,10.975969000000001,95.667961,1,1,1789167785.3362083,0.9916752415279777,-0.12073672981505547,0.03807210921474558,-0.023523858398099083,-176.7905530781155,-4.004220097425713,-13.995448879530711,0.005532344662971625,0.004213922946015109,0.07948491212969976,0.37657536621093746,-0.5824169531059264,-9.71897870929718
2026-09-11T19:03:05.375,0.7684785280000028,-114.62299346923828,-10316.069412231445,-41264.27764892578,-78.51675052642823,-0.2846048736572266,-0.26162952184677124,-0.17921622246503832,-0.40089527215693926,0.0,0.0,0.3820476830005646,3129.734619140625,137.53716588020325,0.0,0.0,0.0,1,1789167785.1641874,38.990485676666665,-76.93969428666666,-9.004000000000001,0,1,13.249600000000001,10.975969000000001,95.667961,1,1,1789167785.3682084,0.9913884294368563,-0.1229441032443752,0.03784370743084122,-0.024527194377851218,-176.67063372187886,-3.9568213131882946,-14.253589542780192,0.00533075913436628,0.003629237646597009,0.0656231581445104,0.37078944261550906,-0.5052386163330078,-9.711525655174254
2026-09-11T19:03:05.407,0.8018869440000174,-114.63166046142578,-10316.84944152832,-41267.39776611328,-78.52268741607666,-0.29054176330566406,-0.26162952184677124,-0.17921622246503832,-0.40089527215693926,0.0,0.0,0.3820476830005646,3129.734619140625,137.53716588020325,0.0,0.0,0.0,1,1789167785.1641874,38.990485676666665,-76.93969428666666,-9.004000000000001,0,1,13.249600000000001,10.975969000000001,95.667961,1,1,1789167785.3962083,0.991169252351825,-0.12475942890037504,0.03747688500202849,-0.02478066147868269,-176.63991434016282,-3.9053603702837467,-14.462882984690413,0.002559525348049684,-0.0020399408297309724,0.05701589240537516,0.2438913895225525,-0.48023165842056276,-9.750948388824463
2026-09-11T19:03:05.441,0.8352931840000224,-114.63533020019531,-10317.179718017578,-41268.71887207031,-78.52520118713379,-0.29305553436279297,-0.08121536672115326,-0.055632526203989986,-0.1244464168843726,3.6994195174622986,0.0,0.3823547661304474,3132.250244140625,137.64771580696106,0.0,0.0,0.0,1,1789167785.1641874,38.990485676666665,-76.93969428666666,-9.004000000000001,0,1,13.249600000000001,10.975969000000001,95.667961,1,1,1789167785.4362082,0.9908258486493556,-0.12707924509051108,0.03778029346160704,-0.02622312989451926,-176.46197288053708,-3.910754231494476,-14.738071384569889,0.004808033023393979,0.007039960070844327,0.04006368391367943,0.34950901176452637,-0.592517802772522,-9.797726110095978
2026-09-11T19:03:05.476,0.8687099200000148,-114.63750457763672,-10317.375411987305,-41269.50164794922,-78.52669063568116,-0.2945449829101563,-0.08121536672115326,-0.055632526203989986,-0.1244464168843726,0.0,0.0,0.3824768364429474,3133.250244140625,137.69166111946106,0.0,0.0,0.0,1,1789167785.1641874,38.990485676666665,-76.93969428666666,-9.004000000000001,0,1,13.249600000000001,10.975969000000001,95.667961,1,1,1789167785.4682083,0.9906012400071901,-0.12857971044768812,0.038206999686963915,-0.02677062816458516,-176.38724559847475,-3.9457256111423753,-14.915736836384076,0.003875329071128209,0.015544600449962297,0.024357640507907667,0.3748101691818237,-0.5528989361190796,-9.732119620513915
2026-09-11T19:03:05.508,0.9021368639999992,-114.64022827148438,-10317.620544433594,-41270.482177734375,-78.52855636596681,-0.2964107131958008,-0.08121536672115326,-0.055632526203989986,-0.1244464168843726,0.0,0.0,0.3824768364429474,3133.250244140625,137.69166111946106,0.0,0.0,0.0,1,1789167785.1641874,38.990485676666665,-76.93969428666666,-9.004000000000001,0,1,13.249600000000001,10.975969000000001,95.667961,1,1,1789167785.4962084,0.9904492410306039,-0.12970608126142286,0.038177970295575646,-0.027001407552490038,-176.3569341015486,-3.93485419952881,-15.046819368553901,0.0007298966931840287,0.017312269916382152,0.0104030350065122,0.29812216491699217,-0.5195563255691529,-9.74682959575653
2026-09-11T19:03:05.541,0.9355475520000027,-114.64291381835938,-10317.862243652344,-41271.448974609375,-78.53039596557618,-0.2982503128051758,-0.08121536672115326,-0.055632526203989986,-0.1244464168843726,0.0,0.0,0.3824768364429474,3133.250244140625,137.69166111946106,0.0,0.0,0.0,1,1789167785.1641874,38.990485676666665,-76.93969428666666,-9.004000000000001,0,1,13.249600000000001,10.975969000000001,95.667961,1,1,1789167785.5362084,0.9902735793268619,-0.13117268239453145,0.03776227117177329,-0.026943948421461424,-176.36408511517544,-3.8831188811824413,-15.214363004393105,-0.0005045746867515607,0.021396863964824486,0.0015317009515502236,0.25889556427001953,-0.4778780623817444,-9.74418180021286
2026-09-11T19:03:05.574,0.9689540480000005,-114.64562225341797,-10318.106002807617,-41272.42401123047,-78.53225124359132,-0.3001055908203125,-0.08121536672115326,-0.055632526203989986,-0.1244464168843726,0.0,0.0,0.3824768364429474,3133.250244140625,137.69166111946106,0.0,0.0,0.0,1,1789167785.1641874,38.990485676666665,-76.93969428666666,-9.004000000000001,0,1,13.249600000000001,10.975969000000001,95.667961,1,1,1789167785.5682082,0.9902111732781362,-0.13201686942598168,0.037179433254787,-0.025904984944078016,-176.48807833035193,-3.829704352546466,-15.305453910209948,-0.0016824973989225337,0.016744688843633598,-0.00956021551072414,0.2449701210403442,-0.324894319858551,-9.72858922645569
2026-09-11T19:03:05.609,1.0023737920000144,-114.64836120605469,-10318.352508544922,-41273.41003417969,-78.53412742614746,-0.30198177337646487,-0.08121536672115326,-0.055632526203989986,-0.1244464168843726,0.0,0.0,0.3825989067554474,3134.250244140625,137.73560643196106,0.0,0.0,0.0,1,1789167785.1641874,38.990485676666665,-76.93969428666666,-9.004000000000001,0,1,13.249600000000001,10.975969000000001,95.667961,1,1,1789167785.5962083,0.9902053027706826,-0.13254121786329873,0.0364759731012823,-0.02440875495490971,-176.66726763863306,-3.770897363555571,-15.357450414422043,-0.0014276793281313615,0.009069428925063334,-0.015574794646021798,0.20142859432220458,-0.22359162368774416,-9.733688684539795
2026-09-11T19:03:05.643,1.0357926080000084,-114.62700653076172,-10316.430587768555,-41265.72235107422,-78.51949947357178,-0.28735382080078126,0.6185626983642578,0.42371544837951663,0.9478244639842434,14.343655220567754,0.0,0.38274767994880676,3135.468994140625,137.78916478157043,0.0,0.0,0.0,1,1789167785.1641874,38.990485676666665,-76.93969428666666,-9.004000000000001,0,1,13.249600000000001,10.975969000000001,95.667961,1,1,1789167785.6362083,0.9902152921769242,-0.1332741609859961,0.034969225971131855,-0.022109418523045238,-176.94961692736265,-3.6327453818108957,-15.427632251043244,-0.0005225515780471023,-0.00532185795518111,-0.016167159394148672,0.13072264665603636,-0.09002504848480225,-9.755753647403717
2026-09-11T19:03:05.675,1.0691991040000062,-114.6151123046875,-10315.360107421875,-41261.4404296875,-78.51135192871094,-0.2792062759399414,0.3034343719482422,0.20785254478454593,0.46495290082441326,-6.461704442003884,0.0,0.3831024467945099,3138.375244140625,137.91688084602356,0.015258789993822575,5.493164397776127,164.43401899368587,1,1789167785.1641874,38.990485676666665,-76.93969428666666,-9.004000000000001,0,1,13.249600000000001,10.975969000000001,95.667961,1,1,1789167785.6682084,0.990231947161234,-0.13384045907120803,0.03353523445475136,-0.02007013669470855,-177.2019395712976,-3.499677905373188,-15.480479806976144,-0.001155407964820246,-0.016749401232613984,-0.015336906268974972,0.041187930679321284,-0.03854013513565064,-9.734277083549498
2026-09-11T19:03:05.708,1.1026073280000048,-114.61475372314453,-10315.327835083008,-41261.31134033203,-78.51110630035402,-0.2789606475830078,0.0670880600810051,0.0459553211554885,0.10279912570572755,-4.846029038510516,0.0,0.3841915428638458,3147.297119140625,138.3089554309845,0.0457763709127903,16.479493528604507,328.8510377213953,1,1789167785.1641874,38.990485676666665,-76.93969428666666,-9.004000000000001,0,1,13.249600000000001,10.975969000000001,95.667961,1,1,1789167785.6962082,0.9902382622095695,-0.1343973815302436,0.03207586027428538,-0.01834848990109353,-177.41864205801886,-3.3590847867862847,-15.533875232803128,0.0017647024066914667,-0.022102500581405792,-0.010294650059963354,0.022849494876861574,0.017750036792755126,-9.686616763763427
2026-09-11T19:03:05.743,1.1360144000000219,-114.61491394042969,-10315.342254638672,-41261.36901855469,-78.51121604919435,-0.27907039642333986,0.014566666446626186,0.00997816651593894,0.02232052280766582,-1.076932292645438,0.0,0.3852844536304474,3156.250244140625,138.70240330696106,0.015258789993822575,5.493164397776127,-328.8623777271705,1,1789167785.1641874,38.990485676666665,-76.93969428666666,-9.004000000000001,0,1,13.249600000000001,10.975969000000001,95.667961,1,1,1789167785.7362084,0.9901848627728282,-0.1354805358534061,0.030514750591322023,-0.015742043602353987,-177.73589887469953,-3.2197121550433225,-15.64570087829282,-0.0014079571075838258,-0.023001868744958468,-0.0059667571137930146,0.1481784839439392,0.08659272092819213,-9.716036714248657
2026-09-11T19:03:05.776,1.1694342080000126,-114.61518859863281,-10315.366973876953,-41261.46789550781,-78.51140419006349,-0.2792585372924805,0.0,0.0,0.0,-0.29857043212042667,0.0,0.385684996843338,3159.531494140625,138.84659886360168,0.015258789993822575,5.493164397776127,0.0,1,1789167785.1641874,38.990485676666665,-76.93969428666666,-9.004000000000001,0,1,13.249600000000001,10.975969000000001,95.667961,1,1,1789167785.7682083,0.9900974451662655,-0.13642353318344982,0.030119476272064846,-0.013729013732770115,-177.96789016046785,-3.2043042992036868,-15.747384523982786,-0.0010560987303817688,0.0019287633563789335,-0.011864748255057452,-0.004020726566314697,0.012356379203796387,-9.681419239177705
2026-09-11T19:03:05.808,1.2028423360000033,-114.61518859863281,-10315.366973876953,-41261.46789550781,-78.51140419006349,-0.2792585372924805,0.0,0.0,0.0,0.0,0.0,0.3857727348804474,3160.250244140625,138.87818455696106,0.0,0.0,-164.42598632816703,1,1789167785.1641874,38.990485676666665,-76.93969428666666,-9.004000000000001,0,1,13.249600000000001,10.975969000000001,95.667961,1,1,1789167785.7962084,0.9899813745712238,-0.13758119811586556,0.029034642809917,-0.01285618310283195,-178.08064592625053,-3.0926072231679393,-15.875657092496619,0.001417381885544595,0.017286962642228235,0.001077566280181299,-0.09894910013198853,-0.01912296781539917,-9.70936819213867
2026-09-11T19:03:05.843,1.2362436160000243,-114.61518859863281,-10315.366973876953,-41261.46789550781,-78.51140419006349,-0.2792585372924805,0.0,0.0,0.0,0.0,0.0,0.3857727348804474,3160.250244140625,138.87818455696106,0.0,0.0,0.0,1,1789167785.1641874,38.990485676666665,-76.93969428666666,-9.004000000000001,0,1,13.249600000000001,10.975969000000001,95.667961,1,1,1789167785.8362083,0.9897478697184237,-0.13919136489930076,0.03013962312263832,-0.010794509870183076,-178.29199403373636,-3.2479032065882634,-16.058801090159744,-0.0015208799101878586,0.05080862892065732,0.00035936329298563247,0.15523927206039428,0.0483467852973938,-9.703582268543244
2026-09-11T19:03:05.877,1.2696615040000268,-114.61518859863281,-10315.366973876953,-41261.46789550781,-78.51140419006349,-0.2792585372924805,0.0,0.0,0.0,0.0,0.0,0.3851185142993927,3154.890869140625,138.64266514778137,-0.0305175818502903,-10.986329466104507,-328.7559484939234,1,1789167785.1641874,38.990485676666665,-76.93969428666666,-9.004000000000001,0,1,13.249600000000001,10.975969000000001,95.667961,1,1,1789167785.8682084,0.9895684944901632,-0.14049569382967342,0.030435649073809884,-0.009424754280432364,-178.4384818846844,-3.301378366289759,-16.206324348705287,0.0003157300616857742,0.08464602526077218,0.00042341687653382434,-0.01686743827819824,0.029223817481994627,-9.68200763818741
2026-09-11T19:03:05.909,1.303068608000018,-114.61518859863281,-10315.366973876953,-41261.46789550781,-78.51140419006349,-0.2792585372924805,0.0,0.0,0.0,0.0,0.0,0.3844890892505646,3149.734619140625,138.41607213020325,0.0,0.0,328.8620727527709,1,1789167785.1641874,38.990485676666665,-76.93969428666666,-9.004000000000001,0,1,13.249600000000001,10.975969000000001,95.667961,1,1,1789167785.8962083,0.9894008688872905,-0.1417025959725003,0.030333848156327864,-0.009281842261005275,-178.4523550145661,-3.2902506003197196,-16.34547210995175,-0.00027436575841350864,0.1037837350418152,0.011257024609513026,-0.10316595970153808,-0.1590638656234741,-9.706818463096619
2026-09-11T19:03:05.942,1.3364732160000017,-114.61518859863281,-10315.366973876953,-41261.46789550781,-78.51140419006349,-0.2792585372924805,0.0,0.0,0.0,0.0,0.0,0.3844890892505646,3149.734619140625,138.41607213020325,0.0,0.0,0.0,1,1789167785.1641874,38.990485676666665,-76.93969428666666,-9.004000000000001,0,1,13.249600000000001,10.975969000000001,95.667961,1,1,1789167785.9362082,0.9890684220240035,-0.1434906349103855,0.03285984542697181,-0.008621183589134407,-178.47942271236772,-3.584880483252459,-16.556953805584506,0.00027035150113392163,0.09835593560103804,0.018404322429355004,0.3050848865318298,-0.05060231483459472,-9.713486985206604
2026-09-11T19:03:05.977,1.3698757440000122,-114.61518859863281,-10315.366973876953,-41261.46789550781,-78.51140419006349,-0.2792585372924805,0.0,0.0,0.0,0.0,0.0,0.3849506676197052,3153.515869140625,138.58224034309387,0.015258789993822575,5.493164397776127,164.4535526704564,1,1789167785.1641874,38.990485676666665,-76.93969428666666,-9.004000000000001,0,1,13.249600000000001,10.975969000000001,95.667961,1,1,1789167785.9682083,0.9888131030938716,-0.14499023964144803,0.034039148768210875,-0.008234920140423794,-178.49801440661633,-3.7227619783462473,-16.73255040636767,0.0024877923157927175,0.0825847914141669,0.01995731639777956,0.19328907468795775,-0.13248784368515015,-9.708191394119263
2026-09-11T19:03:06.009,1.4033102719999988,-114.61518859863281,-10315.366973876953,-41261.46789550781,-78.51140419006349,-0.2792585372924805,0.0,0.0,0.0,0.0,0.0,0.3863830864429474,3165.250244140625,139.09791111946106,0.0,0.0,-164.29615509386974,1,1789167785.1641874,38.990485676666665,-76.93969428666666,-9.004000000000001,0,1,13.249600000000001,10.975969000000001,95.667961,1,1,1789167785.9962084,0.9886000932029699,-0.14618917625530406,0.035323493478308404,-0.007129605414246103,-178.59721663909568,-3.885171157715191,-16.8708827859877,0.002122843969200703,0.06480023540219507,0.02838236976300659,0.5448574829864502,0.05109264734268189,-9.676025581588744
2026-09-11T19:03:06.043,1.4368136320000247,-114.6383285522461,-10317.449569702148,-41269.798278808594,-78.52725505828857,-0.29510940551757814,-0.9278442859649658,-0.6355733358860016,-1.421737061305478,-18.97043567825768,0.0,0.3863830864429474,3165.250244140625,139.09791111946106,0.0,0.0,0.0,1,1789167785.1641874,38.990485676666665,-76.93969428666666,-9.004000000000001,0,1,13.249600000000001,10.975969000000001,95.667961,1,1,1789167786.0362084,0.988384320573286,-0.14764459256791018,0.035650200268822235,-0.005154837643658133,-178.81008384927594,-3.9536826589449214,-17.033085069015595,0.003421717998534883,0.03090803572356758,0.01879038925989615,0.16180972766876223,0.026772154941558837,-9.511960324382782
2026-09-11T19:03:06.076,1.4702190720000203,-114.65543365478516,-10318.989028930664,-41275.956115722656,-78.53897205352784,-0.306826400756836,-0.4332176744937897,-0.29675410702824595,-0.663820031827679,10.142636314857684,0.0,0.3863830864429474,3165.250244140625,139.09791111946106,0.0,0.0,0.0,1,1789167785.1641874,38.990485676666665,-76.93969428666666,-9.004000000000001,0,1,13.249600000000001,10.975969000000001,95.667961,1,1,1789167786.0682082,0.9882526145308114,-0.1489154216898295,0.03409570878904753,-0.004295311179448975,-178.92934673289702,-3.7906500316467575,-17.1737875959353,0.0035299284121585316,-0.007220950714276139,0.02417909332542864,0.146315220413208,0.06335096004486084,-9.638269978466035
2026-09-11T19:03:06.111,1.503638560000013,-114.6559066772461,-10319.031600952148,-41276.126403808594,-78.53929607391358,-0.3071504211425781,-0.06875623017549515,-0.04709801767021418,-0.10535526501032151,7.4703744521186595,0.0,0.3865051567554474,3166.250244140625,139.14185643196106,0.0,0.0,0.0,1,1789167785.1641874,38.990485676666665,-76.93969428666666,-9.004000000000001,0,1,13.249600000000001,10.975969000000001,95.667961,1,1,1789167786.1082084,0.9879451432901417,-0.15084969565220033,0.034455581129728574,-0.0046450080810203215,-178.87596162789552,-3.823264936944266,-17.40043758684246,0.0008559094651780192,-0.03496016664792282,0.023412195652102338,0.281254726638794,-0.0830623268699646,-9.737807477607726
2026-09-11T19:03:06.143,1.5370590720000052,-114.6556167602539,-10319.005508422852,-41276.022033691406,-78.53909748077393,-0.3069518280029297,-0.01669030636548996,-0.011432859860360623,-0.025574579143612674,1.0671637169969719,0.0,0.3865051567554474,3166.250244140625,139.14185643196106,0.0,0.0,0.0,1,1789167785.1641874,38.990485676666665,-76.93969428666666,-9.004000000000001,0,1,13.249600000000001,10.975969000000001,95.667961,1,1,1789167786.1362083,0.9877555461293083,-0.1521735889330927,0.0340609174162389,-0.0046940203214705985,-178.87222221317938,-3.7761821281088745,-17.553437450405376,0.0037814303573709142,-0.03421456199147084,0.023744331808756854,0.23280987483978272,0.008924051647186279,-9.65906007680893
2026-09-11T19:03:06.176,1.5704600640000024,-114.65538787841797,-10318.984909057617,-41275.93963623047,-78.53894069671631,-0.30679504394531254,0.0,0.0,0.0,0.34229102717552834,0.0,0.3865051567554474,3166.250244140625,139.14185643196106,0.0,0.0,0.0,1,1789167785.1641874,38.990485676666665,-76.93969428666666,-9.004000000000001,0,1,13.249600000000001,10.975969000000001,95.667961,1,1,1789167786.1682084,0.987589832673321,-0.15362051083445935,0.0323230760797983,-0.004720148724475034,-178.89459818972972,-3.577216909127519,-17.717630632029902,0.006470110070068179,-0.015893317234510762,0.03016086027078881,0.0023535960388183595,0.058937967472076414,-9.695246615905761
2026-09-11T19:03:06.214,1.603868384000009,-114.65538787841797,-10318.984909057617,-41275.93963623047,-78.53894069671631,-0.30679504394531254,0.0,0.0,0.0,0.0,0.0,0.3865051567554474,3166.250244140625,139.14185643196106,0.0,0.0,0.0,1,1789167786.2066336,38.990485205,-76.93969403,-9.036000000000001,0,1,9.9225,10.3041,79.727041,1,1,1789167786.2082083,0.9873196497005917,-0.15566475865292562,0.030923700633305955,-0.0034809435170624586,-179.05281003473806,-3.438632301559847,-17.947886418645428,0.0009602801544472801,-0.0021430897885238373,0.03974935011539526,0.1837766240310669,0.12591738807678224,-9.715742514743805
2026-09-11T19:03:06.248,1.6373021440000173,-114.65644836425781,-10319.080352783203,-41276.32141113281,-78.5396671295166,-0.3075214767456055,-0.026032961905002594,-0.017832578904926778,-0.03989034293335442,-0.5333704287200227,0.0,0.3865051567554474,3166.250244140625,139.14185643196106,0.0,0.0,0.0,1,1789167786.2066336,38.990485205,-76.93969403,-9.036000000000001,0,1,9.9225,10.3041,79.727041,1,1,1789167786.2362084,0.9870553014018734,-0.15738356415396385,0.030672824242505687,-0.0033798759799930655,-179.06282777428882,-3.4104061044993905,-18.14672468456671,0.0035986943846871085,0.012241564840563027,0.04834457308269173,0.10532342273712157,0.01265057870864868,-9.715154115734101
2026-09-11T19:03:06.278,1.6707191039999998,-114.65731048583984,-10319.157943725586,-41276.631774902344,-78.5402576828003,-0.3081120300292969,-0.026032961905002594,-0.017832578904926778,-0.03989034293335442,0.0,0.0,0.3865051567554474,3166.250244140625,139.14185643196106,0.0,0.0,0.0,1,1789167786.2066336,38.990485205,-76.93969403,-9.036000000000001,0,1,9.9225,10.3041,79.727041,1,1,1789167786.2682083,0.9867458761806239,-0.15936650832472007,0.030411172084309265,-0.00317056420502944,-179.0844910178731,-3.382738650788407,-18.375943423664474,0.005618912993870544,0.022600093951149376,0.05058278331544926,0.11238421085357665,0.05913410047531128,-9.719959374313355
2026-09-11T19:03:06.310,1.7041260800000089,-114.6581802368164,-10319.236221313477,-41276.944885253906,-78.54085346221925,-0.3087078094482422,-0.026032961905002594,-0.017832578904926778,-0.03989034293335442,0.0,0.0,0.3865051567554474,3166.250244140625,139.14185643196106,0.0,0.0,0.0,1,1789167786.2066336,38.990485205,-76.93969403,-9.036000000000001,0,1,9.9225,10.3041,79.727041,1,1,1789167786.3082082,0.9863277410076904,-0.16191962441513205,0.030526243329191894,-0.00278765423536165,-179.11693323030562,-3.4004956685777197,-18.67172454020148,0.004827755243941515,0.01703598429579145,0.05549867768661649,0.17838296644210816,0.048640984802246094,-9.732904152526856
2026-09-11T19:03:06.343,1.7375329280000074,-114.6891860961914,-10322.026748657227,-41288.106994628906,-78.56209247589112,-0.3299468231201172,-0.8677306771278381,-0.5943955138325692,-1.329624896726397,-17.258824745383595,0.0,0.3865051567554474,3166.250244140625,139.14185643196106,0.0,0.0,0.0,1,1789167786.2066336,38.990485205,-76.93969403,-9.036000000000001,0,1,9.9225,10.3041,79.727041,1,1,1789167786.3362083,0.9860314427614557,-0.16369899188876888,0.030657973131432058,-0.00217315987329557,-179.17785754438484,-3.425346145527187,-18.876899801022166,0.0058365555515942375,0.012023398684063737,0.06133750216623832,0.23045627880096436,0.1273883856010437,-9.64454623456955
2026-09-11T19:03:06.377,1.7709328640000024,-114.69783782958984,-10322.805404663086,-41291.221618652344,-78.56801891326904,-0.3358732604980469,-0.24777819216251373,-0.16972806163132192,-0.37967086084314994,12.714618740626046,0.0,0.3865051567554474,3166.250244140625,139.14185643196106,0.0,0.0,0.0,1,1789167786.2066336,38.990485205,-76.93969403,-9.036000000000001,0,1,9.9225,10.3041,79.727041,1,1,1789167786.3682084,0.985709729790987,-0.16576236853474308,0.0299466459640165,-0.0015375853268001802,-179.25619207446718,-3.3553049577646266,-19.11350087591136,0.006499082535651284,-0.005835857419893439,0.06273376556783379,0.08502365690231324,0.11709140293121337,-9.717998044281005
2026-09-11T19:03:06.412,1.804347072000013,-114.69755554199219,-10322.779998779297,-41291.11999511719,-78.56782554626466,-0.33567989349365235,-0.04112733528017998,-0.028172224666923287,-0.06301947178535088,4.2363965940582435,0.0,0.3865051567554474,3166.250244140625,139.14185643196106,0.0,0.0,0.0,1,1789167786.2066336,38.990485205,-76.93969403,-9.036000000000001,0,1,9.9225,10.3041,79.727041,1,1,1789167786.4082084,0.985257978771917,-0.1684997085978769,0.029538714575393723,-0.0014240119174293575,-179.26763213521338,-3.3093312541371813,-19.430928746539127,0.005583133744204661,-0.037850780955075825,0.07011231951356502,0.31469540369033816,0.04167826318740845,-9.750163856811524
2026-09-11T19:03:06.444,1.8377655360000063,-114.70027160644531,-10323.024444580078,-41292.09777832031,-78.56968605041504,-0.337540397644043,-0.06695869565010071,-0.04586670652031899,-0.10260090041230972,-0.5294822004206797,0.0,0.3865051567554474,3166.250244140625,139.14185643196106,0.0,0.0,0.0,1,1789167786.2066336,38.990485205,-76.93969403,-9.036000000000001,0,1,9.9225,10.3041,79.727041,1,1,1789167786.4362082,0.9849200220781372,-0.17045254142341804,0.02959143508736604,-0.0016817257118107234,-179.2308969348035,-3.308784181798506,-19.659190300735812,0.003577226834887578,-0.0622661918612245,0.07444509938164093,0.30989014511108404,0.013140911216735841,-9.662002071857453
2026-09-11T19:03:06.477,1.871165504000004,-114.70249938964844,-10323.22494506836,-41292.89978027344,-78.57121208190918,-0.33906642913818363,-0.06695869565010071,-0.04586670652031899,-0.10260090041230972,0.0,0.0,0.3865051567554474,3166.250244140625,139.14185643196106,0.0,0.0,0.0,1,1789167786.2066336,38.990485205,-76.93969403,-9.036000000000001,0,1,9.9225,10.3041,79.727041,1,1,1789167786.4682083,0.9845664529292676,-0.17257137690734722,0.029024477242223106,-0.0023662965575930177,-179.1576937962383,-3.229544544242027,-19.90697983358891,0.0021612412127445784,-0.08797157561752218,0.06667768607856536,0.24281265800476076,-0.023437893886566166,-9.659354276313781
2026-09-11T19:03:06.511,1.9045775680000077,-114.73593139648438,-10326.233825683594,-41304.935302734375,-78.5941130065918,-0.3619673538208008,-0.7702677249908447,-0.5276333916187287,-1.1802822826116859,-14.418944160359437,0.0,0.3865051567554474,3166.250244140625,139.14185643196106,0.0,0.0,0.0,1,1789167786.2066336,38.990485205,-76.93969403,-9.036000000000001,0,1,9.9225,10.3041,79.727041,1,1,1789167786.5082083,0.9841776230445488,-0.17499212017322124,0.02731029271450604,-0.0051295309250262685,-178.87226037450478,-2.9784932249909537,-20.193587042829314,0.006220877052883389,-0.09971275456153844,0.06677141025939747,0.2439894560241699,-0.20034986280441283,-9.752321319847107
2026-09-11T19:03:06.545,1.937984288000024,-114.73915100097656,-10326.52359008789,-41306.09436035156,-78.59631843566895,-0.36417278289794924,-0.16627183556556702,-0.11389620736241342,-0.2547785597763361,12.384849044028062,0.0,0.38547518849372864,3157.812744140625,138.7710678577423,-0.0457763709127903,-16.479493528604507,-493.2987593093981,1,1789167786.2066336,38.990485205,-76.93969403,-9.036000000000001,0,1,9.9225,10.3041,79.727041,1,1,1789167786.5362084,0.9838940480917319,-0.17652147957641115,0.027409546190983927,-0.006433207242404781,-178.7184268452442,-2.9615038205481823,-20.375701505627195,0.0033513812296795116,-0.09400151365023739,0.05687521886766442,0.38098835878372195,-0.27537073654174804,-9.722999435863494
2026-09-11T19:03:06.578,1.97139900800002,-114.74211883544922,-10326.79069519043,-41307.16278076172,-78.59835140228272,-0.3662057495117188,-0.11375043541193008,-0.07791904825717211,-0.17429994688880643,1.0766859367741368,0.0,0.3815613090991974,3125.750244140625,137.36207127571106,-0.1831054836511612,-65.91797411441803,-1479.541967905739,1,1789167786.2066336,38.990485205,-76.93969403,-9.036000000000001,0,1,9.9225,10.3041,79.727041,1,1,1789167786.5682082,0.9836169566024809,-0.17795505668485126,0.02741979333206891,-0.008822438324607823,-178.44423770938258,-2.9119450427180227,-20.549487807993447,0.0025014058839582733,-0.08079617799672309,0.043794150656892114,0.2663486183929443,-0.5081806113815307,-9.862842267169952
2026-09-11T19:03:06.611,2.0048117760000252,-114.74588775634766,-10327.129898071289,-41308.519592285156,-78.60093311309815,-0.3687874603271485,-0.11375043541193008,-0.07791904825717211,-0.17429994688880643,0.0,0.0,0.37371066212654114,3061.437744140625,134.5358383655548,-0.3051758110523224,-109.86329197883606,-1315.2253014300181,1,1789167786.2066336,38.990485205,-76.93969403,-9.036000000000001,0,1,9.9225,10.3041,79.727041,1,1,1789167786.6082084,0.9833287693005343,-0.1793374979789931,0.027631362252455115,-0.01179411313345104,-178.10045135999485,-2.872361743886293,-20.71940892490684,0.0032754594072177583,-0.05046759158481763,0.024836907920505306,0.2690944804382324,-0.5432884189605712,-9.767227428092957
2026-09-11T19:03:06.645,2.038218496000013,-114.74967956542969,-10327.471160888672,-41309.88464355469,-78.60353050231934,-0.3713848495483399,-0.11375043541193008,-0.07791904825717211,-0.17429994688880643,0.0,0.0,0.3571911156177521,2926.109619140625,128.58880162239075,-0.6103516221046448,-219.72658395767212,-3288.6584489251222,1,1789167786.2066336,38.990485205,-76.93969403,-9.036000000000001,0,1,9.9225,10.3041,79.727041,1,1,1789167786.6362083,0.9831559935980091,-0.18004662400372964,0.028495898703625712,-0.01324723345621995,-177.9164281264526,-2.938360475985595,-20.80875970412629,-0.0019024088846738192,-0.038072437770079105,0.008930326183679385,0.5073960793685913,-0.4509097744369507,-9.753105851860045
2026-09-11T19:03:06.679,2.071630687999999,-114.75350952148438,-10327.815856933594,-41311.263427734375,-78.6061540222168,-0.3740083694458008,-0.11375043541193008,-0.07791904825717211,-0.17429994688880643,0.0,0.0,0.3516540825366974,2880.750244140625,126.59546971321106,-0.1220703199505806,-43.945315182209015,5260.991819259785,1,1789167786.2066336,38.990485205,-76.93969403,-9.036000000000001,0,1,9.9225,10.3041,79.727041,1,1,1789167786.6682084,0.9830156630873808,-0.18044923721514122,0.030067036299848214,-0.014637357736093738,-177.72555138077445,-3.0857310267157745,-20.864889572597225,-0.004157374278250493,-0.021658663352623633,-0.018746057896895495,0.5172027295303345,-0.5794749580574036,-9.805179164218902
2026-09-11T19:03:06.712,2.105050112000015,-114.75731658935547,-10328.158493041992,-41312.63397216797,-78.60876186370851,-0.37661621093750003,-0.11375043541193008,-0.07791904825717211,-0.17429994688880643,0.0,0.0,0.3362121880054474,2754.250244140625,121.03638768196106,-0.4882813096046448,-175.78127145767212,-3944.8901415955156,1,1789167786.2066336,38.990485205,-76.93969403,-9.036000000000001,0,1,9.9225,10.3041,79.727041,1,1,1789167786.7082083,0.9829637048041173,-0.18047669425939514,0.030589176045914795,-0.016577701161414937,-177.49560970044314,-3.104217949465575,-20.875662197798945,-0.007508406442079606,-0.03256732024343859,-0.03582811888493959,0.45326337047576903,-0.5583906602096558,-9.843915432357788
2026-09-11T19:03:06.744,2.138450943999999,-114.75987243652344,-10328.38851928711,-41313.55407714844,-78.61051261901856,-0.3783669662475586,-0.0622035376727581,-0.042609423305839306,-0.0953145653763405,1.057148065992782,0.0,0.31357958912849426,2568.843994140625,112.88865208625793,-0.5950928330421448,-214.23341989517212,-1151.2332518399105,1,1789167786.2066336,38.990485205,-76.93969403,-9.036000000000001,0,1,9.9225,10.3041,79.727041,1,1,1789167786.7362084,0.9829619656975728,-0.1803856481721381,0.030738929304394955,-0.01737556188159275,-177.4027367882359,-3.1047613690761455,-20.867960284109827,-0.0014346606451393388,-0.025244442300845982,-0.04998919683684599,0.5261267811775208,-0.33783909807205204,-9.678673377132416
2026-09-11T19:03:06.779,2.171858080000021,-114.75982666015625,-10328.384399414062,-41313.53759765625,-78.61048126220703,-0.37833560943603517,0.0,0.0,0.0,1.2754587315060721,0.0,0.2916736900806427,2389.390869140625,105.00252842903137,-1.0986329317092896,-395.50785541534424,-5426.218982676366,1,1789167786.2066336,38.990485205,-76.93969403,-9.036000000000001,0,1,9.9225,10.3041,79.727041,1,1,1789167786.7682083,0.9830941452085415,-0.1799344816716363,0.029052733296163872,-0.017476345449453888,-177.4279892640216,-2.91382662526294,-20.80937087321006,-0.0029768335722015283,-0.024241925178500438,-0.07321568945653613,-0.08374879238128663,-0.28772711574554444,-9.86529392971039
2026-09-11T19:03:06.813,2.2052664960000072,-114.75982666015625,-10328.384399414062,-41313.53759765625,-78.61048126220703,-0.37833560943603517,0.0,0.0,0.0,0.0,0.0,0.2705078423023224,2216.000244140625,97.38282322883606,0.1068115308880806,38.452151119709015,12989.54151358848,1,1789167786.2066336,38.990485205,-76.93969403,-9.036000000000001,0,1,9.9225,10.3041,79.727041,1,1,1789167786.8082082,0.9832845349535709,-0.17923531012847996,0.027743254413898293,-0.016016827364157892,-177.6219544069398,-2.7981468026369836,-20.719252533659866,-0.005900085536366831,-0.017172818109147805,-0.08499736003919864,0.3629441224861145,-0.07678607076644897,-9.709270125637055
2026-09-11T19:03:06.845,2.238680800000026,-114.75982666015625,-10328.384399414062,-41313.53759765625,-78.61048126220703,-0.37833560943603517,0.0,0.0,0.0,0.0,0.0,0.23934748768806458,1960.734619140625,86.16509556770325,-0.9918214082717896,-357.05570697784424,-11836.483504110507,1,1789167786.2066336,38.990485205,-76.93969403,-9.036000000000001,0,1,9.9225,10.3041,79.727041,1,1,1789167786.8362083,0.983440899519668,-0.17861354566758306,0.026865729756992116,-0.014813204265950829,-177.77769295918313,-2.7254441356400627,-20.640694712663365,0.003023259330304578,-0.027718097449697547,-0.08194285931528338,0.14455002338409423,-0.20162472732543943,-9.659354276313781
2026-09-11T19:03:06.878,2.272083328000008,-114.75982666015625,-10328.384399414062,-41313.53759765625,-78.61048126220703,-0.37833560943603517,0.0,0.0,0.0,0.0,0.0,0.211307555437088,1731.031494140625,76.07071995735168,-1.0986329317092896,-395.50785541534424,-1151.1747984320407,1,1789167786.2066336,38.990485205,-76.93969403,-9.036000000000001,0,1,9.9225,10.3041,79.727041,1,1,1789167786.8682084,0.9836435433209251,-0.17761030680738193,0.027003685307352202,-0.013067500857650134,-177.97466798238102,-2.7789122784480864,-20.519638349022195,-0.0039414770497787945,0.001486322390998371,-0.09538363988489171,0.028047019462585452,-0.05727083694458007,-9.971303817958832
2026-09-11T19:03:06.912,2.305486528000017,-114.75982666015625,-10328.384399414062,-41313.53759765625,-78.61048126220703,-0.37833560943603517,0.0,0.0,0.0,0.0,0.0,0.182010680437088,1491.031494140625,65.52384495735168,-1.4801026582717896,-532.8369569778442,-4111.255854602607,1,1789167786.2066336,38.990485205,-76.93969403,-9.036000000000001,0,1,9.9225,10.3041,79.727041,1,1,1789167786.9082084,0.9839115687252081,-0.17629711568800635,0.02681771613393627,-0.010870235974884866,-178.23022550124082,-2.8051610747109064,-20.360235886262487,-0.008908858633879855,0.021187249921659965,-0.1035742955315759,0.4767993308639526,0.2027034588432312,-9.762324103012086
2026-09-11T19:03:06.947,2.338912736000026,-114.75982666015625,-10328.384399414062,-41313.53759765625,-78.61048126220703,-0.37833560943603517,0.0,0.0,0.0,0.0,0.0,0.13206294178962708,1081.859619140625,47.54265904426575,-1.2817384004592896,-461.42582416534424,2136.381512748361,1,1789167786.2066336,38.990485205,-76.93969403,-9.036000000000001,0,1,9.9225,10.3041,79.727041,1,1,1789167786.9362082,0.9840784823868988,-0.17536271401384912,0.027567109103198317,-0.008804176990904017,-178.4509975681951,-2.933022737671107,-20.24774378231152,-0.004272391475956919,0.07641976489734731,-0.11261353026057973,0.28998264528274537,0.1857379540634155,-9.591590323696137
2026-09-11T19:03:06.979,2.372325728000021,-114.75982666015625,-10328.384399414062,-41313.53759765625,-78.61048126220703,-0.37833560943603517,0.0,0.0,0.0,0.0,0.0,0.09325030446052551,763.906494140625,33.570109605789185,-1.5563966035842896,-560.3027772903442,-2959.236728186869,1,1789167786.2066336,38.990485205,-76.93969403,-9.036000000000001,0,1,9.9225,10.3041,79.727041,1,1,1789167786.9682083,0.9843000538574725,-0.17419504576970507,0.027617416171598706,-0.006838737417951091,-178.67545404630317,-2.979870020734664,-20.106299176199244,0.0008862781941627205,0.08249595415524039,-0.1197641442060005,0.030302548999786377,0.21025457946777346,-9.740357206649781
2026-09-11T19:03:07.012,2.405730432000013,-114.75982666015625,-10328.384399414062,-41313.53759765625,-78.61048126220703,-0.37833560943603517,0.0,0.0,0.0,0.0,0.0,0.0493183434009552,404.015869140625,17.754603624343872,-0.8544923067092896,-307.61723041534424,7564.370181967885,1,1789167786.2066336,38.990485205,-76.93969403,-9.036000000000001,0,1,9.9225,10.3041,79.727041,1,1,1789167787.0082083,0.9845336525002647,-0.1728806458505274,0.028039590214170778,-0.004421624748243111,-178.94409048876108,-3.077289378382342,-19.94716847989875,0.000108035880698449,0.0767990249438057,-0.11143578208133395,0.24575465305328367,0.20652805240631103,-9.562170373210908
2026-09-11T19:03:07.045,2.439104384000018,-114.75982666015625,-10328.384399414062,-41313.53759765625,-78.61048126220703,-0.37833560943603517,0.0,0.0,0.0,0.0,0.0,0.0044422447681427,36.390869140625,1.599208116531372,-1.4648438692092896,-527.3437929153442,-6583.774151169335,1,1789167786.2066336,38.990485205,-76.93969403,-9.036000000000001,0,1,9.9225,10.3041,79.727041,1,1,1789167787.0362084,0.9846594867872156,-0.172146212306786,0.028312974878022753,-0.003122838759930165,-179.08771924552502,-3.134617534097185,-19.858346768736208,0.007510849903032398,0.05620955029095378,-0.10339365395399447,0.28252959115982057,0.046385455265045165,-9.711917921180724
2026-09-11T19:03:07.080,2.4725127359999988,-114.75982666015625,-10328.384399414062,-41313.53759765625,-78.61048126220703,-0.37833560943603517,0.0,0.0,0.0,0.0,0.0,-0.03564262390136719,-291.984375,-12.831344604492188,-1.5716553926467896,-565.7959413528442,-1150.9741168173177,1,1789167786.2066336,38.990485205,-76.93969403,-9.036000000000001,0,1,9.9225,10.3041,79.727041,1,1,1789167787.0762084,0.9848401132212958,-0.1712168095799528,0.027746854400188585,-0.002206258920012604,-179.20544041860455,-3.0895638375394308,-19.746295806701426,0.007743327759398042,0.03695682331220433,-0.1047075378148958,0.04334539371490479,0.0870830534362793,-9.677790778617858
2026-09-11T19:03:07.113,2.505940064000015,-114.75982666015625,-10328.384399414062,-41313.53759765625,-78.61048126220703,-0.37833560943603517,0.0,0.0,0.0,0.0,0.0,-0.07900047302246094,-647.171875,-28.440170288085938,-0.9460450410842896,-340.57621479034424,6737.592863012901,1,1789167786.2066336,38.990485205,-76.93969403,-9.036000000000001,0,1,9.9225,10.3041,79.727041,1,1,1789167787.1082084,0.9849573851872013,-0.17051167313697943,0.02795930335843133,-0.0017309087007427464,-179.25720954956444,-3.1234313589423155,-19.663176825223747,0.01421378689531662,0.017186780743163762,-0.10078892457831815,-0.05364237638473511,0.15886773262023926,-9.605908032932282
2026-09-11T19:03:07.145,2.5393478720000076,-114.76079559326172,-10328.471603393555,-41313.88641357422,-78.61114498138429,-0.3789993286132813,-0.02577344700694084,-0.017654811199754476,-0.03949268790209927,-0.5284636214312043,0.0,-0.10849571228027344,-888.796875,-39.05845642089844,-1.3122559785842896,-472.41215229034424,-3946.2612303096626,1,1789167786.2066336,38.990485205,-76.93969403,-9.036000000000001,0,1,9.9225,10.3041,79.727041,1,1,1789167787.1362083,0.9850351041307315,-0.16998736227549405,0.028414018899916075,-0.001668480366749408,-179.2570251857877,-3.1764072399569567,-19.602780771845854,0.01720842282588849,0.01299537254449938,-0.09783198775958936,0.28252959115982057,0.037853669624328616,-9.769679090633392
2026-09-11T19:03:07.179,2.572767904000017,-114.76165771484375,-10328.549194335938,-41314.19677734375,-78.61173553466797,-0.3795898818969727,-0.02577344700694084,-0.017654811199754476,-0.03949268790209927,0.0,0.0,-0.14287757873535156,-1170.453125,-51.43592834472656,-1.2207032442092896,-439.45316791534424,986.2044529158684,1,1789167786.2066336,38.990485205,-76.93969403,-9.036000000000001,0,1,9.9225,10.3041,79.727041,1,1,1789167787.1682084,0.9851859204916753,-0.1691927189311429,0.02794941868906569,-0.0011644400375640032,-179.32563245564506,-3.1343081959285874,-19.50792218711581,0.018967540178973574,0.01632877688288335,-0.10074494228116788,-0.2448720545387268,0.1853456880569458,-9.58609859960556
2026-09-11T19:03:07.212,2.606177376000005,-114.76251983642578,-10328.62678527832,-41314.50714111328,-78.61232608795167,-0.3801804351806641,-0.02577344700694084,-0.017654811199754476,-0.03949268790209927,0.0,0.0,-0.17635345458984375,-1444.6875,-63.48724365234375,-1.3275147676467896,-477.90531635284424,-1150.9355322201307,1,1789167787.1810012,38.990485496666665,-76.93969347666666,-9.016000000000002,0,1,9.815689,9.891025,59.089969,1,1,1789167787.2082083,0.9853999552421113,-0.16764952802665192,0.02965255450288466,-0.0011357696682360871,-179.30089221946147,-3.328374621253559,-19.3312687921288,0.018941360240193657,0.030054046120566755,-0.12412938719816352,-0.15278760951995848,0.14258869335174562,-9.73270801952362
2026-09-11T19:03:07.245,2.6395846720000122,-114.80162811279297,-10332.146530151367,-41328.58612060547,-78.63911525726319,-0.40696960449218755,-0.7010101675987244,-0.4801919648051262,-1.0741588332254959,-13.84539334177998,0.0,-0.20885848999023438,-1710.96875,-75.18905639648438,-1.2817384004592896,-461.42582416534424,493.2902138352197,1,1789167787.1810012,38.990485496666665,-76.93969347666666,-9.016000000000002,0,1,9.815689,9.891025,59.089969,1,1,1789167787.2362084,0.9855946260396492,-0.1665990424704915,0.02909318535797222,-0.0012564773798792333,-179.30152889255316,-3.263585621112075,-19.208390050810472,0.01956548998070683,0.029128672551159362,-0.11436008124305044,-0.007845320129394531,0.08806371845245362,-9.794686048545838
2026-09-11T19:03:07.280,2.6729881920000196,-114.80248260498047,-10332.223434448242,-41328.89373779297,-78.63970058441163,-0.407554931640625,-0.17494910955429077,-0.1198401400446892,-0.26807475851084706,10.787839867186385,0.0,-0.2315387725830078,-1896.765625,-83.35395812988281,-0.30517590045928955,-109.86332416534424,10524.71416185847,1,1789167787.1810012,38.990485496666665,-76.93969347666666,-9.016000000000002,0,1,9.815689,9.891025,59.089969,1,1,1789167787.2762084,0.9857608163432964,-0.16562944795550172,0.029019885653316795,-0.0005875106995344024,-179.38182740829265,-3.268704476971894,-19.093355221148396,0.01895061048522923,0.00989566779295745,-0.112717028285223,0.18465922254562378,0.2098623134613037,-9.713486985206604
2026-09-11T19:03:07.313,2.706407519999999,-114.80841064453125,-10332.756958007812,-41331.02783203125,-78.6437612915039,-0.4116156387329102,-0.17494910955429077,-0.1198401400446892,-0.26807475851084706,0.0,0.0,-0.26126861572265625,-2140.3125,-94.05670166015625,-0.45776379108428955,-164.79496479034424,-1643.708713264184,1,1789167787.1810012,38.990485496666665,-76.93969347666666,-9.016000000000002,0,1,9.815689,9.891025,59.089969,1,1,1789167787.3082082,0.9859202601228128,-0.1646433812067119,0.029206793087763347,0.0008723197322096551,-179.54675151207758,-3.3180412632247482,-18.97433540417726,0.01832595714594046,0.008060279551560212,-0.11293781243560028,0.38020382677078246,0.18142302799224852,-9.4822461743927
2026-09-11T19:03:07.346,2.739826528000009,-114.82892608642578,-10334.60334777832,-41338.41339111328,-78.65781436920166,-0.4256687164306641,-0.665744960308075,-0.45603529781103136,-1.0201219081313324,-10.059998123410576,0.0,-0.26904296875,-2204.0,-96.85546875,-0.6561280488967896,-236.20609760284424,-2136.8417881368277,1,1789167787.1810012,38.990485496666665,-76.93969347666666,-9.016000000000002,0,1,9.815689,9.891025,59.089969,1,1,1789167787.3362083,0.9860535438862735,-0.1636417336302398,0.030314099873992237,0.0009203002988462406,-179.53469328203653,-3.4446257187113005,-18.859417508888423,0.01497701937721374,-0.015145618182956393,-0.132420050210987,0.2268278182411194,0.0827681273651123,-9.721332305335999
2026-09-11T19:03:07.379,2.7732311040000184,-114.84284210205078,-10335.85578918457,-41343.42315673828,-78.6673468399048,-0.4352011871337891,-0.3531631827354431,-0.24191678017377855,-0.5411524252276715,6.4098558723568955,0.0,-0.2924957275390625,-2396.125,-105.2984619140625,-0.19836437702178955,-71.41117572784424,4933.303804692907,1,1789167787.1810012,38.990485496666665,-76.93969347666666,-9.016000000000002,0,1,9.815689,9.891025,59.089969,1,1,1789167787.3682084,0.9862589805225264,-0.16230335139816518,0.0308348716860712,-0.00023696348711920782,-179.3986122369973,-3.4826001388266197,-18.70848295913116,0.01887992465052346,-0.04004570702238389,-0.1378239386410118,0.3893240114212036,-0.09708583660125733,-9.723685901374816
2026-09-11T19:03:07.413,2.806735104000012,-114.8532943725586,-10336.796493530273,-41347.185974121094,-78.67450664520264,-0.4423609924316407,-0.32711470127105713,-0.22407357037067416,-0.5012383016523665,0.5325695380583759,0.0,-0.2923393249511719,-2394.84375,-105.24215698242188,-0.0457763709127903,-16.479493528604507,1639.555939566927,1,1789167787.1810012,38.990485496666665,-76.93969347666666,-9.016000000000002,0,1,9.815689,9.891025,59.089969,1,1,1789167787.4082084,0.9865158870724879,-0.16089764364249642,0.029959303843500925,-0.0008904701496015489,-179.34581353943346,-3.3723199671844077,-18.54565957173983,0.02306574779558146,-0.04081696801884019,-0.1316713039618814,0.26183755931854247,0.16386912420272826,-9.536280816783906
2026-09-11T19:03:07.446,2.840141568000007,-114.87620544433594,-10338.858489990234,-41355.43395996094,-78.69020072937012,-0.45805507659912115,-0.642242968082428,-0.4399364331364632,-0.9841097734799183,-6.461709409466995,0.0,-0.29738616943359375,-2436.1875,-107.05902099609375,-0.1373291164636612,-49.43848192691803,-986.6051192463326,1,1789167787.1810012,38.990485496666665,-76.93969347666666,-9.016000000000002,0,1,9.815689,9.891025,59.089969,1,1,1789167787.4362082,0.9867295624271772,-0.1596421835156365,0.02963022950797863,-0.0010924165578626234,-179.33329232556466,-3.3322099460954457,-18.399799936878292,0.032415651131440286,-0.020949361544613136,-0.15164310659245253,0.16514398872375488,0.11473780689239502,-9.72623563041687
2026-09-11T19:03:07.481,2.873556064000013,-114.89033508300781,-10340.130157470703,-41360.52062988281,-78.69987953186036,-0.4677338790893555,-0.43605533242225647,-0.2986979027092457,-0.6681681789308459,4.2268640061843845,0.0,-0.3018932342529297,-2473.109375,-108.68156433105469,-0.1068115383386612,-38.45215380191803,328.78928130467756,1,1789167787.1810012,38.990485496666665,-76.93969347666666,-9.016000000000002,0,1,9.815689,9.891025,59.089969,1,1,1789167787.4762084,0.9870220349988716,-0.15769675418943088,0.03031078652009316,0.0007016874928655854,-179.53077410809178,-3.4430349378132807,-18.168985072435223,0.03622413409221711,-0.0004932300466135975,-0.1539326295052187,0.18799348360061646,0.24820631559371947,-9.44409830526352
2026-09-11T19:03:07.514,2.906975296000013,-114.91057586669922,-10341.95182800293,-41367.80731201172,-78.71374446868897,-0.48159881591796877,-0.6443191170692444,-0.4413585951924324,-0.9872910593960986,-4.268820195604342,0.0,-0.3049278259277344,-2497.96875,-109.77401733398438,-0.0915527492761612,-32.95898973941803,164.37134349766043,1,1789167787.1810012,38.990485496666665,-76.93969347666666,-9.016000000000002,0,1,9.815689,9.891025,59.089969,1,1,1789167787.5082083,0.9872578562573313,-0.1557743543403474,0.032477545238327396,0.0012185414719542375,-179.55719064167093,-3.6985502693287406,-17.947266779880195,0.051025922412530615,0.009551663397389368,-0.1648576924910024,0.45885316106796264,0.0753150732421875,-9.505684068279267
2026-09-11T19:03:07.546,2.940383744000002,-114.93427276611328,-10344.084548950195,-41376.33819580078,-78.7299768447876,-0.4978311920166016,-0.7232282757759094,-0.495411368906498,-1.108203670603296,-1.6179372868228945,0.0,-0.3086528778076172,-2528.484375,-111.11503601074219,-0.1373291164636612,-49.43848192691803,-493.2732040562178,1,1789167787.1810012,38.990485496666665,-76.93969347666666,-9.016000000000002,0,1,9.815689,9.891025,59.089969,1,1,1789167787.5362084,0.9875036664791128,-0.15392493646696367,0.03377670693180274,0.0016603291220200532,-179.59118361996713,-3.8543502636280045,-17.732875235764023,0.06520672258498454,0.025498387707011155,-0.1868629782330721,0.4669926807022095,0.19436780620574953,-9.160588049087524
2026-09-11T19:03:07.580,2.9738020480000102,-114.95663452148438,-10346.097106933594,-41384.388427734375,-78.74529464721681,-0.5131489944458009,-0.671565592288971,-0.46002243071794513,-1.0290408704320522,1.0589687073450504,0.0,-0.3113231658935547,-2550.359375,-112.07633972167969,-0.061035171151161194,-21.97266161441803,821.8795398022909,1,1789167787.1810012,38.990485496666665,-76.93969347666666,-9.016000000000002,0,1,9.815689,9.891025,59.089969,1,1,1789167787.5682082,0.9878652090533004,-0.15151160583111212,0.03405696564002822,0.0025855622117074584,-179.70069729818331,-3.9031917628354305,-17.449525949832463,0.08615870212347568,0.01707123994668174,-0.19588633046588277,0.073157610206604,0.4730728038024902,-10.368375083007813
2026-09-11T19:03:07.613,3.0072119360000045,-114.97904205322266,-10348.113784790039,-41392.455139160156,-78.76064380645752,-0.5284981536865235,-0.671565592288971,-0.46002243071794513,-1.0290408704320522,0.0,0.0,-0.3115558624267578,-2552.265625,-112.16011047363281,0.0,0.0,657.6694185392608,1,1789167787.1810012,38.990485496666665,-76.93969347666666,-9.016000000000002,0,1,9.815689,9.891025,59.089969,1,1,1789167787.6082084,0.9883213421060224,-0.14836207446383132,0.03477090095882477,0.0007772033524910506,-179.4956722085382,-3.954270300774125,-17.09185368857409,0.01878131354778578,-0.019773882293394954,-0.1854129586905152,0.7810016188812257,-0.29616083488464356,-8.517467931480407
2026-09-11T19:03:07.648,3.040632256000009,-115.00483703613281,-10350.435333251953,-41401.74133300781,-78.77831336975099,-0.5461677169799806,-0.7503476142883301,-0.5139881157875061,-1.1497586698897315,-1.6147566830465234,0.0,-0.3115558624267578,-2552.265625,-112.16011047363281,0.0,0.0,0.0,1,1789167787.1810012,38.990485496666665,-76.93969347666666,-9.016000000000002,0,1,9.815689,9.891025,59.089969,1,1,1789167787.6362083,0.9886175976578466,-0.14625206700289606,0.03527252230012868,-0.0011948511184504734,-179.27172239395586,-3.9790994118387437,-16.855440910678656,0.011635062925494998,-0.033780673139425045,-0.1966853421974458,0.19387747369766234,-0.31469540369033816,-10.07329297964096
2026-09-11T19:03:07.682,3.074048959999999,-115.02628326416016,-10352.365493774414,-41409.461975097656,-78.7930040359497,-0.560858383178711,-0.6730272173881531,-0.4610236439108849,-1.0312805205594229,1.584969956242168,0.0,-0.3115558624267578,-2552.265625,-112.16011047363281,0.0,0.0,0.0,1,1789167787.1810012,38.990485496666665,-76.93969347666666,-9.016000000000002,0,1,9.815689,9.891025,59.089969,1,1,1789167787.6762083,0.9891288690831929,-0.14293385573063924,0.03425062729719778,-0.0045703131102273024,-178.91852823964663,-3.810115703255381,-16.48116452687904,0.012402658730522105,-0.06262852221393853,-0.19379786948294636,0.104735023727417,-0.754523663444519,-9.598160779304505
2026-09-11T19:03:07.714,3.107461280000024,-115.04889678955078,-10354.40071105957,-41417.60284423828,-78.8084943008423,-0.5763486480712892,-0.6730272173881531,-0.4610236439108849,-1.0312805205594229,0.0,0.0,-0.3115558624267578,-2552.265625,-112.16011047363281,0.0,0.0,0.0,1,1789167787.1810012,38.990485496666665,-76.93969347666666,-9.016000000000002,0,1,9.815689,9.891025,59.089969,1,1,1789167787.7082083,0.9895312758194131,-0.14058800931208634,0.03178763472745363,-0.007239619555121913,-178.6643827267432,-3.4899873067360216,-16.2130926088079,0.012894317980808907,-0.0737488875430204,-0.1790458230463147,0.015788706760406494,-0.6516519032478332,-9.829597723121644
2026-09-11T19:03:07.747,3.1408638720000113,-115.06857299804688,-10356.171569824219,-41424.686279296875,-78.82197250366211,-0.5898268508911133,-0.6204211115837097,-0.4249884614348412,-0.950672113087958,1.0788139577927751,0.0,-0.3115558624267578,-2552.265625,-112.16011047363281,0.0,0.0,0.0,1,1789167787.1810012,38.990485496666665,-76.93969347666666,-9.016000000000002,0,1,9.815689,9.891025,59.089969,1,1,1789167787.7362084,0.9898014770017457,-0.13870118927155317,0.030974771620958488,-0.00977648929057689,-178.39584329458287,-3.359786016691489,-16.00091595756023,0.01018486885001291,-0.0757162226758684,-0.17105657839531066,-0.04609125576019287,-0.8794603865051269,-10.132819346122742
2026-09-11T19:03:07.780,3.1742668159999994,-115.0835952758789,-10357.523574829102,-41430.094299316406,-78.83226276397706,-0.6001171112060547,-0.49126437306404114,-0.3365160955488682,-0.7527650669937094,2.648639769177367,0.0,-0.3116779327392578,-2553.265625,-112.20405578613281,0.0,0.0,0.0,1,1789167787.1810012,38.990485496666665,-76.93969347666666,-9.016000000000002,0,1,9.815689,9.891025,59.089969,1,1,1789167787.7762084,0.9901149134565449,-0.13663302607578193,0.02882140590040261,-0.013160581227193335,-178.052398259085,-3.0654496101024633,-15.76617814140396,0.006184399671516707,-0.05919755397036808,-0.15893823379993843,-0.08551398941040039,-0.5600577907371521,-9.589628993663789
2026-09-11T19:03:07.814,3.2076656000000128,-115.1017837524414,-10359.160537719727,-41436.642150878906,-78.84472187042238,-0.6125762176513673,-0.5433613657951355,-0.37220253556966787,-0.8325933598104587,-1.0684951889501537,0.0,-0.3118629455566406,-2554.78125,-112.27066040039062,-0.015258789993822575,-5.493164397776127,-164.47198789554506,1,1789167787.1810012,38.990485496666665,-76.93969347666666,-9.016000000000002,0,1,9.815689,9.891025,59.089969,1,1,1789167787.8082082,0.9903023533871765,-0.1351391799667579,0.02815508359580927,-0.015682543844822053,-177.7808342868548,-2.9534980278938847,-15.598676019359353,0.008189259383282594,-0.04203695316598422,-0.15345545648772344,0.1837766240310669,-0.5085728773880005,-9.614832084579467
2026-09-11T19:03:07.848,3.2410778880000066,-115.11933135986328,-10360.739822387695,-41442.95928955078,-78.85674198150636,-0.6245963287353516,-0.5171006917953491,-0.3542139738798142,-0.7923540933245655,0.5383816184589634,0.0,-0.3138923645019531,-2571.40625,-113.00125122070312,-0.015258795581758022,-5.493166409432888,-6.02070939041889e-05,1,1789167787.1810012,38.990485496666665,-76.93969347666666,-9.016000000000002,0,1,9.815689,9.891025,59.089969,1,1,1789167787.8362083,0.990454889437225,-0.13408247353521108,0.02670536952763586,-0.01754495708077432,-177.59486550051085,-2.7624967227464183,-15.47705667862969,0.006861238355440109,-0.016927948415093003,-0.1504178854575525,-0.25614970222473143,-0.43963212675094604,-9.772915285186768
2026-09-11T19:03:07.881,3.2744824320000134,-115.13482666015625,-10362.134399414062,-41448.53759765625,-78.86735626220704,-0.6352106094360352,-0.4397803843021393,-0.30124956324696545,-0.6738760809926743,1.5855450873042285,0.0,-0.3138751983642578,-2571.265625,-112.99507141113281,0.0,0.0,164.44368794352553,1,1789167787.1810012,38.990485496666665,-76.93969347666666,-9.016000000000002,0,1,9.815689,9.891025,59.089969,1,1,1789167787.8762083,0.9905237502965173,-0.13352388589397757,0.026621176506500414,-0.018038429967838377,-177.54163550989222,-2.746705377481145,-15.413478931951488,0.0007555530331883453,0.012446641027672362,-0.11907840434289192,0.10699055326461791,-0.19593687023162842,-9.674260384559632
2026-09-11T19:03:07.914,3.3078869760000202,-115.14690399169922,-10363.22135925293,-41452.88543701172,-78.87562923431398,-0.6434835815429688,-0.3882335126399994,-0.2659399561583996,-0.59489073943808,1.0570300582028196,0.0,-0.3138751983642578,-2571.265625,-112.99507141113281,0.0,0.0,0.0,1,1789167787.1810012,38.990485496666665,-76.93969347666666,-9.016000000000002,0,1,9.815689,9.891025,59.089969,1,1,1789167787.9082084,0.9905635358701216,-0.13288335381287136,0.027688258264811687,-0.018954050706559995,-177.42283612039884,-2.855462960890303,-15.345384217399287,-0.001377064779823526,0.03425278470208951,-0.12212487655224802,0.16573238773345947,-0.5274997122001648,-9.68769549528122
2026-09-11T19:03:07.949,3.341311296000015,-115.16480255126953,-10364.832229614258,-41459.32891845703,-78.88788974761964,-0.6557440948486328,-0.5183982849121094,-0.35510282516479497,-0.7943423970221782,-2.6676045767396226,0.0,-0.3139667510986328,-2572.015625,-113.02803039550781,-0.015258789993822575,-5.493164397776127,-164.3463321849782,1,1789167787.1810012,38.990485496666665,-76.93969347666666,-9.016000000000002,0,1,9.815689,9.891025,59.089969,1,1,1789167787.9362082,0.990612594614294,-0.13205521622463365,0.028849163437486832,-0.020391984414442337,-177.24387188469635,-2.9675837784929624,-15.25768433660476,0.0036646678304124935,0.03547521331018634,-0.12402309664671705,-0.28164699264526366,-0.38746074789047247,-9.939530271434784
2026-09-11T19:03:07.983,3.3747237760000246,-115.178466796875,-10366.06201171875,-41464.248046875,-78.89724975585938,-0.665104103088379,-0.386883020401001,-0.2650148689746857,-0.592821378343516,2.696236741184223,0.0,-0.3139972686767578,-2572.265625,-113.03901672363281,0.0,0.0,164.40456972288575,1,1789167787.1810012,38.990485496666665,-76.93969347666666,-9.016000000000002,0,1,9.815689,9.891025,59.089969,1,1,1789167787.9762084,0.9906556268890734,-0.1316146003830904,0.028950996201707355,-0.020996802088535323,-177.17484920583829,-2.971198821061136,-15.208830318568314,0.0031892401421692385,0.03136129773031051,-0.11245645062790023,0.18142302799224852,-0.6286062753677368,-10.042303965129852
2026-09-11T19:03:08.015,3.4081393920000096,-115.1913833618164,-10367.224502563477,-41468.898010253906,-78.90609760284424,-0.6739519500732423,-0.386883020401001,-0.2650148689746857,-0.592821378343516,0.0,0.0,-0.3139972686767578,-2572.265625,-113.03901672363281,0.0,0.0,0.0,1,1789167787.1810012,38.990485496666665,-76.93969347666666,-9.016000000000002,0,1,9.815689,9.891025,59.089969,1,1,1789167788.0082083,0.9906397569645501,-0.13098146912803352,0.031381625886926105,-0.022179274626833282,-177.005090700861,-3.2312249167416955,-15.148305144423961,0.0028152160834668534,0.025624225946079947,-0.10235675384538465,0.20123246131896974,-0.49229383811950683,-9.754086516876221
2026-09-11T19:03:08.047,3.4415448000000026,-115.20236206054688,-10368.212585449219,-41472.850341796875,-78.91361801147461,-0.6814723587036133,-0.3352202773094177,-0.22962588995695116,-0.5136584868399939,1.059378739446676,0.0,-0.3139972686767578,-2572.265625,-113.03901672363281,0.0,0.0,0.0,1,1789167787.1810012,38.990485496666665,-76.93969347666666,-9.016000000000002,0,1,9.815689,9.891025,59.089969,1,1,1789167788.0362084,0.9906759392318104,-0.13068883914043536,0.03099128151369693,-0.02282873674635836,-176.93812700750985,-3.1779761557086084,-15.114958800024334,0.0010882127886184644,0.020755280931791367,-0.10195986597348114,0.15455280654907227,-0.5181833945465087,-9.647095963611603
2026-09-11T19:03:08.082,3.474947904000004,-115.21350860595703,-10369.215774536133,-41476.86309814453,-78.92125339508057,-0.6891077423095704,-0.3352202773094177,-0.22962588995695116,-0.5136584868399939,0.0,0.0,-0.3139972686767578,-2572.265625,-113.03901672363281,0.0,0.0,0.0,1,1789167787.1810012,38.990485496666665,-76.93969347666666,-9.016000000000002,0,1,9.815689,9.891025,59.089969,1,1,1789167788.0762084,0.9907115292810943,-0.13070334454153995,0.02990097553123443,-0.022654649356183092,-176.97453141119766,-3.0567131729559294,-15.111858818504956,-5.044001538263613e-05,0.009503841375884722,-0.09626730008517644,-0.12885938312530518,-0.33362223850250244,-9.739768807640075
2026-09-11T19:03:08.116,3.508364671999999,-115.22586059570312,-10370.327453613281,-41481.309814453125,-78.92971450805665,-0.6975688552856446,-0.3612687587738037,-0.24746909976005557,-0.553572610415299,-0.5339597714269393,0.0,-0.3134632110595703,-2567.890625,-112.84675598144531,0.0457763709127903,16.479493528604507,493.15043060438853,1,1789167787.1810012,38.990485496666665,-76.93969347666666,-9.016000000000002,0,1,9.815689,9.891025,59.089969,1,1,1789167788.1082084,0.9908712779795855,-0.12963800933552863,0.030339016875390094,-0.021157529762695318,-177.14150523968027,-3.1321140836768797,-14.985774912805248,-0.012983678838511016,0.03328499963185866,-0.10839070613537945,0.5858492806625366,-0.8107157688713074,-11.983530364646912
2026-09-11T19:03:08.149,3.5417862720000244,-115.2416000366211,-10371.744003295898,-41486.976013183594,-78.94049602508545,-0.7083503723144532,-0.5188329815864563,-0.3554005923867226,-0.7950084833274924,-3.229393345219413,0.0,-0.31075477600097656,-2545.703125,-111.87171936035156,0.2136230617761612,76.90430223941803,1807.9567917385064,1,1789167787.1810012,38.990485496666665,-76.93969347666666,-9.016000000000002,0,1,9.815689,9.891025,59.089969,1,1,1789167788.1362083,0.9909505373435562,-0.12831361748612474,0.03161126198931716,-0.023523949957110876,-176.85733354885997,-3.24545030131821,-14.844882982505599,-0.00042341687653382434,0.011057533476010075,-0.11134711935533263,-0.3123418076515198,-1.960937766342163,-8.430384878044128
2026-09-11T19:03:08.182,3.575202752000024,-115.25897979736328,-10373.308181762695,-41493.23272705078,-78.95240116119385,-0.7202555084228516,-0.5188329815864563,-0.3554005923867226,-0.7950084833274924,0.0,0.0,-0.30544090270996094,-2502.171875,-109.95872497558594,0.1068115383386612,38.45215380191803,-1150.6941616082968,1,1789167788.1729672,38.99048634333333,-76.93969156666667,-9.007000000000001,0,1,9.174840999999999,10.272025000000001,71.84257600000001,1,1,1789167788.1762083,0.9911884492176936,-0.12755649095617605,0.02737493676470816,-0.022921880147560213,-176.99144474031414,-2.77533381143533,-14.739126825577355,-0.005039812748058826,-0.03198699826715048,-0.033461626952160484,-0.46728688020706177,-0.07855126779556275,-9.147643270874022
2026-09-11T19:03:08.214,3.6086186560000044,-115.260009765625,-10373.40087890625,-41493.603515625,-78.95310668945314,-0.720961036682129,-0.10645791888237,-0.07292367443442345,-0.1631256138923214,8.453367532791118,0.0,-0.3042564392089844,-2492.46875,-109.53231811523438,0.1678466945886612,60.42481005191803,657.5508551261365,1,1789167788.1729672,38.99048634333333,-76.93969156666667,-9.007000000000001,0,1,9.174840999999999,10.272025000000001,71.84257600000001,1,1,1789167788.2082083,0.9910936437391364,-0.12749167973016387,0.03003401898347191,-0.024025374984866676,-176.82648461320196,-3.0614510823009193,-14.745072830349201,-0.004295604355008444,-0.00951710587819988,-0.06237510040654895,0.8851482435989381,-0.7067652771568298,-9.56511236825943
2026-09-11T19:03:08.248,3.642036384000022,-115.26102447509766,-10373.492202758789,-41493.968811035156,-78.9538017654419,-0.7216561126708985,-0.05491102114319801,-0.03761404948309064,-0.08414023237985549,1.0566135720332088,0.0,-0.295806884765625,-2423.25,-106.490478515625,0.2441406548023224,87.89063572883606,821.8938665400453,1,1789167788.1729672,38.99048634333333,-76.93969156666667,-9.007000000000001,0,1,9.174840999999999,10.272025000000001,71.84257600000001,1,1,1789167788.2362084,0.9911776929720448,-0.12715084327578655,0.02988733939211068,-0.022498687804663582,-177.0034551547239,-3.0682729739676997,-14.70052424894177,-0.0005117305366847374,0.014280109406892404,-0.06672009757938883,-0.018142302799224855,0.11601267141342163,-9.944335530014039
2026-09-11T19:03:08.283,3.6754513920000136,-115.26287078857422,-10373.65837097168,-41494.63348388672,-78.95506649017335,-0.7229208374023438,-0.05491102114319801,-0.03761404948309064,-0.08414023237985549,0.0,0.0,-0.29439735412597656,-2411.703125,-105.98304748535156,0.015258789993822575,5.493164397776127,-2465.882136885343,1,1789167788.1729672,38.99048634333333,-76.93969156666667,-9.007000000000001,0,1,9.174840999999999,10.272025000000001,71.84257600000001,1,1,1789167788.2762084,0.9911153831602139,-0.12754670378855243,0.030801527360703133,-0.021757792353680028,-177.07292055791015,-3.181864169449929,-14.7475016494051,-0.00487557726544616,0.02607347369554329,-0.045604406157060635,0.3238155883407593,-0.46091255760192873,-9.801060371150971
2026-09-11T19:03:08.315,3.7088648320000175,-115.26470947265625,-10373.823852539062,-41495.29541015625,-78.95632598876954,-0.7241803359985353,-0.05491102114319801,-0.03761404948309064,-0.08414023237985549,0.0,0.0,-0.2919807434082031,-2391.90625,-105.11306762695312,0.0762939602136612,27.46582567691803,657.5994952671541,1,1789167788.1729672,38.99048634333333,-76.93969156666667,-9.007000000000001,0,1,9.174840999999999,10.272025000000001,71.84257600000001,1,1,1789167788.3082082,0.9909803866950917,-0.12796221839499147,0.03174292511416665,-0.023998553170460592,-176.8024999995854,-3.254512356749133,-14.806285481786247,-0.0019334757453593184,0.03821276224193945,-0.050697800513155686,-0.03510780757904053,-0.775215695285797,-9.913052315998078
2026-09-11T19:03:08.349,3.742284512000026,-115.28521728515625,-10375.669555664062,-41502.67822265625,-78.97037384033204,-0.7382281875610353,-0.7317681908607483,-0.5012612107396126,-1.1212893941025681,-13.87347698291553,0.0,-0.29131507873535156,-2386.453125,-104.87342834472656,0.015258789993822575,5.493164397776127,-657.476710702683,1,1789167788.1729672,38.99048634333333,-76.93969156666667,-9.007000000000001,0,1,9.174840999999999,10.272025000000001,71.84257600000001,1,1,1789167788.3362083,0.9908921821561726,-0.1286474214072056,0.031360656948730754,-0.024475160935105933,-176.75177402738916,-3.2017916792719756,-14.885460744370986,-0.000861494518784401,0.05559292546622418,-0.03214372883397956,-0.16936084829330444,-0.30685008356094357,-9.705053266067505
2026-09-11T19:03:08.382,3.7756893120000257,-115.30184936523438,-10377.166442871094,-41508.665771484375,-78.98176681518555,-0.7496211624145508,-0.41613155603408813,-0.2850501158833504,-0.6376389492737788,6.472455900237841,0.0,-0.2907695770263672,-2381.984375,-104.67704772949219,0.015258789993822575,5.493164397776127,0.0,1,1789167788.1729672,38.99048634333333,-76.93969156666667,-9.007000000000001,0,1,9.174840999999999,10.272025000000001,71.84257600000001,1,1,1789167788.3762083,0.9906911076477628,-0.12969467938442455,0.03376312757043673,-0.02388452603010202,-176.77909563642478,-3.4801232733825307,-15.014607689356879,-0.0009224065096790032,0.05064613876729665,-0.028928134220105213,0.5282842442131043,-0.4123696393013,-9.635818315925599
2026-09-11T19:03:08.415,3.8090955199999996,-115.30156707763672,-10377.141036987305,-41508.56414794922,-78.98157344818115,-0.7494277954101564,-0.0741918683052063,-0.05082142978906632,-0.11368430070925703,7.011531691788145,0.0,-0.2897529602050781,-2373.65625,-104.31106567382812,0.0305175818502903,10.986329466104507,164.435456677174,1,1789167788.1729672,38.99048634333333,-76.93969156666667,-9.007000000000001,0,1,9.174840999999999,10.272025000000001,71.84257600000001,1,1,1789167788.4082084,0.9905679113448245,-0.1305544276517684,0.03462513651433532,-0.02306196773553401,-176.85647798658414,-3.5876510949386344,-15.114813468309725,-0.0025263640922617916,0.026309267677487723,-0.03904022284030996,0.11562040540695191,-0.25899363077163695,-9.707799128112793
2026-09-11T19:03:08.448,3.8425031680000075,-115.30182647705078,-10377.16438293457,-41508.65753173828,-78.98175113677979,-0.7496054840087891,-0.021585756912827492,-0.014786243485286833,-0.033075884675391055,1.0786508018694112,0.0,-0.2883491516113281,-2362.15625,-103.80569458007812,0.0762939527630806,27.465822994709015,493.2850564218301,1,1789167788.1729672,38.99048634333333,-76.93969156666667,-9.007000000000001,0,1,9.174840999999999,10.272025000000001,71.84257600000001,1,1,1789167788.4362082,0.9905179259499505,-0.13121711896391314,0.034088866217347615,-0.02223185243371064,-176.956775281829,-3.537216577319098,-15.186428277468723,-0.006554933071715104,0.013041798302602428,-0.036258168012631,0.1063040877532959,-0.29312077333450315,-9.672102921524049
2026-09-11T19:03:08.483,3.8759216640000034,-115.30229187011719,-10377.206268310547,-41508.82507324219,-78.98206993103028,-0.7499242782592774,-0.02630305476486683,-0.01801759251393378,-0.040304206589866144,-0.09669343074707319,0.0,-0.2846813201904297,-2332.109375,-102.48527526855469,0.1220703274011612,43.94531786441803,493.12497096551056,1,1789167788.1729672,38.99048634333333,-76.93969156666667,-9.007000000000001,0,1,9.174840999999999,10.272025000000001,71.84257600000001,1,1,1789167788.4762654,0.9903700406859904,-0.1323438898471998,0.03448163611913045,-0.021524267752690715,-177.02715979694756,-3.5891743546874597,-15.315936418526379,-0.00013264502315156904,-0.008089950148844116,-0.023428252681220684,0.12238699401855468,-0.2755668695449829,-9.773111418190002
2026-09-11T19:03:08.515,3.9093226240000263,-115.30316925048828,-10377.285232543945,-41509.14093017578,-78.98267093658448,-0.7505252838134766,-0.02630305476486683,-0.01801759251393378,-0.040304206589866144,0.0,0.0,-0.27801513671875,-2277.5,-100.08544921875,0.3356933891773224,120.84962010383606,2302.4578407137187,1,1789167788.1729672,38.99048634333333,-76.93969156666667,-9.007000000000001,0,1,9.174840999999999,10.272025000000001,71.84257600000001,1,1,1789167788.5082655,0.9902800400562576,-0.13332744277373929,0.033579891846416535,-0.021014902644912306,-177.09560328621748,-3.491660969946162,-15.424484839640963,0.00029146998508305304,-0.028515887450784153,-0.02226341993843967,0.16847824977874756,-0.32312912282943723,-9.759284041461944
2026-09-11T19:03:08.548,3.94272838400002,-115.30404663085938,-10377.364196777344,-41509.456787109375,-78.98327194213867,-0.7511262893676759,-0.02630305476486683,-0.01801759251393378,-0.040304206589866144,0.0,0.0,-0.26729393005371094,-2189.671875,-96.22581481933594,0.3814697563648224,137.32911229133606,493.3128953660414,1,1789167788.1729672,38.99048634333333,-76.93969156666667,-9.007000000000001,0,1,9.174840999999999,10.272025000000001,71.84257600000001,1,1,1789167788.5362654,0.9901953338827303,-0.13414594169589825,0.033202126178485225,-0.020388376605729147,-177.1698926273772,-3.4560651931070785,-15.515660151258583,-0.0014885913190259637,-0.058872922729497124,-0.021426534562108385,0.17524483839035035,-0.13611630424499513,-9.747908327274322
2026-09-11T19:03:08.582,3.9761327040000083,-115.30492401123047,-10377.443161010742,-41509.77264404297,-78.98387294769287,-0.7517272949218751,-0.02630305476486683,-0.01801759251393378,-0.040304206589866144,0.0,0.0,-0.25393104553222656,-2080.203125,-91.41517639160156,0.16784673929214478,60.42482614517212,-2302.2257643978664,1,1789167788.1729672,38.99048634333333,-76.93969156666667,-9.007000000000001,0,1,9.174840999999999,10.272025000000001,71.84257600000001,1,1,1789167788.5762653,0.9901173458011464,-0.13506792560296402,0.03300492215697165,-0.01830224386291233,-177.40698588546687,-3.463541867612312,-15.614643089586002,0.0018503980729643883,-0.057714547704948486,-0.018857060837322335,0.2738016725158691,-0.09404577505111694,-9.767129361591339
2026-09-11T19:03:08.616,4.009533632,-115.30580139160156,-10377.52212524414,-41510.08850097656,-78.98447395324708,-0.7523283004760742,-0.02630305476486683,-0.01801759251393378,-0.040304206589866144,0.0,0.0,-0.24800872802734375,-2031.6875,-89.28314208984375,0.19836431741714478,71.41115427017212,328.92284085647816,1,1789167788.1729672,38.99048634333333,-76.93969156666667,-9.007000000000001,0,1,9.174840999999999,10.272025000000001,71.84257600000001,1,1,1789167788.6082654,0.9900775507047332,-0.13563267670233442,0.032922533953965494,-0.016319539182420937,-177.6317311213811,-3.4837125691496817,-15.67304415187538,-0.0003701843343479973,-0.027587372288723173,-0.025400998334749875,0.31587220170974734,0.08070873083114624,-9.761833770503998
2026-09-11T19:03:08.650,4.042940480000027,-115.32843017578125,-10379.558715820312,-41518.23486328125,-78.99997467041017,-0.7678290176391602,-0.8012437224388123,-0.5488519498705864,-1.2277468456303369,-15.88998630928081,0.0,-0.244781494140625,-2005.25,-88.121337890625,0.12207037210464478,43.94533395767212,-822.161381776511,1,1789167788.1729672,38.99048634333333,-76.93969156666667,-9.007000000000001,0,1,9.174840999999999,10.272025000000001,71.84257600000001,1,1,1789167788.6482654,0.9900921649358526,-0.13571587389912654,0.033635546588519354,-0.012936634420284887,-178.0047845096128,-3.6173749880219233,-15.673249209012894,-0.0011480775819618701,0.02620472245529326,-0.04140828556941587,0.3732411051559448,0.43217907262802124,-9.719861307811737
2026-09-11T19:03:08.682,4.076350304000016,-115.3432388305664,-10380.891494750977,-41523.565979003906,-79.01011859893799,-0.7779729461669922,-0.3584195375442505,-0.2455173832178116,-0.5492067448501506,9.079202771402667,0.0,-0.24273681640625,-1988.5,-87.38525390625,0.09155279397964478,32.95900583267212,-328.8352589047952,1,1789167788.1729672,38.99048634333333,-76.93969156666667,-9.007000000000001,0,1,9.174840999999999,10.272025000000001,71.84257600000001,1,1,1789167788.6762655,0.9901350205980592,-0.13534073306496847,0.03480459105073084,-0.01020624321232673,-178.2982289721041,-3.7934509096831843,-15.623313059973164,-0.0037753217049889343,0.0542947495685908,-0.05828788836422862,0.5555467316627503,0.6585165583610535,-9.795862846565246
2026-09-11T19:03:08.716,4.109748608000018,-115.3443832397461,-10380.994491577148,-41523.977966308594,-79.01090251922608,-0.7787568664550781,-0.12398320436477661,-0.08492849498987198,-0.18997963267240492,4.808294703465467,0.0,-0.23866844177246094,-1955.171875,-85.92063903808594,0.21362310647964478,76.90431833267212,1315.7947331696016,1,1789167788.1729672,38.99048634333333,-76.93969156666667,-9.007000000000001,0,1,9.174840999999999,10.272025000000001,71.84257600000001,1,1,1789167788.7082653,0.9901959381568092,-0.13468731624462218,0.036371318956389086,-0.0069611822235933875,-178.64530823432514,-4.02284966939721,-15.539349103736694,-0.005792049655668382,0.07030098960570559,-0.07539927088370622,0.5079844783782959,0.5326972367858887,-9.742220470180511
2026-09-11T19:03:08.750,4.143152736000019,-115.34850311279297,-10381.365280151367,-41525.46112060547,-79.01372463226319,-0.7815789794921876,-0.12398320436477661,-0.08492849498987198,-0.18997963267240492,0.0,0.0,-0.2238903045654297,-1834.109375,-80.60050964355469,0.5798340439796448,208.74025583267212,3946.6959742220124,1,1789167788.1729672,38.99048634333333,-76.93969156666667,-9.007000000000001,0,1,9.174840999999999,10.272025000000001,71.84257600000001,1,1,1789167788.7482655,0.9902798286751008,-0.133933083455727,0.037321759952425405,-0.00385698189104898,-178.9867715675346,-4.179698561622333,-15.441747144463086,-0.003440567554456422,0.04021448036105175,-0.08454758869095971,0.09286897703170775,0.4824871879577637,-9.607673229961396
2026-09-11T19:03:08.784,4.176570880000014,-115.38490295410156,-10384.64126586914,-41538.56506347656,-79.03865852355958,-0.8065128707885743,-0.7814748883247375,-0.5353102985024453,-1.1974550342305939,-13.47716388775624,0.0,-0.21730422973632812,-1780.15625,-78.22952270507812,0.2746582329273224,98.87696385383606,-3287.534220298165,1,1789167788.1729672,38.99048634333333,-76.93969156666667,-9.007000000000001,0,1,9.174840999999999,10.272025000000001,71.84257600000001,1,1,1789167788.7762654,0.9904012234507739,-0.13344618585970572,0.03584569035062835,-0.0035522598432360087,-179.04631589834793,-4.017155436950069,-15.381027126715471,-0.010362717900791133,0.031038760884541956,-0.07631940846535763,-0.22555295372009276,-0.24075326147079468,-9.458710214004517
2026-09-11T19:03:08.816,4.209988224,-115.39051818847656,-10385.14663696289,-41540.58654785156,-79.04250495910645,-0.8103593063354493,-0.3433261811733246,-0.23517843410372735,-0.5260791743551518,8.98132013121225,0.0,-0.2061481475830078,-1688.765625,-74.21333312988281,0.2441406548023224,87.89063572883606,-328.76126017090553,1,1789167788.1729672,38.99048634333333,-76.93969156666667,-9.007000000000001,0,1,9.174840999999999,10.272025000000001,71.84257600000001,1,1,1789167788.8082654,0.9903847581923219,-0.1328009161368127,0.03862249963713766,-0.0032015520202942167,-179.04612730480721,-4.338681672024959,-15.310630559527619,-0.004413065013667662,0.026248704752443522,-0.0920900290534532,0.7857088109588622,0.0381478691291809,-9.243061976947784
2026-09-11T19:03:08.849,4.243390912000024,-115.40827941894531,-10386.745147705078,-41546.98059082031,-79.05467140197754,-0.822525749206543,-0.6036558151245117,-0.4135042333602906,-0.9249826265217657,-5.338666135385162,0.0,-0.2008686065673828,-1645.515625,-72.31269836425781,0.1373291313648224,49.43848729133606,-1151.1692842645668,1,1789167788.1729672,38.99048634333333,-76.93969156666667,-9.007000000000001,0,1,9.174840999999999,10.272025000000001,71.84257600000001,1,1,1789167788.8362653,0.9904389500569795,-0.13226505802708752,0.03910853734331107,-0.0026763673114979626,-179.10080634491163,-4.40242672517737,-15.24732723960734,0.001189965484009734,0.024123417322290022,-0.07505945527834293,0.2451662540435791,0.014611908740997314,-9.47008592819214
2026-09-11T19:03:08.884,4.276891808000016,-115.42991638183594,-10388.692474365234,-41554.76989746094,-79.06949272155762,-0.8373470687866211,-0.6562619209289551,-0.4495394158363343,-1.0055910339932306,-1.075648319258439,0.0,-0.1972217559814453,-1615.640625,-70.99983215332031,0.10681155323982239,38.45215916633606,-327.9413220769515,1,1789167788.1729672,38.99048634333333,-76.93969156666667,-9.007000000000001,0,1,9.174840999999999,10.272025000000001,71.84257600000001,1,1,1789167788.8762653,0.9905365815158655,-0.13120315568495206,0.040221262519026434,-0.002294048506163531,-179.1321406056105,-4.535645323763199,-15.12493882486471,-0.0009438740594785335,0.014951188504284224,-0.10755033010054418,-0.38432261983871463,0.1977020672607422,-9.902951466331482
2026-09-11T19:03:08.918,4.310309056000023,-115.44769287109375,-10390.292358398438,-41561.16943359375,-79.08166961669923,-0.8495239639282227,-0.475442498922348,-0.32567811176180844,-0.7285211877277382,3.7065082102063682,0.0,-0.19342803955078125,-1584.5625,-69.63409423828125,0.09155276417732239,32.95899510383606,-164.3811023127625,1,1789167788.1729672,38.99048634333333,-76.93969156666667,-9.007000000000001,0,1,9.174840999999999,10.272025000000001,71.84257600000001,1,1,1789167788.9082654,0.9907304479637961,-0.13023771227722974,0.038589559801205466,-0.0014709359599822892,-179.25490905629658,-4.36331130019771,-15.006279580599989,-0.004004657968700989,-0.011416722236070508,-0.11066137949222406,-0.31312633966445924,0.06864655113220215,-10.335817004470826
2026-09-11T19:03:08.950,4.343719264000015,-115.46356201171875,-10391.720581054688,-41566.88232421875,-79.09253997802735,-0.8603943252563477,-0.475442498922348,-0.32567811176180844,-0.7285211877277382,0.0,0.0,-0.192230224609375,-1574.75,-69.202880859375,0.0,0.0,-986.4947594412963,1,1789167788.1729672,38.99048634333333,-76.93969156666667,-9.007000000000001,0,1,9.174840999999999,10.272025000000001,71.84257600000001,1,1,1789167788.9482653,0.9909122681305986,-0.12863815103812173,0.039209018691917355,-0.0027849271054144545,-179.10309833412512,-4.415508361129355,-14.8278813529668,0.004521799026066909,-0.013033246189267657,-0.10820639936636885,0.7636438480949401,-0.3998171270942688,-9.868922390270233
2026-09-11T19:03:08.983,4.377142400000025,-115.48983001708984,-10394.084701538086,-41576.338806152344,-79.11053356170655,-0.878387908935547,-0.7630367875099182,-0.522680199444294,-1.1692023072751732,-5.894183229318296,0.0,-0.192230224609375,-1574.75,-69.202880859375,0.0,0.0,0.0,1,1789167788.1729672,38.99048634333333,-76.93969156666667,-9.007000000000001,0,1,9.174840999999999,10.272025000000001,71.84257600000001,1,1,1789167788.9762654,0.9910731996931762,-0.1274058238031499,0.03926120153511861,-0.0004764084270387449,-179.37078098115043,-4.45637698430642,-14.675262774016005,-0.004121769561509809,-0.016197353590208175,-0.13620235323298388,0.25565936971664427,0.4476735798835755,-9.316513786659241
2026-09-11T19:03:09.016,4.410551424000005,-115.51213836669922,-10396.09245300293,-41584.36981201172,-79.12581478118896,-0.8936691284179689,-0.6341694593429565,-0.4344060796499253,-0.9717387250579921,2.642223843307206,0.0,-0.192230224609375,-1574.75,-69.202880859375,0.0,0.0,0.0,1,1789167788.1729672,38.99048634333333,-76.93969156666667,-9.007000000000001,0,1,9.174840999999999,10.272025000000001,71.84257600000001,1,1,1789167789.0082655,0.9912149762129391,-0.12615317794979333,0.03970656303301801,0.001278857480586534,-179.56990770703305,-4.533280359407577,-14.523247210528066,0.000992917811459574,-0.014655006130220787,-0.13763649027934763,0.3981499965667724,0.2148637050437927,-9.38447387228012
2026-09-11T19:03:09.051,4.443967392000019,-115.53551483154297,-10398.196334838867,-41592.78533935547,-79.14182765960695,-0.9096820068359376,-0.7122684121131897,-0.48790386229753496,-1.0914098566068684,-1.6009646240859183,0.0,-0.192230224609375,-1574.75,-69.202880859375,0.0,0.0,0.0,1,1789167788.1729672,38.99048634333333,-76.93969156666667,-9.007000000000001,0,1,9.174840999999999,10.272025000000001,71.84257600000001,1,1,1789167789.0482655,0.9914367669423539,-0.1242362295343247,0.04007605155330342,0.0035222887280855733,-179.82907581930135,-4.608162878444939,-14.291804465643349,0.009352172263886415,-0.02042174851173525,-0.12873758002220415,0.5990882583808899,0.30557521903991697,-9.958555172748566
2026-09-11T19:03:09.083,4.477375232000014,-115.56462097167969,-10400.815887451172,-41603.26354980469,-79.16176536560059,-0.9296197128295899,-0.8700867295265198,-0.5960094097256661,-1.333235079021263,-3.235933464364841,0.0,-0.19161224365234375,-1569.6875,-68.98040771484375,0.0305175818502903,10.986329466104507,328.8548276723683,1,1789167788.1729672,38.99048634333333,-76.93969156666667,-9.007000000000001,0,1,9.174840999999999,10.272025000000001,71.84257600000001,1,1,1789167789.0762653,0.9916369063255348,-0.12260457687152125,0.040137891690411154,0.0036487523794707234,-179.85021793083538,-4.61725671181082,-14.102438144519631,0.0072980942672142895,-0.03178488913976953,-0.15049031662151027,1.1481626009368897,0.33715263256072997,-9.581587540531158
2026-09-11T19:03:09.116,4.510780128000022,-115.5914077758789,-10403.226699829102,-41612.906799316406,-79.18011432647705,-0.9479686737060548,-0.8184240460395813,-0.5606204715371133,-1.2540722788500194,1.0593937543929148,0.0,-0.1908111572265625,-1563.125,-68.6920166015625,0.0457763709127903,16.479493528604507,164.4418848811493,1,1789167788.1729672,38.99048634333333,-76.93969156666667,-9.007000000000001,0,1,9.174840999999999,10.272025000000001,71.84257600000001,1,1,1789167789.1082654,0.9918946233060126,-0.12062285989428694,0.039716169478497904,0.004219930035191629,-179.9304557659308,-4.577446313469026,-13.8700004154119,0.01627676607117392,0.007403337621109547,-0.15562123555652319,0.8022820497322082,-0.22790654975891114,-9.742220470180511
2026-09-11T19:03:09.150,4.544184352000002,-115.6227798461914,-10406.050186157227,-41624.200744628906,-79.20160419464112,-0.9694585418701173,-0.9762002825737,-0.6686971935629845,-1.4958330206759658,-3.235420826597705,0.0,-0.18926048278808594,-1550.421875,-68.13377380371094,0.0915527418255806,32.958987057209015,493.3356191305091,1,1789167788.1729672,38.99048634333333,-76.93969156666667,-9.007000000000001,0,1,9.174840999999999,10.272025000000001,71.84257600000001,1,1,1789167789.1482654,0.9922073003192008,-0.11773478544193994,0.0405244037846276,0.004578885030641437,-179.97379411091396,-4.674526933474738,-13.535158922866044,0.007059856824317063,-0.02181661564992912,-0.16387960997818476,1.567887227859497,0.2687022144317627,-9.386729401817322
2026-09-11T19:03:09.184,4.5775846080000235,-115.65328216552734,-10408.795394897461,-41635.181579589844,-79.22249828338623,-0.9903526306152345,-0.9246533513069153,-0.633387545645237,-1.4168475877890934,1.0571669845202611,0.0,-0.188079833984375,-1540.75,-67.708740234375,0.015258789993822575,5.493164397776127,-822.3237169025055,1,1789167788.1729672,38.99048634333333,-76.93969156666667,-9.007000000000001,0,1,9.174840999999999,10.272025000000001,71.84257600000001,1,1,1789167789.1762655,0.9924269778151692,-0.1159055759383705,0.04031988776111043,0.0053756694444393165,179.92392770604704,-4.661869686674851,-13.319699877877671,-0.001710422666954443,-0.010347009937523183,-0.1805790947941917,1.134629423713684,0.3352893690299988,-8.65829142780304
2026-09-11T19:03:09.218,4.611003136000022,-115.68903350830078,-10412.01301574707,-41648.05206298828,-79.24698795318604,-1.014842300415039,-1.0558985471725464,-0.7232905048131943,-1.617954779914982,-2.6902130209912656,0.0,-0.18392181396484375,-1506.6875,-66.21185302734375,0.1831054836511612,65.91797411441803,1808.1230183640796,1,1789167788.1729672,38.99048634333333,-76.93969156666667,-9.007000000000001,0,1,9.174840999999999,10.272025000000001,71.84257600000001,1,1,1789167789.2082653,0.9927630018250619,-0.11360670703160494,0.03858704087540679,0.005116502829715908,179.92003316707144,-4.460862856045456,-13.053360513766401,0.01929566207834851,-0.01754806389832659,-0.1814440799714801,-0.14523648889541627,0.22221869266510008,-9.452433957901
2026-09-11T19:03:09.251,4.644423456000027,-115.72258758544922,-10415.03288269043,-41660.13153076172,-79.26997249603272,-1.0378268432617188,-1.0040186643600464,-0.6877527850866318,-1.5384591649217767,1.0633566562665313,0.0,-0.17847824096679688,-1462.09375,-64.25216674804688,0.1068115383386612,38.45215380191803,-821.829961906293,1,1789167789.2469587,38.9904865,-76.93969028166667,-9.044,0,1,10.569001,8.596624,60.140025,1,1,1789167789.2482655,0.9930672028038905,-0.11065523271782601,0.03927881111097765,0.005488641464776179,179.87307075228748,-4.544174836773536,-12.711186539673212,0.009538398895074211,-0.06933686972690394,-0.18968116137626734,0.7176506588363647,0.4134483708190918,-9.870785653800965
2026-09-11T19:03:09.284,4.67783024000002,-115.76092529296875,-10418.483276367188,-41673.93310546875,-79.2962338256836,-1.0640881729125977,-1.1100362539291382,-0.7603748339414597,-1.7009100616084887,-2.1738712967654297,0.0,-0.1736297607421875,-1422.375,-62.5067138671875,0.1525879055261612,54.93164598941803,493.2977741138853,1,1789167789.2469587,38.9904865,-76.93969028166667,-9.044,0,1,10.569001,8.596624,60.140025,1,1,1789167789.2762654,0.9932700780156165,-0.10855666570103287,0.03987140005380582,0.006346172742249793,179.77292456962763,-4.622133473080375,-12.465287639334214,0.004368559117741807,-0.04880010401746225,-0.1864351980334083,0.09100571350097657,0.298318297920227,-9.727608561439515
2026-09-11T19:03:09.318,4.7112457600000255,-115.7982406616211,-10421.841659545898,-41687.366638183594,-79.32179485321045,-1.0896492004394531,-1.1100362539291382,-0.7603748339414597,-1.7009100616084887,0.0,0.0,-0.16812896728515625,-1377.3125,-60.52642822265625,0.1678466945886612,60.42481005191803,164.3896028701364,1,1789167789.2469587,38.9904865,-76.93969028166667,-9.044,0,1,10.569001,8.596624,60.140025,1,1,1789167789.3082654,0.9934880427330411,-0.10639167329512522,0.040041315065488955,0.007682049710880668,179.61231861024584,-4.657300652575846,-12.209144121761126,0.0019868828204703446,-0.03294413682894416,-0.19560306352828408,0.292630440826416,0.23124081081390382,-9.274933589973449
2026-09-11T19:03:09.351,4.744664640000025,-115.84092712402344,-10425.68344116211,-41702.73376464844,-79.35103507995606,-1.1188894271850587,-1.215248465538025,-0.8324451988935472,-1.8621268765514187,-2.1565763111178207,0.0,-0.1634063720703125,-1338.625,-58.8262939453125,0.0915527492761612,32.95898973941803,-821.8653740789819,1,1789167789.2469587,38.9904865,-76.93969028166667,-9.044,0,1,10.569001,8.596624,60.140025,1,1,1789167789.3482654,0.9938743439452882,-0.10309758635566764,0.03902400975029237,0.00786147555920205,179.56432122831208,-4.542061461230836,-11.82728686183824,0.019999378832752622,0.03734079574764309,-0.21070277955191305,-1.221418277645111,-0.13160524517059327,-9.530789092693329
2026-09-11T19:03:09.384,4.778068672000018,-115.8844223022461,-10429.598007202148,-41718.392028808594,-79.38082927703859,-1.1486836242675782,-1.32050359249115,-0.9045449608564378,-2.0234094507346922,-2.1584149471209337,0.0,-0.16115951538085938,-1320.21875,-58.017425537109375,0.061035171151161194,21.97266161441803,-328.89227638754346,1,1789167789.2469587,38.9904865,-76.93969028166667,-9.044,0,1,10.569001,8.596624,60.140025,1,1,1789167789.3762653,0.9940716317954473,-0.10070045660930883,0.03999548448302347,0.00902053874122187,179.432084404692,-4.665219341218474,-11.545641645273353,0.006835931081286191,0.05911691975892593,-0.2078826765465406,-1.5391537428855897,0.5680992438697815,-9.448903563842775
2026-09-11T19:03:09.417,4.8115531200000135,-115.92854309082031,-10433.568878173828,-41734.27551269531,-79.41105201721192,-1.1789063644409181,-1.3738988637924194,-0.9411207216978074,-2.105227097570254,-1.0923208541880143,0.0,-0.1573162078857422,-1288.734375,-56.63383483886719,0.1068115383386612,38.45215380191803,492.15361673282024,1,1789167789.2469587,38.9904865,-76.93969028166667,-9.044,0,1,10.569001,8.596624,60.140025,1,1,1789167789.4082654,0.9942755716170844,-0.09756962375629594,0.04254267303122598,0.009293932264295823,179.41454528172318,-4.9572190876851145,-11.183795381956896,0.0024623105087136004,0.04684271726135061,-0.21178348742474792,1.2208298786354066,0.30655588405609135,-10.957852824230194
2026-09-11T19:03:09.452,4.844956000000025,-115.97296142578125,-10437.566528320312,-41750.26611328125,-79.44147857666016,-1.2093329238891604,-1.321801781654358,-0.9054342204332353,-2.0253986677550873,1.0683659991162457,0.0,-0.15109825134277344,-1237.796875,-54.39537048339844,0.1831054836511612,65.91797411441803,822.2590480967737,1,1789167789.2469587,38.9904865,-76.93969028166667,-9.044,0,1,10.569001,8.596624,60.140025,1,1,1789167789.4482653,0.9945815572862935,-0.09383489044744558,0.04392985211104214,0.008526859573673193,179.49855661589163,-5.10515288763498,-10.757004482562511,-0.004720242962018665,0.022706733568446227,-0.21137542944563165,2.7295830060195923,-0.2663486183929443,-10.326304553813936
2026-09-11T19:03:09.485,4.878379104000004,-116.02161407470703,-10441.945266723633,-41767.78106689453,-79.47480564117433,-1.2426599884033205,-1.426357388496399,-0.9770548111200333,-2.1856093663207594,-2.142846777092949,0.0,-0.1432476043701172,-1173.484375,-51.56913757324219,0.2593994438648224,93.38379979133606,821.7616675260042,1,1789167789.2469587,38.9904865,-76.93969028166667,-9.044,0,1,10.569001,8.596624,60.140025,1,1,1789167789.4762654,0.9948848674011497,-0.09148375336025609,0.04225784281116264,0.007007011364608867,179.64285703399915,-4.897038964708037,-10.492343729794298,0.00479529211985442,-0.004649208061462495,-0.1963390688738501,-0.46777721271514894,0.07688413726806641,-9.14852586938858
2026-09-11T19:03:09.518,4.911810656,-116.06742858886719,-10446.068572998047,-41784.27429199219,-79.50618858337403,-1.2740429306030274,-1.4005945920944214,-0.9594072955846787,-2.1461329983551307,0.5278700652412617,0.0,-0.1345653533935547,-1102.359375,-48.44352722167969,0.3051758110523224,109.86329197883606,492.93231099477225,1,1789167789.2469587,38.9904865,-76.93969028166667,-9.044,0,1,10.569001,8.596624,60.140025,1,1,1789167789.5082655,0.9950783588804786,-0.08873319861653071,0.043527419238171994,0.007130422531445914,179.62808335005053,-5.04233522167342,-10.175034914300998,-0.0005379104754646524,-0.03502334756684501,-0.2056720425159646,0.7282418410110474,0.7278495750045776,-9.420660411376954
2026-09-11T19:03:09.551,4.945210048000007,-116.11619567871094,-10450.457611083984,-41801.83044433594,-79.53959403991699,-1.307448387145996,-1.4524694681167603,-0.9949415856599808,-2.2256209414369623,-1.0639202676292663,0.0,-0.12471199035644531,-1021.640625,-44.89631652832031,0.1831054985523224,65.91797947883606,-1315.7518705727032,1,1789167789.2469587,38.9904865,-76.93969028166667,-9.044,0,1,10.569001,8.596624,60.140025,1,1,1789167789.5482655,0.995426990821977,-0.08560807163034616,0.04171135513266452,0.007518435198489691,179.54996987258116,-4.837411823355619,-9.811830956353429,-0.02638100070974469,-0.057511391380016354,-0.20901033377625414,0.6221338862609863,-0.0811990633392334,-11.03738475704193
2026-09-11T19:03:09.585,4.978630880000026,-116.16555786132812,-10454.900207519531,-41819.600830078125,-79.57340713500977,-1.3412614822387696,-1.4522099494934082,-0.9947638154029846,-2.22522328069744,0.005319145166585585,0.0,-0.11742591857910156,-961.953125,-42.27333068847656,0.2288818657398224,82.39747166633606,493.09042298799733,1,1789167789.2469587,38.9904865,-76.93969028166667,-9.044,0,1,10.569001,8.596624,60.140025,1,1,1789167789.5762653,0.9956825949321163,-0.08318018412804266,0.04073238028181103,0.006172545200310344,179.68290983710813,-4.711578540810174,-9.537855262672055,-0.005443158338194715,-0.04260610503505957,-0.1959161755960919,-1.3513563922882081,-0.2325156753349304,-8.709482141647339
2026-09-11T19:03:09.618,5.012039520000002,-116.21304321289062,-10459.173889160156,-41836.695556640625,-79.60593460083008,-1.3737889480590821,-1.426378607749939,-0.9770693463087082,-2.185641880611818,0.5296375157530806,0.0,-0.11331939697265625,-928.3125,-40.79498291015625,0.07629397511482239,27.46583104133606,-1644.2345640241292,1,1789167789.2469587,38.9904865,-76.93969028166667,-9.044,0,1,10.569001,8.596624,60.140025,1,1,1789167789.6082654,0.9959354019511313,-0.08039203888962582,0.04041867463301825,0.004015714695722438,179.91376581151306,-4.654926111288385,-9.22632936349675,-0.008054519965028631,-0.07539386036302505,-0.1951107061462965,1.789321388511658,-2.4813766904258725,-9.096746756534577
2026-09-11T19:03:09.652,5.0454462080000155,-116.2558364868164,-10463.025283813477,-41852.101135253906,-79.63524799346925,-1.4031023406982424,-1.2952871322631836,-0.8872716856002808,-1.9847702344315494,2.688014469090461,0.0,-0.11168098449707031,-914.890625,-40.20515441894531,0.0610351637005806,21.972658932209015,-164.43330476594377,1,1789167789.2469587,38.9904865,-76.93969028166667,-9.044,0,1,10.569001,8.596624,60.140025,1,1,1789167789.6482654,0.9963277246877282,-0.07710402647493633,0.03722853606130152,0.00026499558266400653,-179.7004955815846,-4.256665786824448,-8.861527109174256,0.023563341165325043,-0.10493984113833625,-0.174635376026525,-1.0751030572319031,-1.5388595433807373,-10.576570265941621
2026-09-11T19:03:09.685,5.078851488000026,-116.2930908203125,-10466.378173828125,-41865.5126953125,-79.66076721191406,-1.4286215591430664,-1.1927125453948975,-0.8170080935955049,-1.8275950554659626,2.1033678509730525,0.0,-0.11184883117675781,-916.265625,-40.26557922363281,0.0,0.0,-657.7600586554541,1,1789167789.2469587,38.9904865,-76.93969028166667,-9.044,0,1,10.569001,8.596624,60.140025,1,1,1789167789.6762655,0.9964823664015745,-0.07553425682522166,0.03629475622331124,0.00040020903302244985,-179.73083954426875,-4.151538406802637,-8.679319528390469,-0.03419867949527769,-0.11165708983048683,-0.12831503581029632,1.8364913757896422,0.25369803968429566,-10.23902536737442
2026-09-11T19:03:09.720,5.11225334400001,-116.33158111572266,-10469.842300415039,-41879.369201660156,-79.68713306427003,-1.4549874114990236,-1.141049861907959,-0.7816191554069519,-1.7484322552947187,1.0594901728984931,0.0,-0.1115570068359375,-913.875,-40.1605224609375,-0.0762939527630806,-27.465822994709015,-822.2843363770775,1,1789167789.2469587,38.9904865,-76.93969028166667,-9.044,0,1,10.569001,8.596624,60.140025,1,1,1789167789.7162654,0.9966587880203785,-0.07271047209970306,0.037198809710915576,-0.0008343050278710069,-179.59365607173058,-4.24535921952143,-8.36021552663167,0.009890431805201466,-0.013281781074751649,-0.16685504728698472,0.6036973839569092,-0.5374044288635254,-9.835579779720307
2026-09-11T19:03:09.753,5.145657792000009,-116.37278747558594,-10473.550872802734,-41894.20349121094,-79.71535942077638,-1.4832137680053712,-1.2194076776504517,-0.8352942591905594,-1.8685000429280567,-1.606825048676432,0.0,-0.11212158203125,-918.5,-40.36376953125,0.0,0.0,822.2205316702119,1,1789167789.2469587,38.9904865,-76.93969028166667,-9.044,0,1,10.569001,8.596624,60.140025,1,1,1789167789.7482655,0.9969079191195126,-0.07041472753812318,0.03486394490769072,-0.0009339636014185163,-179.61105148496273,-3.978420673223909,-8.094049474663509,0.012616636096816609,-0.01844324327167448,-0.1613502788261946,-1.694196881942749,0.34950901176452637,-9.554226986579895
2026-09-11T19:03:09.785,5.179080448000008,-116.41387939453125,-10477.249145507812,-41908.99658203125,-79.7435073852539,-1.5113617324829103,-1.2457001209259033,-0.8533045828342438,-1.9087879895182598,-0.538865721613653,0.0,-0.11209297180175781,-918.265625,-40.35346984863281,0.0,0.0,0.0,1,1789167789.2469587,38.9904865,-76.93969028166667,-9.044,0,1,10.569001,8.596624,60.140025,1,1,1789167789.7762654,0.9969568954970238,-0.06869439776916515,0.036848637760762505,0.0004540167882252242,-179.76115579687288,-4.217073581839631,-7.892159242084831,-0.009170832554604205,-0.01001818990644745,-0.1617801534209608,0.3411733591270447,0.6182112261962891,-9.007800439567566
2026-09-11T19:03:09.818,5.212483072000026,-116.45935821533203,-10481.342239379883,-41925.36895751953,-79.77466037750244,-1.5425147247314455,-1.3504406213760376,-0.9250518256425858,-2.069282000811079,-2.1479522928588577,0.0,-0.11209297180175781,-918.265625,-40.35346984863281,0.0,0.0,0.0,1,1789167789.2469587,38.9904865,-76.93969028166667,-9.044,0,1,10.569001,8.596624,60.140025,1,1,1789167789.8082654,0.9971230089284153,-0.06641014622546974,0.036428459046611524,0.002892216337784696,179.9466094539974,-4.188122708183761,-7.618792463192121,-0.005462182427041454,0.0018198548110544875,-0.17226329904013954,-0.6753839966392517,0.8010071852111816,-9.657785212287903
2026-09-11T19:03:09.853,5.2458880320000105,-116.5091323852539,-10485.821914672852,-41943.287658691406,-79.80875568389894,-1.5766100311279299,-1.481532096862793,-1.0148494863510134,-2.270153646991348,-2.6881535169768056,0.0,-0.11128044128417969,-911.609375,-40.06095886230469,0.0915527418255806,32.958987057209015,986.6494992726955,1,1789167789.2469587,38.9904865,-76.93969028166667,-9.044,0,1,10.569001,8.596624,60.140025,1,1,1789167789.8482654,0.9973052902839735,-0.06340323294466113,0.03628977875617402,0.006726067319935468,179.4936224862486,-4.1999246468969105,-7.2567476882048485,-0.01194869859207838,0.0586362560829267,-0.18703541676316915,0.40893731174468995,1.377932414226532,-9.875787045383454
2026-09-11T19:03:09.887,5.279306464000001,-116.56317138671875,-10490.685424804688,-41962.74169921875,-79.84577239990234,-1.6136267471313477,-1.6125177145004272,-1.1045746344327927,-2.4708630870454353,-2.684900000149754,0.0,-0.10682296752929688,-875.09375,-38.456268310546875,0.1678466945886612,60.42481005191803,821.8764720833319,1,1789167789.2469587,38.9904865,-76.93969028166667,-9.044,0,1,10.569001,8.596624,60.140025,1,1,1789167789.8762653,0.9973711331948452,-0.061017961174552486,0.03800816066515128,0.009111026648148631,179.2221274631802,-4.412029215997935,-6.971881171104616,-0.00815051307388832,0.05212425811081065,-0.20440074468881192,0.012160246200561524,1.2011185118103027,-9.712310187187196
2026-09-11T19:03:09.919,5.312725408000006,-116.62189483642578,-10495.97053527832,-41983.88214111328,-79.88599796295166,-1.6538523101806641,-1.7694405317306519,-1.2120667642354965,-2.711316133311326,-3.2165028853900703,0.0,-0.09952163696289062,-815.28125,-35.827789306640625,0.2899170219898224,104.37012791633606,1314.982240743814,1,1789167789.2469587,38.9904865,-76.93969028166667,-9.044,0,1,10.569001,8.596624,60.140025,1,1,1789167789.9082654,0.9974764753761335,-0.05855469677874236,0.03810424173369389,0.012652877864549815,178.80574262212926,-4.444761651845605,-6.672790729105477,-0.026952421506847634,0.01546658423239815,-0.18339064568622937,0.08482752389907837,1.0855961729049683,-9.771052021656036
2026-09-11T19:03:09.952,5.346129408000024,-116.68167877197266,-10501.351089477539,-42005.404357910156,-79.92694995880127,-1.6948043060302735,-1.8220466375350952,-1.2481019467115404,-2.7919245407827913,-1.0787684850923172,0.0,-0.0847930908203125,-694.625,-30.5255126953125,0.4425049424171448,159.30177927017212,1644.4632784638188,1,1789167789.2469587,38.9904865,-76.93969028166667,-9.044,0,1,10.569001,8.596624,60.140025,1,1,1789167789.9482653,0.9976946930585218,-0.05612368413085023,0.035836852070064006,0.013082490441454776,178.73130436096793,-4.184991444334001,-6.393017764682358,-0.002766870463186611,-0.04083319958088374,-0.1804019438751143,-0.3556872013664245,0.28380445568084717,-9.566485299282073
2026-09-11T19:03:09.986,5.379529088000027,-116.74425506591797,-10506.982955932617,-42027.93182373047,-79.96981472015382,-1.7376690673828126,-1.9008288383483887,-1.3020677542686463,-2.912642614237305,-1.6157582215488961,0.0,-0.07140922546386719,-584.984375,-25.707321166992188,0.4577637314796448,164.79494333267212,164.4675656323542,1,1789167789.2469587,38.9904865,-76.93969028166667,-9.044,0,1,10.569001,8.596624,60.140025,1,1,1789167789.9762654,0.9978286295613595,-0.054460905140407016,0.03388313165733498,0.01496560149403885,178.49646710590355,-3.970864787845815,-6.196016441168352,0.0009517280411125079,-0.08403795254937736,-0.1643876753234403,-0.04363959321975708,0.7519739344024658,-9.088116904392242
2026-09-11T19:03:10.020,5.412947904000021,-116.81124114990234,-10513.011703491211,-42052.046813964844,-80.01570018768311,-1.7835545349121096,-2.0057709217071533,-1.3739530813694,-3.073445511295183,-2.151043504975364,0.0,-0.05602455139160156,-458.953125,-20.168838500976562,0.4730225205421448,170.28810739517212,164.3733896048559,1,1789167789.2469587,38.9904865,-76.93969028166667,-9.044,0,1,10.569001,8.596624,60.140025,1,1,1789167790.0162654,0.997969460922947,-0.05242771550327746,0.0319989613891098,0.016862864000165678,178.2598048662261,-3.7633790160796035,-5.957292653882278,0.00333340433838397,-0.1395183042788479,-0.15431625287480705,0.45473436800003053,1.2804543116188047,-9.182653011951446
2026-09-11T19:03:10.052,5.446355616000005,-116.88035583496094,-10519.232025146484,-42076.92810058594,-80.06304374694825,-1.8308980941772461,-2.0841236114501953,-1.427624673843384,-3.193505444352591,-1.6065629539074229,0.0,-0.04043006896972656,-331.203125,-14.554824829101562,0.3051758408546448,109.86330270767212,-1808.7082613597618,1,1789167789.2469587,38.9904865,-76.93969028166667,-9.044,0,1,10.569001,8.596624,60.140025,1,1,1789167790.0482655,0.9980815608231614,-0.05054731836629789,0.029552126576599946,0.020120595557254487,177.86547646949015,-3.4986458679394414,-5.733277618434475,-0.04537245189947059,-0.12760416320595902,-0.14558053090272502,-0.3864800828742981,1.6326111189270018,-9.59296325471878
2026-09-11T19:03:10.085,5.479755616000006,-116.95689392089844,-10526.12045288086,-42104.48181152344,-80.11547233581544,-1.8833266830444337,-2.266444206237793,-1.5525142812728883,-3.472875539712076,-3.7392098032785355,0.0,-0.031137466430664062,-255.078125,-11.209487915039062,0.2899170517921448,104.37013864517212,-164.46598989520803,1,1789167789.2469587,38.9904865,-76.93969028166667,-9.044,0,1,10.569001,8.596624,60.140025,1,1,1789167790.0762653,0.9980932555822845,-0.04932534218018595,0.02919077235376985,0.02290769716393295,177.5397047086769,-3.470239763700429,-5.5839216166367835,-0.026601261261346376,-0.09734940422141292,-0.13614615363106966,-0.12650578708648683,1.6342782494544983,-9.239335449886322
2026-09-11T19:03:10.119,5.513156640000005,-117.03836059570312,-10533.452453613281,-42133.809814453125,-80.17127700805665,-1.9391313552856446,-2.4230809211730957,-1.6598104310035706,-3.7128901910423426,-3.2123610860158975,0.0,-0.021448135375976562,-175.703125,-7.7213287353515625,0.3356934189796448,120.84963083267212,493.3828432176244,1,1789167789.2469587,38.9904865,-76.93969028166667,-9.044,0,1,10.569001,8.596624,60.140025,1,1,1789167790.1082654,0.9980695212619733,-0.04782067041602209,0.029139489368849223,0.026857110197857706,177.08137524446755,-3.482009138712931,-5.397516149137965,-0.07689013113075979,-0.07138204654439088,-0.12931650573509065,0.24585271955490112,1.5813223385810853,-9.421248810386658
2026-09-11T19:03:10.154,5.546571840000013,-117.12657928466797,-10541.392135620117,-42165.56854248047,-80.23170680999756,-1.9995611572265626,-2.607032537460327,-1.7858172881603243,-3.9947595028639995,-3.7709442755609923,0.0,-0.009172439575195312,-75.140625,-3.3020782470703125,0.21362310647964478,76.90431833267212,-1315.129417151184,1,1789167789.2469587,38.9904865,-76.93969028166667,-9.044,0,1,10.569001,8.596624,60.140025,1,1,1789167790.1482654,0.9980028773514017,-0.04626769204032324,0.02989531194836457,0.03091646478973327,176.61421855656081,-3.5851634430731685,-5.202701080621952,-0.09066025533021944,-0.052342424267309944,-0.13467414293993765,0.04354152671813965,0.9627188463783264,-9.562268439712524
2026-09-11T19:03:10.187,5.5799913280000055,-117.21720123291016,-10549.548110961914,-42198.192443847656,-80.29378284454346,-2.061637191772461,-2.711730718612671,-1.8575355422496798,-4.155188668239258,-2.1460009827012048,0.0,-0.008270263671875,-67.75,-2.977294921875,0.0,0.0,-2301.1818233926524,1,1789167790.1709137,38.990488191666664,-76.93968463666667,-9.027000000000001,0,1,15.476356000000001,7.929855999999999,64.112049,1,1,1789167790.1762655,0.9979252804952213,-0.04545508070695144,0.030693409965822274,0.033717721914864565,176.293870917026,-3.688082628913244,-5.0966294053525045,-0.09388318032695218,-0.03497500194656477,-0.12937445066625686,0.06903881713867188,1.1237440420341491,-9.342011077079773
2026-09-11T19:03:10.219,5.613393504000015,-117.31211853027344,-10558.09066772461,-42232.36267089844,-80.35880119323731,-2.1266555404663086,-2.869691848754883,-1.9657389163970949,-4.397232722792351,-3.2394109338081223,0.0,-0.008026123046875,-65.75,-2.889404296875,0.0,0.0,0.0,1,1789167790.1709137,38.990488191666664,-76.93968463666667,-9.027000000000001,0,1,15.476356000000001,7.929855999999999,64.112049,1,1,1789167790.2082653,0.9977902769078635,-0.04408233849779341,0.032826003688262904,0.03733315178970423,175.8839248355341,-3.944974206273712,-4.917542366386626,-0.13205963972045015,0.009986250381135955,-0.1436505458158697,0.25006957912445066,1.257506750240326,-9.312394993591308
