timestamp,time_s,drive_pos_turns,drive_encoder_count,drive_wheel_angle_deg,drive_distance_m,drive_distance_since_start_m,drive_velocity_turns_s,drive_velocity_mps,drive_velocity_mph,drive_acceleration_mps2,drive_iq_A,steer_pos_turns,steer_encoder_count,steer_angle_deg,steer_velocity_turns_s,steer_velocity_deg_s,steer_acceleration_deg_s2,gps_received,gps_ros_stamp_s,gps_latitude_deg,gps_longitude_deg,gps_altitude_m,gps_status,gps_service,gps_cov_x_m2,gps_cov_y_m2,gps_cov_z_m2,gps_covariance_type,imu_received,imu_ros_stamp_s,imu_qx,imu_qy,imu_qz,imu_qw,imu_roll_deg,imu_pitch_deg,imu_yaw_deg,imu_gyro_x_rad_s,imu_gyro_y_rad_s,imu_gyro_z_rad_s,imu_accel_x_mps2,imu_accel_y_mps2,imu_accel_z_mps2
2026-09-11T19:06:11.084,7.775999961268099e-06,-603.52490234375,-54317.2412109375,-217268.96484375,-413.41455810546876,-0.0048498535156250005,-1.500819444656372,-1.0280613195896149,-2.2997076762473463,0.0,0.0,0.016189582645893097,132.62506103515625,5.828249752521515,0.0762939527630806,27.465822994709015,1142.717957122547,0,nan,nan,nan,nan,-999,-999,nan,nan,nan,-999,1,1789167971.0759182,-0.5373656937086663,-0.8382074926800828,-0.08723596228142257,0.03219001902464616,173.51826416315276,-8.494765632753067,115.15490972449584,0.008848993840536449,-0.10786745642563154,-0.03130946145152628,0.21368690702438356,0.10022396465301514,-9.836560444736481
2026-09-11T19:06:11.118,0.03342553599998155,-603.5724487304688,-54321.52038574219,-217286.08154296875,-413.4471273803711,-0.03741912841796875,-1.474584937095642,-1.0100906819105149,-2.2595085046316075,0.53775709919184,0.0,0.016265876591205597,133.25006103515625,5.855715572834015,0.0,0.0,-821.8929992522643,0,nan,nan,nan,nan,-999,-999,nan,nan,nan,-999,1,1789167971.107918,-0.5371334469210244,-0.83866207387262,-0.08481547701467329,0.030658129512228956,173.6584052253632,-8.194740730864703,115.17848586039896,0.016469275887668892,-0.13138332463530233,-0.03919730247298945,0.7292225060272216,0.040207265663146974,-10.010432352104187
2026-09-11T19:06:11.153,0.06684246399998983,-603.6182861328125,-54325.645751953125,-217302.5830078125,-413.4785260009766,-0.0688177490234375,-1.370390772819519,-0.9387176793813706,-2.0998516450012743,2.1358337465707966,0.0,0.016265876591205597,133.25006103515625,5.855715572834015,0.0,0.0,0.0,0,nan,nan,nan,nan,-999,-999,nan,nan,nan,-999,1,1789167971.147918,-0.5366854973388566,-0.8390930283438089,-0.08396800701494962,0.02899897461803158,173.63509102263268,-7.9780950572885185,115.23819247003559,0.03141173774569315,-0.15470231970534817,-0.038627976070988904,0.21427530603408815,0.7307915700531006,-9.736728746089936
2026-09-11T19:06:11.185,0.10025827199996229,-603.6651000976562,-54329.85900878906,-217319.43603515625,-413.51059356689456,-0.10088531494140626,-1.3961641788482666,-0.9563724625110627,-2.139344270112432,-0.5283362631753987,0.0,0.01607704907655716,131.70318603515625,5.787737667560577,-0.0305175818502903,-10.986329466104507,-328.776412233203,0,nan,nan,nan,nan,-999,-999,nan,nan,nan,-999,1,1789167971.175918,-0.5364691709900266,-0.8392479454208879,-0.08362704635063146,0.02949969157061039,173.69703248071318,-8.003973452044878,115.26586019081583,0.020193459445574394,-0.14217748792718646,-0.04342344272376852,0.8387627883338927,-0.4094276442527771,-9.172748295288086
2026-09-11T19:06:11.219,0.13366979199997786,-603.7103271484375,-54333.929443359375,-217335.7177734375,-413.5415740966797,-0.13186584472656251,-1.3445014953613281,-0.9209835243225099,-2.0601814699411882,1.0591837243123428,0.0,0.016080863773822784,131.73443603515625,5.789110958576202,0.0,0.0,328.81860705826574,1,1789167971.2169003,38.990438471666664,-76.93976759166667,-10.468000000000004,0,1,8.970025000000001,10.208025,73.805281,1,1,1789167971.2079182,-0.5358709855039318,-0.8397294423407131,-0.0832759578224299,0.027601909534610877,173.60947626941413,-7.793698737973707,115.34802106643005,0.021919590075796785,-0.10111390488503949,-0.04825067436893443,-0.5060231483459473,1.1514968619918824,-9.121949847450256
2026-09-11T19:06:11.253,0.1670812159999855,-603.7594604492188,-54338.35144042969,-217353.40576171875,-413.57523040771486,-0.16552215576171878,-1.3713124990463257,-0.9393490618467332,-2.1012640073522104,-0.5496783831847193,0.0,0.014141090214252472,115.84381103515625,5.09079247713089,-0.1525879055261612,-54.93164598941803,-1644.0977190737362,1,1789167971.2169003,38.990438471666664,-76.93976759166667,-10.468000000000004,0,1,8.970025000000001,10.208025,73.805281,1,1,1789167971.2479181,-0.5350435269126245,-0.8402437721987023,-0.08362219886897027,0.026947271596832852,173.52795436579459,-7.745180772759495,115.46290570166286,0.014796377799632329,-0.03987675915079084,-0.07261302726582249,-1.3925443229675292,0.13464530672073363,-9.712015987682342
2026-09-11T19:06:11.286,0.20049964800000453,-603.803955078125,-54342.35595703125,-217369.423828125,-413.60570922851565,-0.1960009765625,-1.3710423707962036,-0.9391640239953996,-2.1008500894671585,0.0055369998009933055,0.0,0.00915718823671341,75.01568603515625,3.2965877652168274,-0.1678466945886612,-60.42481005191803,-164.37527836425332,1,1789167971.2169003,38.990438471666664,-76.93976759166667,-10.468000000000004,0,1,8.970025000000001,10.208025,73.805281,1,1,1789167971.275918,-0.5343560554979451,-0.8406839007925258,-0.08317346345545319,0.028219849003218948,173.6431705725633,-7.835906442247241,115.55404601673199,0.007766715171374766,0.001750390706825113,-0.052857470929573463,-3.6670006949806213,0.86445621175766,-9.20197211277008
2026-09-11T19:06:11.319,0.23391731199996002,-603.8495483398438,-54346.45935058594,-217385.83740234375,-413.636940612793,-0.22723236083984377,-1.3975253105163574,-0.9573048377037049,-2.1414299340186647,-0.5428510415428648,0.0,0.006181724369525909,50.64068603515625,2.2254207730293274,-0.01525880303233862,-5.493169091641903,1643.7905701711911,1,1789167971.2169003,38.990438471666664,-76.93976759166667,-10.468000000000004,0,1,8.970025000000001,10.208025,73.805281,1,1,1789167971.307918,-0.533538978482768,-0.8409586955748168,-0.08555848474250372,0.0283615314331526,173.41066174470373,-7.989945706507497,115.675232945305,-0.009926036521942152,0.05732970260488374,-0.06742573419597014,0.009610517158508301,0.7537391314315796,-9.070955266609191
2026-09-11T19:06:11.353,0.2673318399999971,-603.89697265625,-54350.7275390625,-217402.91015625,-413.6694262695313,-0.259718017578125,-1.3984999656677246,-0.9579724764823915,-2.1429233994326915,-0.019980494073890395,0.0,0.006071098148822784,49.73443603515625,2.1855953335762024,0.0,0.0,164.3946337244628,1,1789167971.2169003,38.990438471666664,-76.93976759166667,-10.468000000000004,0,1,8.970025000000001,10.208025,73.805281,1,1,1789167971.347918,-0.5324519176480221,-0.8414416300284491,-0.08727311928165976,0.029229117312362524,173.28496777898235,-8.170926313502195,115.8301174076473,-0.004000469178496203,0.09482932331445831,-0.03803630945456282,0.574571632976532,0.30851721408843996,-9.86715719324112
2026-09-11T19:06:11.386,0.30075407999999015,-603.9451904296875,-54355.067138671875,-217420.2685546875,-413.70245544433595,-0.29274719238281255,-1.45137619972229,-0.9941926968097687,-2.2239457247892083,-1.0837161221804639,0.0,0.006071098148822784,49.73443603515625,2.1855953335762024,0.0,0.0,0.0,1,1789167971.2169003,38.990438471666664,-76.93976759166667,-10.468000000000004,0,1,8.970025000000001,10.208025,73.805281,1,1,1789167971.3759181,-0.5319181979351342,-0.8417976710952656,-0.08654356698306308,0.03082081533435788,173.44801886890843,-8.276942636926096,115.89834211517865,0.004046894936599252,0.09506529182932794,-0.045600915498556646,-0.29743569940567016,-9.806650161743165e-05,-10.258442534694673
2026-09-11T19:06:11.420,0.3341741439999737,-603.9887084960938,-54358.98376464844,-217435.93505859375,-413.73226531982425,-0.3225570678710938,-1.4003551006317139,-0.9592432439327241,-2.145766025261102,1.0457625956988552,0.0,0.006071098148822784,49.73443603515625,2.1855953335762024,0.0,0.0,0.0,1,1789167971.2169003,38.990438471666664,-76.93976759166667,-10.468000000000004,0,1,8.970025000000001,10.208025,73.805281,1,1,1789167971.4079182,-0.5313328446483233,-0.8420060694737125,-0.08693735452005934,0.03395708403858717,173.59396536559848,-8.601978445201569,115.97580232857716,0.006294006348541951,0.10390346462850202,-0.04679821136542476,0.9561483907699585,0.11954306547164917,-10.072018115119935
2026-09-11T19:06:11.453,0.36759238399997685,-604.0340576171875,-54363.065185546875,-217452.2607421875,-413.7633294677735,-0.35362121582031253,-1.3227753639221191,-0.9061011242866517,-2.0268904891881054,1.5902129988313984,0.0,0.0033855512738227844,27.73443603515625,1.2187984585762024,-0.2593994438648224,-93.38379979133606,-2794.3961079735873,1,1789167971.2169003,38.990438471666664,-76.93976759166667,-10.468000000000004,0,1,8.970025000000001,10.208025,73.805281,1,1,1789167971.4479182,-0.5302847534942235,-0.8424053961334479,-0.08831950103038012,0.03675451692736693,173.61695178059034,-8.951211752875992,116.12022680992513,-0.008822639368831335,0.10373678568493656,-0.05136469082034272,1.4820790389442442,0.2126081755065918,-11.067393106536866
2026-09-11T19:06:11.486,0.40101078399999324,-604.0790405273438,-54367.11364746094,-217468.45458984375,-413.7941427612305,-0.3844345092773438,-1.323718786239624,-0.9067473685741425,-2.0283360964883266,-0.01933797810459238,0.0,-0.0039577484130859375,-32.421875,-1.4247894287109375,0.0,0.0,2794.3827290142635,1,1789167971.2169003,38.990438471666664,-76.93976759166667,-10.468000000000004,0,1,8.970025000000001,10.208025,73.805281,1,1,1789167971.475918,-0.5296000314429812,-0.8428059014473204,-0.08766057616174129,0.03895693222206793,173.80789945586534,-9.120790505137714,116.20573803960879,-0.002323207767329652,0.12380597768776896,-0.07290345005335434,0.40364172065734866,-0.192210343170166,-9.667591862449646
2026-09-11T19:06:11.520,0.434428319999995,-604.12255859375,-54371.0302734375,-217484.12109375,-413.8239526367188,-0.41424438476562503,-1.3241431713104248,-0.9070380723476411,-2.028986382309503,-0.00869913848521287,0.0,-0.010166168212890625,-83.28125,-3.659820556640625,-0.09155276417732239,-32.95899510383606,-986.2784348862327,1,1789167971.2169003,38.990438471666664,-76.93976759166667,-10.468000000000004,0,1,8.970025000000001,10.208025,73.805281,1,1,1789167971.515918,-0.528286418562825,-0.843692888306141,-0.0867565504780045,0.03961150253225519,173.92225658812163,-9.120102746144683,116.37891824780296,-0.005955412473655052,0.0829521832217117,-0.08087297248381085,-0.4899402420806884,0.1459229544067383,-9.441744709224702
2026-09-11T19:06:11.554,0.4678449279999768,-604.1627197265625,-54374.644775390625,-217498.5791015625,-413.8514630126953,-0.44175476074218756,-1.2207900285720825,-0.8362411695718766,-1.8706182211253481,2.1186142763443585,0.0,-0.013582229614257812,-111.265625,-4.8896026611328125,0.0,0.0,986.3058244527393,1,1789167971.2169003,38.990438471666664,-76.93976759166667,-10.468000000000004,0,1,8.970025000000001,10.208025,73.805281,1,1,1789167971.547918,-0.5272728228368171,-0.8441579572609426,-0.0872626144294919,0.042023203276960075,174.00697987336335,-9.379377425355004,116.51312787624285,-0.004562988796413975,0.03879971646938514,-0.0789178546557268,0.948989536151886,0.025987622928619385,-9.931194618797301
2026-09-11T19:06:11.586,0.5012642879999589,-604.2039184570312,-54378.35266113281,-217513.41064453125,-413.8796841430664,-0.4699758911132813,-1.221261739730835,-0.836564291715622,-1.8713410247754587,-0.009668711302238769,0.0,-0.013582229614257812,-111.265625,-4.8896026611328125,0.0,0.0,0.0,1,1789167971.2169003,38.990438471666664,-76.93976759166667,-10.468000000000004,0,1,8.970025000000001,10.208025,73.805281,1,1,1789167971.5759182,-0.5265463149415004,-0.8445387828861737,-0.08744215265455488,0.04309399449811895,174.04575395627734,-9.489902511548868,116.6099023054707,-0.013377774183611336,0.008593303105119281,-0.06736133154657155,0.9104494010162354,0.19289680868148804,-9.50931252883911
2026-09-11T19:06:11.620,0.5346838400000138,-604.243896484375,-54381.95068359375,-217527.802734375,-413.9070690917969,-0.49736083984375,-1.2216861248016357,-0.8368549954891206,-1.8719913105966348,-0.00869861371864364,0.0,-0.012075424194335938,-98.921875,-4.3471527099609375,0.0457763709127903,16.479493528604507,493.10934893973007,1,1789167971.2169003,38.990438471666664,-76.93976759166667,-10.468000000000004,0,1,8.970025000000001,10.208025,73.805281,1,1,1789167971.6159182,-0.5257325159961056,-0.8453199497766923,-0.08496447049617371,0.04266782027757793,174.25540927700186,-9.292409921706057,116.70954831852727,-0.0016721999563357672,-0.02377784213039515,-0.0640853485405782,0.568001177368164,-0.19299487518310546,-9.855781479053498
2026-09-11T19:06:11.653,0.568104127999959,-604.2805786132812,-54385.25207519531,-217541.00830078125,-413.9321963500977,-0.5224880981445313,-1.0923000574111938,-0.7482255393266678,-1.6737328635617998,2.6519656611755713,0.0,-0.010326385498046875,-84.59375,-3.717498779296875,0.0,0.0,-493.09848941551655,1,1789167971.2169003,38.990438471666664,-76.93976759166667,-10.468000000000004,0,1,8.970025000000001,10.208025,73.805281,1,1,1789167971.647918,-0.5249926454470097,-0.8459949408451821,-0.08411094343831121,0.04000789278160644,174.17153346757019,-8.97527340334475,116.81347209741922,-0.001547583447743372,-0.022432193277107517,-0.05533461673692902,-0.1137571418762207,0.5258325816726684,-9.739866874141693
2026-09-11T19:06:11.687,0.6015225279999754,-604.31982421875,-54388.7841796875,-217555.13671875,-413.9590795898438,-0.5493713378906251,-1.1712092161178589,-0.8022783130407334,-1.7946454747689973,-1.6174554650743025,0.0,-0.01004791259765625,-82.3125,-3.61724853515625,0.015258789993822575,5.493164397776127,164.37544579553278,1,1789167971.2169003,38.990438471666664,-76.93976759166667,-10.468000000000004,0,1,8.970025000000001,10.208025,73.805281,1,1,1789167971.675918,-0.524331704260958,-0.8464818706961458,-0.08442468477332792,0.037645439172322985,173.99178600614798,-8.758235089188839,116.9103372508225,-0.0006040584541152375,-0.020543397960599254,-0.05806850047725294,0.13680276975631714,0.24987344612121581,-9.557267048130036
2026-09-11T19:06:11.721,0.6349414399999773,-604.3558959960938,-54392.03063964844,-217568.12255859375,-413.98378875732425,-0.5740805053710938,-1.0932807922363281,-0.7488973426818848,-1.6752356448682086,1.5973281942525699,0.0,-0.009252548217773438,-75.796875,-3.3309173583984375,0.03051757998764515,10.986328795552254,164.37292745424546,1,1789167971.2169003,38.990438471666664,-76.93976759166667,-10.468000000000004,0,1,8.970025000000001,10.208025,73.805281,1,1,1789167971.715918,-0.5237032129091058,-0.8470108164050556,-0.0832601800497683,0.03708590162853552,174.0667040796965,-8.62875592961357,116.99136852654834,0.0029244736946416982,0.0056555649081624255,-0.05338490942952616,-0.6432181841087341,0.5614307217597961,-10.144783459320069
2026-09-11T19:06:11.753,0.6683649919999652,-604.3934936523438,-54395.41442871094,-217581.65771484375,-414.0095431518555,-0.5998348999023438,-1.0942554473876953,-0.7495649814605714,-1.6767291102822355,-0.019975099555152812,0.0,-0.008880615234375,-72.75,-3.197021484375,0.0,0.0,-328.7002170073433,1,1789167971.2169003,38.990438471666664,-76.93976759166667,-10.468000000000004,0,1,8.970025000000001,10.208025,73.805281,1,1,1789167971.7479181,-0.5229429174547964,-0.847295280338927,-0.08507971275273488,0.037186764811652624,173.88525980650715,-8.742847721501779,117.1028652176041,0.008312828694323792,0.04822746148988291,-0.043360261804846326,0.30890948009490965,0.4212936909484863,-9.697404078941345
2026-09-11T19:06:11.786,0.7017850880000083,-604.4307861328125,-54398.770751953125,-217595.0830078125,-414.0350885009766,-0.6253802490234376,-1.1471316814422607,-0.7857852017879486,-1.7577514356387522,-1.0837856458380797,0.0,-0.008270263671875,-67.75,-2.977294921875,0.015258789993822575,5.493164397776127,164.36710408519036,1,1789167971.2169003,38.990438471666664,-76.93976759166667,-10.468000000000004,0,1,8.970025000000001,10.208025,73.805281,1,1,1789167971.775918,-0.5222591668043688,-0.847522146882639,-0.08696621387927042,0.0372619225987304,173.69617742151837,-8.85871218364695,117.20447095154144,-0.005664815153197996,0.08154824037140745,-0.03959279408149136,0.2858638522148132,0.38579361736297607,-9.413697689762115
2026-09-11T19:06:11.820,0.7352046720000089,-604.4671020507812,-54402.03918457031,-217608.15673828125,-414.0599649047852,-0.6502566528320313,-1.0954689979553223,-0.7503962635993958,-1.6785886354675084,1.0589281478953212,0.0,-0.0074062347412109375,-60.671875,-2.6662445068359375,0.015258795581758022,5.493166409432888,6.019394978613119e-05,1,1789167971.2169003,38.990438471666664,-76.93976759166667,-10.468000000000004,0,1,8.970025000000001,10.208025,73.805281,1,1,1789167971.8159182,-0.5213237954733747,-0.8480480334623084,-0.0877313500999308,0.03659567493010185,173.57098499342604,-8.832285156412246,117.33613003017392,-0.015489971644374875,0.10533515821391297,-0.03727761482872089,0.1927987421798706,0.28429478818893433,-10.139291735229492
2026-09-11T19:06:11.854,0.7686266879999835,-604.5056762695312,-54405.51086425781,-217622.04345703125,-414.08638824462895,-0.6766799926757813,-1.1479904651641846,-0.7863734686374665,-1.759067351103851,-1.0764522714039182,0.0,-0.0064830780029296875,-53.109375,-2.3339080810546875,0.0457763709127903,16.479493528604507,328.71527316544865,1,1789167971.2169003,38.990438471666664,-76.93976759166667,-10.468000000000004,0,1,8.970025000000001,10.208025,73.805281,1,1,1789167971.847918,-0.5207324162996613,-0.848465041021455,-0.08690057539148356,0.03732445278642392,173.6904264810599,-8.849577284760475,117.4109648778802,-0.0035927602652303272,0.12703186974423009,-0.04114317005603793,-0.4703269417572022,0.5558409311676026,-9.939530271434784
2026-09-11T19:06:11.887,0.8020447039999681,-604.5401000976562,-54408.60900878906,-217634.43603515625,-414.10996856689457,-0.7002603149414063,-1.070670247077942,-0.7334091192483903,-1.6405894757703772,1.584904064594996,0.0,-0.00434112548828125,-35.5625,-1.56280517578125,0.0610351637005806,21.972658932209015,164.37736470073614,1,1789167971.2169003,38.990438471666664,-76.93976759166667,-10.468000000000004,0,1,8.970025000000001,10.208025,73.805281,1,1,1789167971.8759181,-0.5202520238564527,-0.8486431930737846,-0.0875991151354292,0.03832698201379663,173.67583722466,-8.98634665934235,117.47755980492911,0.002182883295469308,0.08281901459978454,-0.03578378752193894,0.414625168838501,0.5086709438896179,-9.062717680473327
2026-09-11T19:06:11.920,0.8354652479999913,-604.5768432617188,-54411.91589355469,-217647.66357421875,-414.1351376342774,-0.7254293823242188,-1.0716136693954468,-0.7340553635358811,-1.6420350830705983,-0.019336737531572713,0.0,0.0007400513277389109,6.062500476837158,0.26641847798600793,0.2288818508386612,82.39746630191803,1808.013878220144,1,1789167971.2169003,38.990438471666664,-76.93976759166667,-10.468000000000004,0,1,8.970025000000001,10.208025,73.805281,1,1,1789167971.915918,-0.5196583166061038,-0.8487801455112671,-0.0895098348209627,0.03892926968627377,173.51591830027337,-9.155464228116305,117.56632739298534,0.005122890420453756,0.037390886697175316,-0.02367224971064949,0.21947283061981201,0.5137704019737244,-9.494210287590027
2026-09-11T19:06:11.954,0.8690186559999802,-604.6124267578125,-54415.118408203125,-217660.4736328125,-414.1595123291016,-0.7498040771484376,-1.1768687963485718,-0.8061551254987718,-1.8033176572538718,-2.14880592644761,0.0,0.0081367501989007,66.65625762939453,2.929230071604252,0.2441406548023224,87.89063572883606,163.7142023522575,1,1789167971.2169003,38.990438471666664,-76.93976759166667,-10.468000000000004,0,1,8.970025000000001,10.208025,73.805281,1,1,1789167971.9479182,-0.5192770970908446,-0.8490011486892141,-0.09024840590052027,0.037464265556872364,173.35164825905952,-9.052665555546143,117.62423718056266,0.0015812683023068625,-0.005069134279492331,-0.020435885678676404,-0.43570946668624877,0.5664321133422852,-9.515294585437774
2026-09-11T19:06:11.988,0.9024383359999888,-604.6513061523438,-54418.61755371094,-217674.47021484375,-414.1861447143555,-0.7764364624023438,-1.099548578262329,-0.7531907761096955,-1.684839781920398,1.584825150601759,0.0,0.016872407868504524,138.21876525878906,6.074066832661629,0.2288818657398224,82.39747166633606,-164.3691400545602,1,1789167971.2169003,38.990438471666664,-76.93976759166667,-10.468000000000004,0,1,8.970025000000001,10.208025,73.805281,1,1,1789167971.975918,-0.5188557563832159,-0.8492200968420864,-0.09128855793899625,0.03578170450016009,173.14430305766302,-8.946043576920719,117.68882491625797,0.0042910664989532585,-0.03993138795637827,-0.02190248584912724,-0.20231119283676147,0.8612200172042846,-9.649253426647187
2026-09-11T19:06:12.022,0.9358585599999856,-604.6922607421875,-54422.303466796875,-217689.2138671875,-414.2141986083985,-0.8044903564453125,-1.2310638427734375,-0.8432787322998048,-1.8863608005990602,-2.69561198004292,0.0,0.02662658877670765,218.12501525878906,9.585571959614754,0.1678467094898224,60.42481541633606,-657.4658580984411,1,1789167971.2169003,38.990438471666664,-76.93976759166667,-10.468000000000004,0,1,8.970025000000001,10.208025,73.805281,1,1,1789167972.015918,-0.5185176850307794,-0.8493235256954363,-0.09298646364145122,0.03380054126862381,172.85507163532296,-8.849841791925925,117.74492367882047,0.005128650006985337,-0.03983330045241618,0.0029164451800825246,-0.09590903858184816,1.0735339932060242,-9.55295212205887
2026-09-11T19:06:12.054,0.9692721600000027,-604.7308349609375,-54425.775146484375,-217703.1005859375,-414.2406219482422,-0.8309136962890625,-1.179401159286499,-0.807889794111252,-1.8071980004278163,1.0591177900176774,0.0,0.0362396277487278,296.8750305175781,13.046265989542007,0.3814697563648224,137.32911229133606,2301.586685510108,1,1789167971.2169003,38.990438471666664,-76.93976759166667,-10.468000000000004,0,1,8.970025000000001,10.208025,73.805281,1,1,1789167972.047918,-0.5185802991959142,-0.8495102812632392,-0.09167102029913189,0.03167300666568179,172.86045816175042,-8.562644155640104,117.73153612069277,0.003061307507998054,-0.057719434626854076,0.0008382816397328766,-0.2552671037101746,0.7753137617874146,-9.498525213661194
2026-09-11T19:06:12.088,1.0026886719999766,-604.77197265625,-54429.4775390625,-217717.91015625,-414.2688012695313,-0.8590930175781251,-1.1813504695892334,-0.8092250716686249,-1.8101849312558698,-0.03995861559022059,0.0,0.04402923956513405,360.6875305175781,15.850526243448257,0.1983642876148224,71.41114354133606,-1972.6166737585168,1,1789167971.2169003,38.990438471666664,-76.93976759166667,-10.468000000000004,0,1,8.970025000000001,10.208025,73.805281,1,1,1789167972.0759182,-0.5187332695485747,-0.8496393459899924,-0.09017202649002075,0.029963018002644056,172.90951653661813,-8.306356404308408,117.70459631058183,0.008317715616229376,-0.06854675917452609,0.01413961040210686,-0.38167482429504396,1.0563723554229736,-10.064859260501862
2026-09-11T19:06:12.122,1.0361025919999634,-604.8145751953125,-54433.311767578125,-217733.2470703125,-414.2979840087891,-0.8882757568359376,-1.2865626811981201,-0.8812954366207123,-1.9714017461987996,-2.156896435740432,0.0,0.05275726690888405,432.1875305175781,18.992616087198257,0.2899170219898224,104.37012791633606,986.384847243695,1,1789167971.2169003,38.990438471666664,-76.93976759166667,-10.468000000000004,0,1,8.970025000000001,10.208025,73.805281,1,1,1789167972.1159182,-0.5189963759724228,-0.8495052010370947,-0.08978710418362922,0.030363647026252667,172.97393362864088,-8.324916973374991,117.66715087664232,-0.04018480976376784,-0.04135993994913562,0.0012185888837424408,-1.5430764029502868,-1.2881034987449644,-13.18974833454132
2026-09-11T19:06:12.155,1.0695223039999746,-604.84619140625,-54436.1572265625,-217744.62890625,-414.3196411132813,-0.9099328613281251,-0.9755006432533264,-0.6682179406285287,-1.494760962393808,6.375802879214274,0.0,0.058530811220407486,479.4844055175781,21.071092039346695,0.04577639698982239,16.47950291633606,-2629.903722688286,1,1789167971.2169003,38.990438471666664,-76.93976759166667,-10.468000000000004,0,1,8.970025000000001,10.208025,73.805281,1,1,1789167972.147918,-0.5198723607744641,-0.8491315489981723,-0.0879932669187366,0.031072913859467154,173.20219323900625,-8.294459763481353,117.54020501259369,-0.08953748502241149,-0.06768404292526531,0.055264105435148446,0.7434421487617493,-1.7816722013854982,-10.955597294692993
2026-09-11T19:06:12.188,1.102941632000011,-604.8827514648438,-54439.44763183594,-217757.79052734375,-414.344684753418,-0.9349765014648438,-1.0805435180664062,-0.7401723098754883,-1.655718302334215,-2.1530764845684933,0.0,0.058561328798532486,479.7344055175781,21.082078367471695,0.0,0.0,-493.11293501527456,1,1789167972.1553307,38.990442,-76.93976584166667,-10.450000000000003,0,1,10.536516,10.863615999999999,79.26340900000001,1,1,1789167972.175918,-0.5203299787880924,-0.8487653433884526,-0.08825209390919596,0.032644646692961424,173.27434684977788,-8.467924253123286,117.47827086222387,-0.07502542135792904,0.004100302011710279,0.00637760761971248,2.14853898393631,-0.3962867330360413,-7.107761970729828
2026-09-11T19:06:12.222,1.1363624319999985,-604.90576171875,-54441.5185546875,-217766.07421875,-414.3604467773438,-0.9507385253906251,-0.7967760562896729,-0.545791598558426,-1.2209010347137288,5.816159736365812,0.0,0.058561328798532486,479.7344055175781,21.082078367471695,0.0,0.0,0.0,1,1789167972.1553307,38.990442,-76.93976584166667,-10.450000000000003,0,1,10.536516,10.863615999999999,79.26340900000001,1,1,1789167972.215918,-0.5203563097415501,-0.8488442071016108,-0.0871802964243095,0.033051760884454245,173.40487737596925,-8.443915092890526,117.46934434898233,-0.051735224220541116,0.05184151477198757,-0.010682462219756494,-1.060295015487671,0.25212897565841674,-9.15882285205841
2026-09-11T19:06:12.255,1.169783424000002,-604.9361572265625,-54444.254150390625,-217777.0166015625,-414.38126770019534,-0.9715594482421875,-0.9282913208007812,-0.6358795547485352,-1.422422053392391,-2.6955500360402183,0.0,0.058561328798532486,479.7344055175781,21.082078367471695,0.0,0.0,0.0,1,1789167972.1553307,38.990442,-76.93976584166667,-10.450000000000003,0,1,10.536516,10.863615999999999,79.26340900000001,1,1,1789167972.2479181,-0.5205586869271551,-0.8486956165650942,-0.08752438977570774,0.03277018587467691,173.35611016028483,-8.438456570790178,117.44384135080597,-0.015791040940343896,0.00551262244242409,0.02787360628605024,0.025889556427001952,0.8712228003692627,-9.405656236629486
2026-09-11T19:06:12.288,1.203205215999958,-604.962158203125,-54446.59423828125,-217786.376953125,-414.3990783691407,-0.9893701171875001,-0.7991346120834351,-0.547407209277153,-1.2245150529642816,2.647145475368247,0.0,0.06121063604950905,501.4375305175781,22.035828977823257,0.2441406548023224,87.89063572883606,2629.7403720587995,1,1789167972.1553307,38.990442,-76.93976584166667,-10.450000000000003,0,1,10.536516,10.863615999999999,79.26340900000001,1,1,1789167972.275918,-0.5207266273076961,-0.8483975345172642,-0.08970737631864249,0.031905950413748455,173.09038140033095,-8.485777190267099,117.43196545356868,0.02110801197361942,-0.07612742224763827,0.02832285403551358,0.6481215091896056,2.058513935451508,-9.120478849925995
2026-09-11T19:06:12.322,1.2366298239999765,-605.0001831054688,-54450.01647949219,-217800.06591796875,-414.42512542724614,-1.0154171752929688,-1.1134141683578491,-0.7626887053251267,-1.7060860444817596,-6.440808402236304,0.0,0.06858063489198685,561.8125610351562,24.689028561115265,0.2288818657398224,82.39747166633606,-164.3449060792865,1,1789167972.1553307,38.990442,-76.93976584166667,-10.450000000000003,0,1,10.536516,10.863615999999999,79.26340900000001,1,1,1789167972.3159182,-0.5211127856231491,-0.8482585046189831,-0.09015307940585873,0.02777402159014177,172.80468174776996,-8.110284928833302,117.38325517653882,0.08252562475252428,-0.16585235563171394,0.047060010753223906,-0.19917306478500368,2.507952712364197,-8.573660036907196
2026-09-11T19:06:12.355,1.270045247999974,-605.0409545898438,-54453.68591308594,-217814.74365234375,-414.453053894043,-1.043345642089844,-1.2170268297195435,-0.8336633783578873,-1.8648518664054365,-2.124009350674882,0.0,0.07575798779726028,620.6094360351562,27.272875607013702,0.1525879204273224,54.93165135383606,-821.9503757457045,1,1789167972.1553307,38.990442,-76.93976584166667,-10.450000000000003,0,1,10.536516,10.863615999999999,79.26340900000001,1,1,1789167972.347918,-0.5217920670671186,-0.8479996747162573,-0.08943231678797169,0.025128691587136022,172.72516872374834,-7.8134643367371295,117.28774968176,0.1623589046009221,-0.1731103073261324,0.05532798448577144,0.40069972560882566,2.3374150660514834,-7.608685660991668
2026-09-11T19:06:12.388,1.3034663039999828,-605.0911865234375,-54458.206787109375,-217832.8271484375,-414.48746276855474,-1.0777545166015625,-1.4269795417785645,-0.9774809861183167,-2.1865626926411856,-4.303203578019547,0.0,0.07890129834413528,646.3594360351562,28.404467403888702,0.1068115308880806,38.452151119709015,-493.0873588830562,1,1789167972.1553307,38.990442,-76.93976584166667,-10.450000000000003,0,1,10.536516,10.863615999999999,79.26340900000001,1,1,1789167972.3759181,-0.522208452145738,-0.8477742883808445,-0.08983317808740113,0.022518627458671326,172.53417940234135,-7.5854526089626955,117.2314967362176,-0.013224359742361035,-0.1570585141955405,0.0422610534419403,-0.4407108582687378,1.18709500207901,-11.515360885925292
2026-09-11T19:06:12.423,1.3368923520000067,-605.14453125,-54463.0078125,-217852.03125,-414.52400390625,-1.1142956542968752,-1.5587705373764038,-1.0677578181028367,-2.388506214439056,-2.700792866223832,0.0,0.07830239087343216,641.4531860351562,28.188860714435577,-0.015258789993822575,-5.493164397776127,-1314.702698848925,1,1789167972.1553307,38.990442,-76.93976584166667,-10.450000000000003,0,1,10.536516,10.863615999999999,79.26340900000001,1,1,1789167972.415918,-0.5227791689464127,-0.847393229226806,-0.09022151728406004,0.022062035156031577,172.4737540653612,-7.569128683130497,117.15551560072954,0.021727603858077406,-0.009536129967046617,-0.01535243969931772,-2.4086113462257384,2.175409205379486,-10.714647900218964
2026-09-11T19:06:12.455,1.370317344,-605.1983032226562,-54467.84729003906,-217871.38916015625,-414.56083770751957,-1.1511294555664064,-1.6121184825897217,-1.1043011605739594,-2.470251343445683,-1.0932939780847224,0.0,0.07557488232851028,619.1094360351562,27.206957638263702,-0.1220703274011612,-43.94531786441803,-1150.4012765851826,1,1789167972.1553307,38.990442,-76.93976584166667,-10.450000000000003,0,1,10.536516,10.863615999999999,79.26340900000001,1,1,1789167972.4479182,-0.5234022044220258,-0.8470412616639953,-0.09024135666287733,0.020681658358896897,172.39510529599605,-7.440786057934793,117.06988232959453,0.019103850393554334,-0.009758135847900298,0.05195112144901281,-1.9495620521545411,0.9230999797248841,-9.501859474716186
2026-09-11T19:06:12.489,1.4037464959999966,-605.255126953125,-54472.96142578125,-217891.845703125,-414.5997619628907,-1.1900537109375,-1.7171614170074463,-1.1762555706501008,-2.6312087747183686,-2.1524449700712966,0.0,0.07167244702577591,587.1406860351562,25.802080929279327,-0.1220703274011612,-43.94531786441803,0.0,1,1789167972.1553307,38.990442,-76.93976584166667,-10.450000000000003,0,1,10.536516,10.863615999999999,79.26340900000001,1,1,1789167972.475918,-0.523415152727648,-0.8470386568181777,-0.0905663005182735,0.018969369024403843,172.2611565249234,-7.292982721176989,117.06716780510881,0.014362314414661338,-0.01589942588689274,0.01819401025448969,-0.7938483305931091,0.9401635510063171,-9.556874782123566
2026-09-11T19:06:12.522,1.4371708159999912,-605.313720703125,-54478.23486328125,-217912.939453125,-414.63989868164066,-1.2301904296875001,-1.7700270414352417,-1.2124685233831407,-2.712214842929356,-1.083431248056677,0.0,0.07018471509218216,574.9531860351562,25.266497433185577,-0.0915527418255806,-32.958987057209015,328.69272455537714,1,1789167972.1553307,38.990442,-76.93976584166667,-10.450000000000003,0,1,10.536516,10.863615999999999,79.26340900000001,1,1,1789167972.515918,-0.523487243099794,-0.8467176628302838,-0.09306897519009627,0.01919561460501228,172.02824601930413,-7.466551293163888,117.06774171027327,0.01485100660521975,0.07384435705310449,0.01606924642311179,-0.8664175417900085,1.4551107509994508,-10.700526323986054
2026-09-11T19:06:12.556,1.4705953600000043,-605.3750610351562,-54483.75549316406,-217935.02197265625,-414.68191680908205,-1.2722085571289063,-1.8488092422485352,-1.2664343309402466,-2.8329329163838697,-1.6145562840613368,0.0,0.06832695752382278,559.7344360351562,24.597704708576202,0.0,0.0,986.0714048094729,1,1789167972.1553307,38.990442,-76.93976584166667,-10.450000000000003,0,1,10.536516,10.863615999999999,79.26340900000001,1,1,1789167972.547918,-0.5236211167036282,-0.8466479321790545,-0.09295775677772121,0.019158823915642092,172.03820943031238,-7.457506285473585,117.04912778174712,0.010115753811633935,0.09851476056296952,0.01352699983465685,-1.8443366959190368,0.653613233280182,-9.927664224739075
2026-09-11T19:06:12.589,1.504017823999959,-605.4391479492188,-54489.52331542969,-217958.09326171875,-414.72581634521487,-1.3161080932617188,-1.927188754081726,-1.3201242965459825,-2.953033948966493,-1.6064035735309226,0.0,0.0683899000287056,560.2500610351562,24.620364010334015,-0.0457763709127903,-16.479493528604507,-493.06638578851704,1,1789167972.1553307,38.990442,-76.93976584166667,-10.450000000000003,0,1,10.536516,10.863615999999999,79.26340900000001,1,1,1789167972.5759182,-0.5235811778945062,-0.8462941877714839,-0.09610679588512207,0.020307183051852928,171.79525064002368,-7.7592629485150635,117.0692642049547,-0.026276804553400628,0.07650476243191943,0.03365797649300985,0.12326959253311157,1.83276484872818,-9.093804761486053
2026-09-11T19:06:12.623,1.5374407680000104,-605.5062255859375,-54495.560302734375,-217982.2412109375,-414.77176452636724,-1.3620562744140625,-1.9788514375686646,-1.3555132347345353,-3.0321967491377366,-1.0588216941182231,0.0,0.06832695752382278,559.7344360351562,24.597704708576202,-0.0457763709127903,-16.479493528604507,0.0,1,1789167972.1553307,38.990442,-76.93976584166667,-10.450000000000003,0,1,10.536516,10.863615999999999,79.26340900000001,1,1,1789167972.6159182,-0.5239943482971767,-0.845708943617571,-0.09855354672732734,0.02221495139165734,171.67091608394367,-8.097484678482774,117.02654874052182,0.011139563950853809,0.061311147694533205,0.05878164200961782,0.4005035926055908,1.095500889568329,-9.948650456085206
2026-09-11T19:06:12.656,1.5708607039999833,-605.5760498046875,-54501.844482421875,-218007.3779296875,-414.81959411621096,-1.4098858642578127,-2.082792282104492,-1.4267127132415773,-3.1914654465854864,-2.1304492775539616,0.0,0.06981850415468216,571.9531860351562,25.134661495685577,0.1525879055261612,54.93164598941803,2136.7826532666113,1,1789167972.1553307,38.990442,-76.93976584166667,-10.450000000000003,0,1,10.536516,10.863615999999999,79.26340900000001,1,1,1789167972.647918,-0.524478954367546,-0.8453371534887455,-0.09929765677865937,0.021607839210306724,171.56581995721427,-8.08782651311262,116.96330496719888,0.00436437032753702,0.05153259149438457,0.05721800153275611,-0.7158854618072509,1.269078597431183,-9.390652061882019
2026-09-11T19:06:12.689,1.6042851839999912,-605.6470336914062,-54508.23303222656,-218032.93212890625,-414.8682180786133,-1.4585098266601564,-2.109327793121338,-1.4448895382881166,-3.2321258462064133,-0.5438177361782444,0.0,0.07444382458925247,609.8438110351562,26.79977685213089,0.1220703274011612,43.94531786441803,-328.6910708856926,1,1789167972.1553307,38.990442,-76.93976584166667,-10.450000000000003,0,1,10.536516,10.863615999999999,79.26340900000001,1,1,1789167972.675918,-0.5251717000324916,-0.8450181683564087,-0.09855298598711512,0.020646781482507936,171.588602084324,-7.955751269466377,116.86475743373119,0.01241051271215608,0.07758913549618351,0.06602667826757148,-0.6416491200828552,0.18456115604400636,-10.741616188163757
2026-09-11T19:06:12.723,1.6377067519999855,-605.7200317382812,-54514.80285644531,-218059.21142578125,-414.9182217407227,-1.5085134887695313,-2.1616106033325195,-1.480703263282776,-3.3122388674006227,-1.071575247297356,0.0,0.07754708081483841,635.2656860351562,27.916949093341827,0.045776382088661194,16.47949755191803,-821.799273825354,1,1789167972.1553307,38.990442,-76.93976584166667,-10.450000000000003,0,1,10.536516,10.863615999999999,79.26340900000001,1,1,1789167972.715918,-0.5262896134750269,-0.8443121645200606,-0.09831291258429767,0.022153618461756317,171.71293221382234,-8.099423392962509,116.71424251605934,0.012479802283460253,0.07484600151082403,0.09153082556111422,-0.641158787574768,1.0217548803520202,-10.305612521972657
2026-09-11T19:06:12.756,1.6711268799999743,-605.7954711914062,-54521.59240722656,-218086.36962890625,-414.9698977661133,-1.5601895141601563,-2.23990535736084,-1.5343351697921754,-3.432210025483567,-1.6047786085504354,0.0,0.0784454420208931,642.6250610351562,28.240359127521515,0.0610351599752903,21.972657591104507,164.36681628473454,1,1789167972.1553307,38.990442,-76.93976584166667,-10.450000000000003,0,1,10.536516,10.863615999999999,79.26340900000001,1,1,1789167972.7479181,-0.5271695467131942,-0.8436834486588545,-0.09885465233058238,0.02276543849582014,171.70459405467085,-8.200638971726095,116.5978906280718,0.019546814957710493,0.02397331900661851,0.0820887688407501,2.096563738079071,-0.6985276910209656,-12.110526484241486
2026-09-11T19:06:12.790,1.7045490879999647,-605.8703002929688,-54528.32702636719,-218113.30810546875,-415.0211557006836,-1.6114474487304689,-2.2408013343811035,-1.534948914051056,-3.433582932290297,-0.018363366623793256,0.0,0.08036423474550247,658.3438110351562,28.93112450838089,0.030517585575580597,10.986330807209015,-328.7133747686163,1,1789167972.1553307,38.990442,-76.93976584166667,-10.450000000000003,0,1,10.536516,10.863615999999999,79.26340900000001,1,1,1789167972.787918,-0.528488182811585,-0.8427490987086774,-0.09953137277295515,0.02382652068917128,171.71445803211597,-8.358234622816981,116.42279669934801,-0.012317486663024782,-0.007896742200648345,0.06648814332179878,-0.5770232955169678,1.6589910078620909,-10.552642039546967
2026-09-11T19:06:12.823,1.737970271999984,-605.94677734375,-54535.2099609375,-218140.83984375,-415.0735424804688,-1.6638342285156251,-2.2673165798187256,-1.5531118571758271,-3.4742122789366174,-0.5434560045736457,0.0,0.0799865797162056,655.2500610351562,28.795168697834015,0.0,0.0,-328.7235666816187,1,1789167972.1553307,38.990442,-76.93976584166667,-10.450000000000003,0,1,10.536516,10.863615999999999,79.26340900000001,1,1,1789167972.8159182,-0.5294064456500882,-0.8423717165043886,-0.09791643684297296,0.023475049170685117,171.8614145193596,-8.234484383484663,116.29045946840698,-0.04518203647807801,-0.051368705077622305,0.07443427834027858,-1.8464941589546204,0.4242356859970093,-9.710152724151612
2026-09-11T19:06:12.856,1.7713916799999652,-606.0216064453125,-54541.944580078125,-218167.7783203125,-415.1248004150391,-1.7150921630859377,-2.2422423362731934,-1.5359360003471376,-3.4357909814493914,0.5139178106649256,0.0,0.07986641675233841,654.2656860351562,28.751910030841827,0.045776382088661194,16.47949755191803,493.08208534862956,1,1789167972.1553307,38.990442,-76.93976584166667,-10.450000000000003,0,1,10.536516,10.863615999999999,79.26340900000001,1,1,1789167972.847918,-0.5306163381701111,-0.841837786082261,-0.09555663219972453,0.024987469533869683,172.19664181292396,-8.24918892812318,116.11654083767512,-0.013339376940067461,-0.06663126032046232,0.06641082523593544,1.675760379638672,-0.7596231215286255,-10.597066164779664
2026-09-11T19:06:12.889,1.8048115519999897,-606.0941162109375,-54548.470458984375,-218193.8818359375,-415.17446960449223,-1.7647613525390626,-2.1904311180114746,-1.5004453158378601,-3.356400581240736,1.0619635080963652,0.0,0.07786751538515091,637.8906860351562,28.032305538654327,-0.0762939527630806,-27.465822994709015,-1314.9458066923426,1,1789167972.1553307,38.990442,-76.93976584166667,-10.450000000000003,0,1,10.536516,10.863615999999999,79.26340900000001,1,1,1789167972.8759181,-0.5315172999761523,-0.8414338128769097,-0.09396673002568755,0.025470610942149505,172.39091425011088,-8.207213910409525,115.98710319057332,-0.01761543360745357,-0.0902122293112325,0.0634058918627768,1.7310698865509033,0.6066393790054321,-10.572451472873688
2026-09-11T19:06:12.923,1.8382343679999735,-606.1666870117188,-54555.00183105469,-218220.00732421875,-415.2241806030274,-1.814472351074219,-2.1393394470214844,-1.4654475212097169,-3.2781127442951754,1.0471228584736882,0.0,0.07350922375917435,602.1875610351562,26.463320553302765,-0.1525879055261612,-54.93164598941803,-821.768668287025,1,1789167972.1553307,38.990442,-76.93976584166667,-10.450000000000003,0,1,10.536516,10.863615999999999,79.26340900000001,1,1,1789167972.915918,-0.5324553080654866,-0.8411242605811307,-0.0915234981160747,0.024995448932377425,172.6110075989369,-8.019660961353162,115.84875698644368,-0.009702634377686876,-0.09198181863982956,0.04708147830302343,0.7886508060073854,0.31597026821136476,-9.286309304161072
2026-09-11T19:06:12.957,1.871657407999976,-606.2391357421875,-54561.522216796875,-218246.0888671875,-415.27380798339846,-1.8640997314453127,-2.1663262844085693,-1.48393350481987,-3.31946471192705,-0.553091029725359,0.0,0.07183647900819778,588.4844360351562,25.861132442951202,0.045776382088661194,16.47949755191803,2136.584330489714,1,1789167972.1553307,38.990442,-76.93976584166667,-10.450000000000003,0,1,10.536516,10.863615999999999,79.26340900000001,1,1,1789167972.9479182,-0.5329991950096475,-0.8409560774804514,-0.08987280797292653,0.02505219061923242,172.78148961267772,-7.928651878370526,115.76774501607879,0.0070455451244507096,-0.07263833453997641,0.025117207798375594,0.1766177694129944,0.062468361530303954,-10.133701944637298
2026-09-11T19:06:12.990,1.9050771199999872,-606.3103637695312,-54567.93273925781,-218271.73095703125,-415.32259918212895,-1.9128909301757815,-2.141082286834717,-1.4666413664817812,-3.280783300111354,0.5174233200478514,0.0,0.06733513623476028,551.6094360351562,24.240649044513702,-0.1831054836511612,-65.91797411441803,-2465.5350610534374,1,1789167972.1553307,38.990442,-76.93976584166667,-10.450000000000003,0,1,10.536516,10.863615999999999,79.26340900000001,1,1,1789167972.9879181,-0.5337417778980807,-0.8406246958643052,-0.08793925042178981,0.027138965796317614,173.10493774578993,-8.0189765569515,115.65811756275448,0.009345714545654036,-0.07910547755031619,0.013270960033389283,1.0147921587371826,0.10483309022903442,-9.411932492733001
2026-09-11T19:06:13.024,1.938496320000013,-606.380615234375,-54574.25537109375,-218297.021484375,-415.3707214355469,-1.96101318359375,-2.115675210952759,-1.44923751950264,-3.2418520031823514,0.5207738958182099,0.0,0.06238938122987747,511.09381103515625,22.46017724275589,-0.1678466945886612,-60.42481005191803,164.37150088858408,1,1789167972.1553307,38.990442,-76.93976584166667,-10.450000000000003,0,1,10.536516,10.863615999999999,79.26340900000001,1,1,1789167973.015918,-0.5339425665560606,-0.8406141340179499,-0.08645874272975523,0.028250648034492953,173.31958589374213,-8.037650100559155,115.62395833558084,-0.011946080598200388,-0.08440482075814656,-0.008095709735375697,0.6430220511054993,-0.5879086771965027,-9.549715927505494
2026-09-11T19:06:13.057,1.9719205760000023,-606.4483032226562,-54580.34729003906,-218321.38916015625,-415.41708770751956,-2.0073794555664066,-2.0392398834228516,-1.3968793201446534,-3.1247300468518517,1.5664731432766428,0.0,0.057043083012104034,467.29693603515625,20.535509884357452,-0.1373291164636612,-49.43848192691803,328.6932736813501,1,1789167972.1553307,38.990442,-76.93976584166667,-10.450000000000003,0,1,10.536516,10.863615999999999,79.26340900000001,1,1,1789167973.047918,-0.533922546777153,-0.8406369853750945,-0.08675370381641946,0.02701791510470918,173.21539506479812,-7.935835710104541,115.62859353947225,-0.006871012199251276,-0.10062434002985507,-0.0024841271243635295,-0.10081236366271971,1.0233239443778992,-9.249926632061005
2026-09-11T19:06:13.090,2.0053383359999657,-606.517822265625,-54586.60400390625,-218346.416015625,-415.46470825195314,-2.055,-2.066474676132202,-1.4155351531505587,-3.1664619567612675,-0.5582610266494715,0.0,0.05359841138124466,439.07818603515625,19.295428097248077,-0.0915527492761612,-32.95898973941803,493.13575139440917,1,1789167972.1553307,38.990442,-76.93976584166667,-10.450000000000003,0,1,10.536516,10.863615999999999,79.26340900000001,1,1,1789167973.087918,-0.5338659441546438,-0.840847704923154,-0.08553695234798547,0.025411032650287706,173.23610917031962,-7.7045076304769475,115.63191276279456,0.020906077379163678,-0.08821731797620298,-0.02174313728842016,-0.9476166051292418,-0.03804980262756348,-9.709956591148377
2026-09-11T19:06:13.124,2.038760095999976,-606.587646484375,-54592.88818359375,-218371.552734375,-415.5125378417969,-2.10282958984375,-2.06768798828125,-1.4163662719726564,-3.1683211166174274,-0.024867595904509206,0.0,0.05182266980409622,424.53131103515625,18.65616112947464,-0.0305175818502903,-10.986329466104507,657.4357626081579,1,1789167972.1553307,38.990442,-76.93976584166667,-10.450000000000003,0,1,10.536516,10.863615999999999,79.26340900000001,1,1,1789167973.1159182,-0.5338138962133051,-0.840748175430073,-0.08665235805132798,0.02601150831302752,173.16299934946983,-7.83094929778608,115.64335808554466,0.002113942790015532,-0.0977274425373949,-0.001610066234964769,0.5480936775398254,0.5182814610481262,-9.299450215377808
2026-09-11T19:06:13.157,2.0721772800000053,-606.65771484375,-54599.1943359375,-218396.77734375,-415.5605346679688,-2.150826416015625,-2.0683555603027344,-1.4168235588073732,-3.169344038133884,-0.013684182207465288,0.0,0.05120087414979935,419.43756103515625,18.432314693927765,-0.0610351599752903,-21.972657591104507,-328.76283426485946,1,1789167973.1525152,38.99044719333333,-76.93976294333333,-10.405000000000001,0,1,28.729600000000005,13.927824000000001,261.113281,1,1,1789167973.147918,-0.5334711830723691,-0.8409341077915918,-0.08754178185299383,0.023974144700681592,172.94874299535562,-7.684806076769602,115.69379016324406,0.014619052347629703,-0.08399344665345151,-0.020687213090963587,-0.9562464572715759,0.838370522327423,-9.174709625320434
2026-09-11T19:06:13.191,2.1055994239999904,-606.7293701171875,-54605.643310546875,-218422.5732421875,-415.60961853027345,-2.1999102783203126,-2.121687889099121,-1.453356204032898,-3.2510652380836085,-1.0930670762935217,0.0,0.05013466626405716,410.70318603515625,18.048479855060577,-0.0457763709127903,-16.479493528604507,164.35702217375544,1,1789167973.1525152,38.99044719333333,-76.93976294333333,-10.405000000000001,0,1,28.729600000000005,13.927824000000001,261.113281,1,1,1789167973.1879182,-0.532958446030513,-0.8411384109103364,-0.08934575110968772,0.021419739835496426,172.6121500688934,-7.5429335801334805,115.7697059253816,-0.02347275857714654,-0.05700542042986319,-0.013803634521097953,-0.450517508430481,0.9559522577667237,-10.399167964515685
2026-09-11T19:06:13.224,2.13902012799997,-606.806640625,-54612.59765625,-218450.390625,-415.662548828125,-2.252840576171875,-2.279606580734253,-1.5615305078029633,-3.4930442640545847,-3.2367452154847243,0.0,0.04885292798280716,400.20318603515625,17.587054073810577,-0.0457763709127903,-16.479493528604507,0.0,1,1789167973.1525152,38.99044719333333,-76.93976294333333,-10.405000000000001,0,1,28.729600000000005,13.927824000000001,261.113281,1,1,1789167973.215918,-0.5327984371555491,-0.8410442845344703,-0.0912632460153837,0.021008492169619374,172.3978102049307,-7.619167159443057,115.79874081413544,-0.01241347977188447,-0.04471900062752391,-0.025346718595012852,0.4350230011749267,0.9188831201553346,-9.194813258152008
2026-09-11T19:06:13.257,2.172445151999966,-606.8842163085938,-54619.57946777344,-218478.31787109375,-415.7156881713868,-2.305979919433594,-2.332123041152954,-1.5975042831897737,-3.5735153077795543,-1.076252791525733,0.0,0.04767800122499466,390.57818603515625,17.164080440998077,-0.0305175818502903,-10.986329466104507,164.34286068128634,1,1789167973.1525152,38.99044719333333,-76.93976294333333,-10.405000000000001,0,1,28.729600000000005,13.927824000000001,261.113281,1,1,1789167973.2479181,-0.5325704326356407,-0.8411039344139067,-0.09200371398411547,0.021171263752126752,172.3330102494335,-7.6783305048938075,115.83290151424866,0.008822464835906136,-0.031110842982649326,-0.0001239183768915974,-0.8700460023498534,1.2024914428329467,-9.548539129486084
2026-09-11T19:06:13.291,2.2058677439999883,-606.9646606445312,-54626.81945800781,-218507.27783203125,-415.77079254150397,-2.3610842895507815,-2.411302328109741,-1.6517420947551729,-3.6948418368718037,-1.6227889077353188,0.0,0.047575004398822784,389.73443603515625,17.127001583576202,-0.015258789993822575,-5.493164397776127,164.35484920872491,1,1789167973.1525152,38.99044719333333,-76.93976294333333,-10.405000000000001,0,1,28.729600000000005,13.927824000000001,261.113281,1,1,1789167973.287918,-0.5321558372728084,-0.8411048914072667,-0.09450806229890893,0.02051713107994931,172.0438744691113,-7.76441126954154,115.89879519642834,-0.0036960837569483917,-0.03521795177844238,-0.017684723178757744,0.8537669630813598,1.2619197428131101,-9.70828946062088
2026-09-11T19:06:13.324,2.239285759999973,-607.046630859375,-54634.19677734375,-218536.787109375,-415.8269421386719,-2.4172338867187504,-2.4382150173187256,-1.6701772868633271,-3.7360801871495286,-0.5516542965376142,0.0,0.0476379469037056,390.25006103515625,17.149660885334015,0.0,0.0,164.3773346023491,1,1789167973.1525152,38.99044719333333,-76.93976294333333,-10.405000000000001,0,1,28.729600000000005,13.927824000000001,261.113281,1,1,1789167973.3159182,-0.5318277351846934,-0.8411919859756242,-0.09595328926940955,0.01866196927137837,171.7867217072005,-7.669453640319505,115.94677130150966,-0.018050544189975752,-0.0444123462779485,-0.013446191090289515,-1.1031500766944886,1.5524907871055604,-9.082330980796813
2026-09-11T19:06:13.357,2.272711328000014,-607.133544921875,-54642.01904296875,-218568.076171875,-415.8864782714844,-2.47677001953125,-2.595414161682129,-1.7778587007522584,-3.9769566498574096,-3.22152831894432,0.0,0.04528427869081497,370.96881103515625,16.30234032869339,-0.1068115308880806,-38.452151119709015,-1150.381382289803,1,1789167973.1525152,38.99044719333333,-76.93976294333333,-10.405000000000001,0,1,28.729600000000005,13.927824000000001,261.113281,1,1,1789167973.347918,-0.5313591261417893,-0.8415535419504193,-0.09572261399888617,0.016801674492689562,171.69270788836678,-7.469892019373021,116.00639971991231,0.002286032254262173,-0.028798630789607236,-0.01931678056229764,-1.4154918843460083,1.3864641998672487,-9.913248449001312
2026-09-11T19:06:13.391,2.3061311359999763,-607.2216186523438,-54649.94567871094,-218599.78271484375,-415.9468087768555,-2.537100524902344,-2.6217703819274902,-1.795912711620331,-4.017342321985346,-0.5402188686449968,0.0,0.0398712232708931,326.62506103515625,14.353640377521515,-0.1831054985523224,-65.91797947883606,-821.8427933265798,1,1789167973.1525152,38.99044719333333,-76.93976294333333,-10.405000000000001,0,1,28.729600000000005,13.927824000000001,261.113281,1,1,1789167973.387918,-0.5307614255391234,-0.8419068143266524,-0.09598051921421978,0.016521654922983575,171.64519662574878,-7.45254007823763,116.08815093645276,-0.020328547929678756,-0.009014451053625513,-0.03633304263754156,0.05364237638473511,0.7894353380203247,-10.638450228462219
2026-09-11T19:06:13.425,2.3395490880000125,-607.312744140625,-54658.14697265625,-218632.587890625,-416.00922973632817,-2.5995214843750003,-2.7003352642059326,-1.849729655981064,-4.137727397953342,-1.6104201825616,0.0,0.033483512699604034,274.29693603515625,12.054064571857452,-0.1983642876148224,-71.41114354133606,-164.37763937461085,1,1789167973.1525152,38.99044719333333,-76.93976294333333,-10.405000000000001,0,1,28.729600000000005,13.927824000000001,261.113281,1,1,1789167973.415918,-0.5301601729945256,-0.8420473997646977,-0.09769361443808797,0.01850203280584179,171.59085572679743,-7.743915462053867,116.1804311174062,0.021524098467294868,0.009613273519984766,-0.05271348126628394,0.6402761890602112,2.1539326415252686,-8.931602767810821
2026-09-11T19:06:13.458,2.3729719039999964,-607.4053344726562,-54666.48010253906,-218665.92041015625,-416.07265411376954,-2.6629458618164064,-2.7777609825134277,-1.902766273021698,-4.256366931419327,-1.586838674534773,0.0,0.02630043774843216,215.45318603515625,9.468157589435577,-0.1525879204273224,-54.93165135383606,493.0611528217118,1,1789167973.1525152,38.99044719333333,-76.93976294333333,-10.405000000000001,0,1,28.729600000000005,13.927824000000001,261.113281,1,1,1789167973.4479182,-0.5292013438461163,-0.8426501988832447,-0.09765359430553634,0.01871778599895389,171.59900579715213,-7.7529483720549806,116.31097256711472,0.038005242593877324,0.006520550085450815,-0.05797774335614924,1.8358049102783203,0.47003274225234987,-9.489208896007538
2026-09-11T19:06:13.492,2.406389536000006,-607.5018920898438,-54675.17028808594,-218700.68115234375,-416.138796081543,-2.7290878295898438,-2.882633686065674,-1.9746040749549867,-4.417063517705316,-2.1496975588595792,0.0,0.019971854984760284,163.60943603515625,7.189867794513702,-0.1831054985523224,-65.91797947883606,-328.7584268387663,1,1789167973.1525152,38.99044719333333,-76.93976294333333,-10.405000000000001,0,1,28.729600000000005,13.927824000000001,261.113281,1,1,1789167973.4879181,-0.5273562696237749,-0.8434449317246561,-0.10098387054849174,0.017270492915148674,171.16714931934214,-7.795766892450442,116.57240948185915,-0.005819102259074294,0.030347261434901802,-0.09478883167581204,0.2690944804382324,2.645736147136688,-10.043088497142792
2026-09-11T19:06:13.525,2.439806783999984,-607.6019287109375,-54684.173583984375,-218736.6943359375,-416.20732116699224,-2.7976129150390627,-2.987051010131836,-2.0461299419403076,-4.577062325385436,-2.140387711919551,0.0,0.012100227177143097,99.12506103515625,4.356081783771515,-0.3662109673023224,-131.83594822883606,-1972.5732277548277,1,1789167973.1525152,38.99044719333333,-76.93976294333333,-10.405000000000001,0,1,28.729600000000005,13.927824000000001,261.113281,1,1,1789167973.515918,-0.5257055542188763,-0.8441968917850303,-0.10312066233015885,0.01820459185225814,170.99675444415186,-7.999168490319496,116.80738886098851,0.030103962537173796,0.08132379102960098,-0.11058388687343551,-0.14680555292129518,1.5341523513031006,-10.56588101726532
2026-09-11T19:06:13.558,2.4732299839999996,-607.7057495117188,-54693.51745605469,-218774.06982421875,-416.2784384155274,-2.868730163574219,-3.0921783447265625,-2.1181421661376953,-4.738149083164131,-2.1545580374516513,0.0,-0.00095367431640625,-7.8125,-0.34332275390625,-0.2593994438648224,-93.38379979133606,1150.4628054010989,1,1789167973.1525152,38.99044719333333,-76.93976294333333,-10.405000000000001,0,1,28.729600000000005,13.927824000000001,261.113281,1,1,1789167973.547918,-0.5237045214107922,-0.8452622878516565,-0.10457413964964299,0.018151812752821656,170.8310027946366,-8.060460295525257,117.08464375669979,0.011099770443908339,0.09631686743593308,-0.11802125841495896,-0.7509932693862914,1.7858890609550475,-10.861061187133789
2026-09-11T19:06:13.592,2.5066514239999833,-607.8131713867188,-54703.18542480469,-218812.74169921875,-416.35202239990235,-2.942314147949219,-3.1975913047790527,-2.1903500437736514,-4.899673505220224,-2.1605256277404936,0.0,-0.0018634796142578125,-15.265625,-0.6708526611328125,0.0,0.0,2794.1285531497624,1,1789167973.1525152,38.99044719333333,-76.93976294333333,-10.405000000000001,0,1,28.729600000000005,13.927824000000001,261.113281,1,1,1789167973.587918,-0.5213582479989787,-0.8465934666887015,-0.10471908921327631,0.02233812341678915,171.04210783586123,-8.453977391903136,117.41133957836641,0.011268369249650991,0.09946963019673563,-0.15113661204352377,0.538679293384552,1.144141874370575,-10.610795475006105
2026-09-11T19:06:13.625,2.5400655679999886,-607.9220581054688,-54712.98522949219,-218851.94091796875,-416.4266098022461,-3.016901550292969,-3.2498531341552734,-2.2261493968963624,-4.979754377452487,-1.0713832179182954,0.0,-0.0018634796142578125,-15.265625,-0.6708526611328125,0.0,0.0,0.0,1,1789167973.1525152,38.99044719333333,-76.93976294333333,-10.405000000000001,0,1,28.729600000000005,13.927824000000001,261.113281,1,1,1789167973.6159182,-0.5196890686461955,-0.8473529678219128,-0.10620445831833217,0.02523554806926074,171.04888818148274,-8.80971664205444,117.64859622528638,0.006077410988369455,0.10031279875837408,-0.12984045357653937,0.9073112729644776,1.661933002910614,-9.816554878406524
2026-09-11T19:06:13.658,2.573482495999997,-608.03515625,-54723.1640625,-218892.65625,-416.50408203125005,-3.094373779296875,-3.3547210693359375,-2.2979839324951175,-5.140443657156216,-2.149645101989545,0.0,-0.0019855499267578125,-16.265625,-0.7147979736328125,0.0,0.0,0.0,1,1789167973.1525152,38.99044719333333,-76.93976294333333,-10.405000000000001,0,1,28.729600000000005,13.927824000000001,261.113281,1,1,1789167973.647918,-0.5174331668341721,-0.8486405168488458,-0.10707314317267175,0.024648185199079513,170.90464302410817,-8.780024243622723,117.95671416550798,-0.042200490516896096,0.11685415674415034,-0.1454021582531712,-1.2537802231788635,1.5062033983421326,-7.332726525440216
2026-09-11T19:06:13.692,2.6068964479999863,-608.1509399414062,-54733.58459472656,-218934.33837890625,-416.5833938598633,-3.1736856079101563,-3.4335877895355225,-2.352007635831833,-5.261291239781295,-1.6168007704306444,0.0,-0.0019855499267578125,-16.265625,-0.7147979736328125,0.0,0.0,0.0,1,1789167973.1525152,38.99044719333333,-76.93976294333333,-10.405000000000001,0,1,28.729600000000005,13.927824000000001,261.113281,1,1,1789167973.6879182,-0.5144630078648774,-0.8502724714463794,-0.10847337877163936,0.024455345774563278,170.72320906065872,-8.812329850458855,118.36374264170381,-0.016527220818835103,0.1223501985586805,-0.13717397802756914,-0.9757616910934449,1.913865845565796,-9.156371189517975
2026-09-11T19:06:13.725,2.640318079999986,-608.2691650390625,-54744.224853515625,-218976.8994140625,-416.66437805175786,-3.2546697998046876,-3.5131430625915527,-2.4065029978752137,-5.383193892884778,-1.6305416217670476,0.0,-0.0019855499267578125,-16.265625,-0.7147979736328125,0.0,0.0,0.0,1,1789167973.1525152,38.99044719333333,-76.93976294333333,-10.405000000000001,0,1,28.729600000000005,13.927824000000001,261.113281,1,1,1789167973.7159104,-0.5125219481264784,-0.8515947770896538,-0.10733469454912074,0.024225021533719363,170.80360670374398,-8.701261089886794,118.61891068971042,0.004956909608589095,0.11967583054584957,-0.1504534901742932,-1.0701997321510315,0.14150996183395387,-11.873401683330536
2026-09-11T19:06:13.758,2.673737535999976,-608.3876342773438,-54754.88708496094,-219019.54833984375,-416.7455294799805,-3.335821228027344,-3.5408339500427246,-2.4254712557792666,-5.425624677387401,-0.5675812886977726,0.0,0.0011215211125090718,9.187500953674316,0.40374760050326586,0.1068115383386612,38.45215380191803,1150.5918528993843,1,1789167973.1525152,38.99044719333333,-76.93976294333333,-10.405000000000001,0,1,28.729600000000005,13.927824000000001,261.113281,1,1,1789167973.7479105,-0.5109108173062338,-0.8526910593762423,-0.10612459473886826,0.025013284686511393,170.9539036957559,-8.690540319498755,118.8308507383691,0.004611159883769018,0.06893579306479564,-0.11417909059961863,-2.620238856716156,0.24281265800476076,-9.925016429195404
2026-09-11T19:06:13.792,2.7071573119999925,-608.5064697265625,-54765.582275390625,-219062.3291015625,-416.8269317626953,-3.4172235107421876,-3.5678470134735107,-2.443975204229355,-5.4670168312217085,-0.5536825994907764,0.0,0.002931595081463456,24.015626907348633,1.0553742293268442,0.1373291164636612,49.43848192691803,328.7373357916749,1,1789167973.1525152,38.99044719333333,-76.93976294333333,-10.405000000000001,0,1,28.729600000000005,13.927824000000001,261.113281,1,1,1789167973.7879105,-0.5093823962499462,-0.8537769376372552,-0.10396270509542474,0.028040526005324126,171.32968312950862,-8.846873555011314,119.02949481145038,0.034672012788418555,0.04722703876263976,-0.09845227777574814,-0.011473780689239502,-0.23437893886566163,-4.373079506626129
2026-09-11T19:06:13.826,2.7405729600000086,-608.6239624023438,-54776.15661621094,-219104.62646484375,-416.9074142456055,-3.497705993652344,-3.5698282718658447,-2.445332366228104,-5.4700527161509065,-0.040614564731710066,0.0,0.005392075050622225,44.171878814697266,1.941147018224001,0.015258789993822575,5.493164397776127,-1315.1119358547462,1,1789167973.1525152,38.99044719333333,-76.93976294333333,-10.405000000000001,0,1,28.729600000000005,13.927824000000001,261.113281,1,1,1789167973.8159106,-0.5081577744650185,-0.8544706017086064,-0.10373924061800499,0.029897107259582303,171.4465123721469,-9.005205661099664,119.19450538921141,-0.07041862479729002,0.034231491685215186,-0.08967466790161825,-0.8193456210136414,0.46356035314559935,-16.983352883110047
2026-09-11T19:06:13.859,2.773990175999984,-608.7399291992188,-54786.59362792969,-219146.37451171875,-416.98685150146486,-3.5771432495117192,-3.5192458629608154,-2.4106834161281587,-5.3925452221907575,1.036859267389923,0.0,0.005475998390465975,44.859378814697266,1.971359420567751,0.0457763709127903,16.479493528604507,328.7625495444178,1,1789167973.1525152,38.99044719333333,-76.93976294333333,-10.405000000000001,0,1,28.729600000000005,13.927824000000001,261.113281,1,1,1789167973.8479104,-0.5069234135112763,-0.8554202176573457,-0.1017390629903081,0.030562511660345706,171.67233916353126,-8.94204929339144,119.35020330140725,0.01110867162309351,0.013588959023102651,-0.08678021387011085,0.28184312564849856,0.6595952898788452,-14.402536760044098
2026-09-11T19:06:13.892,2.807408991999978,-608.8544921875,-54796.904296875,-219187.6171875,-417.0653271484375,-3.655618896484375,-3.415867328643799,-2.3398691201210022,-5.234138153456065,2.1189947605315904,0.0,0.005445480812340975,44.609378814697266,1.960373092442751,-0.015258789993822575,-5.493164397776127,-657.4936085822011,1,1789167973.1525152,38.99044719333333,-76.93976294333333,-10.405000000000001,0,1,28.729600000000005,13.927824000000001,261.113281,1,1,1789167973.8879104,-0.5055165875606389,-0.8567046508338463,-0.0973875283592301,0.03202796060920554,172.17818119293452,-8.820477993207398,119.51694888485038,0.044354575879707495,-0.0688246155914436,-0.10163261673873221,0.826308342628479,-2.2388582319259642,-14.84687607887268
2026-09-11T19:06:13.926,2.840824287999965,-608.9615478515625,-54806.539306640625,-219226.1572265625,-417.13866027832034,-3.7289520263671876,-3.2353737354278564,-2.216231008768082,-4.957567575089655,3.7000453730222436,0.0,0.00472450302913785,38.703128814697266,1.700821090489626,-0.030517585575580597,-10.986330807209015,-164.39077509398794,1,1789167973.1525152,38.99044719333333,-76.93976294333333,-10.405000000000001,0,1,28.729600000000005,13.927824000000001,261.113281,1,1,1789167973.9159105,-0.5041621188334765,-0.8579118147046806,-0.09380782804359798,0.03174850423569518,172.50718857866315,-8.572661268590746,119.68012118587347,0.04383342056506199,-0.16829075512967523,-0.11881311429658878,1.823938863582611,0.19103354515075685,-3.943646296043396
2026-09-11T19:06:13.959,2.8742448959999933,-609.0718994140625,-54816.470947265625,-219265.8837890625,-417.2142510986329,-3.804542846679688,-3.2877588272094727,-2.252114796638489,-5.037837322473351,-1.0737024254728278,0.0,0.00248146103695035,20.328128814697266,0.8933259733021259,-0.1678466945886612,-60.42481005191803,-1479.2812639634437,1,1789167973.1525152,38.99044719333333,-76.93976294333333,-10.405000000000001,0,1,28.729600000000005,13.927824000000001,261.113281,1,1,1789167973.9479105,-0.5029789994953281,-0.8586130816223284,-0.09466237578443037,0.028891811028988162,172.24627012080774,-8.328022621521008,119.8414731972837,-0.02728246326839976,-0.17554050377660926,-0.12716608556370845,0.37824249673843385,-0.20142859432220458,-14.512665441360474
2026-09-11T19:06:13.993,2.907664959999977,-609.1782836914062,-54826.04553222656,-219304.18212890625,-417.2871243286133,-3.8774160766601566,-3.1832942962646484,-2.1805565929412842,-4.877766179628852,2.1411749450042983,0.0,-0.0020389556884765625,-16.703125,-0.7340240478515625,-0.0915527418255806,-32.958987057209015,821.8363374385681,1,1789167973.1525152,38.99044719333333,-76.93976294333333,-10.405000000000001,0,1,28.729600000000005,13.927824000000001,261.113281,1,1,1789167973.9879105,-0.5010545833699829,-0.8601408101436934,-0.09131413129351823,0.027637305139857484,172.4922816302453,-7.992916698264596,120.08142851707532,0.024280147889119117,-0.12582357830307442,-0.15023392775439232,-2.772732266731262,0.12591738807678224,-9.188537002048491
2026-09-11T19:06:14.026,2.9410847359999934,-609.2804565429688,-54835.24108886719,-219340.96435546875,-417.3571127319336,-3.947404479980469,-3.0529134273529053,-2.09124569773674,-4.67798339686994,2.6723965835228762,0.0,-0.0022296905517578125,-18.265625,-0.8026885986328125,0.0,0.0,986.2120876331634,1,1789167973.1525152,38.99044719333333,-76.93976294333333,-10.405000000000001,0,1,28.729600000000005,13.927824000000001,261.113281,1,1,1789167974.0159104,-0.49979490608501925,-0.8612282867854708,-0.08792606361792642,0.02756623348747187,172.81664827383815,-7.780110426209963,120.2335082432311,0.0434908124328955,-0.13947641637680006,-0.13043473818684342,1.0660809390830994,-1.3482182642364502,-11.853494183502198
2026-09-11T19:06:14.059,2.97450358399999,-609.380126953125,-54844.21142578125,-219376.845703125,-417.4253869628907,-4.0156787109375,-3.000778913497925,-2.0555335557460785,-4.598097610384029,1.0686227721154617,0.0,-0.0045528411865234375,-37.296875,-1.6390228271484375,-0.1831054836511612,-65.91797411441803,-1972.4789470428395,1,1789167973.1525152,38.99044719333333,-76.93976294333333,-10.405000000000001,0,1,28.729600000000005,13.927824000000001,261.113281,1,1,1789167974.0479105,-0.49783541026132666,-0.8626833589407203,-0.0846667058457604,0.027728602884390476,173.13556071136696,-7.593398120492992,120.47950182442781,0.04191844530977381,-0.16148658904077534,-0.1718348207087749,-0.3320531744766235,0.3643170535087586,-9.730648622989655
2026-09-11T19:06:14.093,3.0079195519999757,-609.4795532226562,-54853.15979003906,-219412.63916015625,-417.49349395751955,-4.083785705566407,-2.975423812866211,-2.0381653118133545,-4.559245955201665,0.5197588150889869,0.0,-0.0081634521484375,-66.875,-2.9388427734375,-0.1831054836511612,-65.91797411441803,0.0,1,1789167973.1525152,38.99044719333333,-76.93976294333333,-10.405000000000001,0,1,28.729600000000005,13.927824000000001,261.113281,1,1,1789167974.0879104,-0.49521411594680204,-0.8642129093596855,-0.08414147300097735,0.02862235462572756,173.21578938334667,-7.631869254057695,120.82560304766886,0.009910677624524602,-0.10934295777526756,-0.16271652256465574,0.48219298845291136,-0.041482130184173585,-9.527650964641571
2026-09-11T19:06:14.126,3.0413358719999906,-609.579833984375,-54862.18505859375,-219448.740234375,-417.5621862792969,-4.152478027343751,-3.0029449462890625,-2.0570172882080078,-4.601416625375817,-0.5641547721186816,0.0,-0.014070510864257812,-115.265625,-5.0653839111328125,-0.1678466945886612,-60.42481005191803,164.38566731757308,1,1789167973.1525152,38.99044719333333,-76.93976294333333,-10.405000000000001,0,1,28.729600000000005,13.927824000000001,261.113281,1,1,1789167974.1159105,-0.4928930297685799,-0.8654092316706905,-0.08558856381967361,0.028247489941245207,173.0285432952108,-7.658206348771195,121.13990223542142,-0.005067214417315137,-0.07246729227328096,-0.1881827962134302,1.4405969087600707,0.8904438346862793,-10.500862926692962
2026-09-11T19:06:14.160,3.074746112000014,-609.6809692382812,-54871.28723144531,-219485.14892578125,-417.6314639282227,-4.221755676269532,-3.0294864177703857,-2.0751981961727144,-4.642086158224571,-0.5441717259347406,0.0,-0.017793655395507812,-145.765625,-6.4057159423828125,-0.061035171151161194,-21.97266161441803,1150.909075704728,1,1789167973.1525152,38.99044719333333,-76.93976294333333,-10.405000000000001,0,1,28.729600000000005,13.927824000000001,261.113281,1,1,1789167974.1479106,-0.4900854990898068,-0.8669553240375607,-0.08643486798324702,0.027086588960992662,172.85364746655034,-7.567069744101652,121.51469173195127,0.01130187957128928,-0.04601770012393289,-0.18503300051235605,0.20211505983352662,0.952617996711731,-10.658063528785705
2026-09-11T19:06:14.193,3.10816252799998,-609.7840576171875,-54880.565185546875,-219522.2607421875,-417.70207946777344,-4.292371215820313,-3.0562024116516113,-2.093498651981354,-4.683023111984054,-0.547648670900505,0.0,-0.018953323364257812,-155.265625,-6.8231964111328125,0.0,0.0,657.5409407891151,1,1789167974.1609905,38.99045669666667,-76.93976005666667,-10.255000000000003,0,1,9.114361,11.0224,59.166864000000004,1,1,1789167974.1879106,-0.48666446085890586,-0.8687885951350738,-0.08745730149180654,0.026745091435755465,172.7016044745243,-7.561850857573633,121.97097392339045,-0.04667795817996235,-0.01977597668849735,-0.19702760126376187,3.5439272354507443,0.7744311632728577,-8.485988584461213
2026-09-11T19:06:14.227,3.1415792319999696,-609.891357421875,-54890.22216796875,-219560.888671875,-417.7755798339844,-4.36587158203125,-3.186674118041992,-2.182871770858765,-4.8829450851350265,-2.6745043101030594,0.0,-0.019563674926757812,-160.265625,-7.0429229736328125,0.0,0.0,0.0,1,1789167974.1609905,38.99045669666667,-76.93976005666667,-10.255000000000003,0,1,9.114361,11.0224,59.166864000000004,1,1,1789167974.2159104,-0.4840040969120704,-0.8700670711532726,-0.08968874574755843,0.02606251625087663,172.41483300425313,-7.59510550531158,122.33126885010896,-0.06486673244669605,-0.015129910219688444,-0.2092696897031005,0.6174266941833496,0.43296360464096073,-9.078408320732116
2026-09-11T19:06:14.260,3.174995231999958,-609.9996948242188,-54899.97253417969,-219599.89013671875,-417.8497909545899,-4.440082702636719,-3.2652969360351562,-2.2367284011840822,-5.003418936077487,-1.611701889075179,0.0,-0.019685745239257812,-161.265625,-7.0868682861328125,0.0,0.0,0.0,1,1789167974.1609905,38.99045669666667,-76.93976005666667,-10.255000000000003,0,1,9.114361,11.0224,59.166864000000004,1,1,1789167974.2479105,-0.48077913543262335,-0.8717175519521057,-0.09121042936351334,0.02530988199519276,172.19116430716653,-7.575369989490009,122.76159159584998,-0.02427054857823315,0.006271142535340826,-0.2045328661131879,-0.1936813406944275,0.9879219372940063,-10.652375671691896
2026-09-11T19:06:14.294,3.208407232000013,-610.112060546875,-54910.08544921875,-219640.341796875,-417.9267614746094,-4.5170532226562505,-3.3959431648254395,-2.326221067905426,-5.20360833013919,-2.67845883877636,0.0,-0.019464492797851562,-159.453125,-7.0072174072265625,0.015258789993822575,5.493164397776127,164.4069315744953,1,1789167974.1609905,38.99045669666667,-76.93976005666667,-10.255000000000003,0,1,9.114361,11.0224,59.166864000000004,1,1,1789167974.2879105,-0.47701551556091515,-0.873353474658765,-0.09465135365968452,0.02740488033189055,171.92142923398342,-7.94188621045559,123.27601015297418,-0.046628914427981304,0.0070762629192858105,-0.20309576200709575,1.0622563455200196,2.228365116252899,-9.914327180519104
2026-09-11T19:06:14.327,3.2418260160000045,-610.2269287109375,-54920.423583984375,-219681.6943359375,-418.0054461669922,-4.595737915039063,-3.4229772090911865,-2.3447393882274628,-5.245032632935442,-0.5541290886598842,0.0,-0.018751144409179688,-153.609375,-6.7504119873046875,0.0457763709127903,16.479493528604507,328.74712409737094,1,1789167974.1609905,38.99045669666667,-76.93976005666667,-10.255000000000003,0,1,9.114361,11.0224,59.166864000000004,1,1,1789167974.3159106,-0.474264407663136,-0.8746014053219825,-0.0967356170562212,0.028069090215045927,171.71936579784085,-8.097327415896608,123.64840294108261,-0.00870744763819971,0.0348416587917124,-0.21139846779175797,-2.8246094460868836,3.2377636174011233,-8.852659234008788
2026-09-11T19:06:14.361,3.27524060799999,-610.3469848632812,-54931.22863769531,-219724.91455078125,-418.0876846313477,-4.677976379394532,-3.5541481971740723,-2.43459151506424,-5.446026116374904,-2.6890086473842336,0.0,-0.016054153442382812,-131.515625,-5.7794952392578125,0.030517593026161194,10.98633348941803,-164.39404794135615,1,1789167974.1609905,38.99045669666667,-76.93976005666667,-10.255000000000003,0,1,9.114361,11.0224,59.166864000000004,1,1,1789167974.3559105,-0.4704044548141866,-0.8764530382235877,-0.09864334895881,0.028621851543893365,171.5179113111738,-8.220088976339385,124.1644683206956,-0.006391570253728434,0.07366057388286948,-0.2402889029000201,1.1247247070503235,-2.98396751121521,-8.556008066616059
2026-09-11T19:06:14.394,3.308660735999979,-610.47021484375,-54942.3193359375,-219769.27734375,-418.1720971679688,-4.762388916015626,-3.633295774459839,-2.4888076055049897,-5.5673040566951215,-1.6222586113604331,0.0,-0.0145721435546875,-119.375,-5.2459716796875,-0.0305175818502903,-10.986329466104507,-657.4679473259312,1,1789167974.1609905,38.99045669666667,-76.93976005666667,-10.255000000000003,0,1,9.114361,11.0224,59.166864000000004,1,1,1789167974.3879104,-0.46726515604236246,-0.8779566921467578,-0.10023863964492274,0.02841717413053463,171.31405839433558,-8.254719713940192,124.58247711747146,0.003349112301651919,-0.002269975225143825,-0.17181248049434938,-0.23692866790771486,0.9553638587570191,-4.535085367298127
2026-09-11T19:06:14.427,3.3420790399999873,-610.594970703125,-54953.54736328125,-219814.189453125,-418.25755493164064,-4.847846679687501,-3.712655544281006,-2.5431690478324893,-5.688907139925927,-1.62669662492405,0.0,-0.0140838623046875,-115.375,-5.0701904296875,0.1220703199505806,43.945315182209015,1643.7591999970925,1,1789167974.1609905,38.99045669666667,-76.93976005666667,-10.255000000000003,0,1,9.114361,11.0224,59.166864000000004,1,1,1789167974.4159105,-0.46459030354572,-0.8791800402648757,-0.10152209180159182,0.02985919502224369,171.23281050206785,-8.44358778234984,124.94127129812289,-0.07906603310922111,0.0395507316465183,-0.1937856521781824,2.4695106437301635,0.08159132934570312,-11.486333201446534
2026-09-11T19:06:14.461,3.375491839999995,-610.7233276367188,-54965.09948730469,-219860.39794921875,-418.3454794311524,-4.935771179199219,-3.7919998168945312,-2.597519874572754,-5.810486476764386,-1.6266468760550423,0.0,-0.013500213623046875,-110.59375,-4.860076904296875,0.0,0.0,-1315.2239615416477,1,1789167974.1609905,38.99045669666667,-76.93976005666667,-10.255000000000003,0,1,9.114361,11.0224,59.166864000000004,1,1,1789167974.4559104,-0.4604872934712213,-0.881090849590531,-0.10323952669284243,0.03117639247288899,171.085065200505,-8.628053641404758,125.48774336370072,0.007240149336048077,0.1596798241991108,-0.23664866967913556,-5.080335116291046,1.6379067100143432,-7.754314415893554
2026-09-11T19:06:14.494,3.408950463999986,-610.8541870117188,-54976.87683105469,-219907.50732421875,-418.4351181030274,-5.025409851074219,-3.871835947036743,-2.6522076237201695,-5.932819487563007,-1.6344888883485065,0.0,-0.013874053955078125,-113.65625,-4.994659423828125,0.015258791856467724,5.493165068328381,164.1778534685077,1,1789167974.1609905,38.99045669666667,-76.93976005666667,-10.255000000000003,0,1,9.114361,11.0224,59.166864000000004,1,1,1789167974.4879105,-0.45736564719343487,-0.882341823424647,-0.10544107197491982,0.034230859524404696,170.9847233110258,-9.024505477235977,125.91260381158197,-0.035530365714549365,0.07321115160048093,-0.21042405047036955,0.7083343411827088,1.6559509463119508,-9.36162437740326
2026-09-11T19:06:14.528,3.442371871999967,-610.9872436523438,-54988.85192871094,-219955.40771484375,-418.5262619018555,-5.116553649902344,-3.9764444828033447,-2.7238644707202915,-6.093111289191769,-2.144040340854658,0.0,-0.014562606811523438,-119.296875,-5.2425384521484375,-0.030517585575580597,-10.986330807209015,-493.0820351897423,1,1789167974.1609905,38.99045669666667,-76.93976005666667,-10.255000000000003,0,1,9.114361,11.0224,59.166864000000004,1,1,1789167974.5159104,-0.4544421106060802,-0.8836962064207801,-0.10660060161057376,0.03463660782578065,170.85559413981235,-9.096867497460135,126.2998734473837,-0.10546797776998974,0.10577463211956514,-0.2234232627392233,0.0703136816596985,0.42668734853744505,-6.939381787452698
2026-09-11T19:06:14.561,3.4757935039999666,-611.1220092773438,-55000.98083496094,-220003.92333984375,-418.6185763549805,-5.208868103027344,-4.0018463134765625,-2.7412647247314457,-6.132034548880285,-0.5206284962731444,0.0,-0.013523101806640625,-110.78125,-4.868316650390625,0.0457763709127903,16.479493528604507,821.7978205197717,1,1789167974.1609905,38.99045669666667,-76.93976005666667,-10.255000000000003,0,1,9.114361,11.0224,59.166864000000004,1,1,1789167974.5559106,-0.45034440356475947,-0.8856611986358331,-0.1073642549115382,0.03559601348649385,170.7830680954329,-9.192606107401136,126.83736888079036,-0.03871384627018702,0.18500647150772573,-0.220316227604823,-1.7877523244857787,-0.4620893556213379,-4.802316584205627
2026-09-11T19:06:14.594,3.5092113919999974,-611.2587890625,-55013.291015625,-220053.1640625,-418.71227050781255,-5.3025622558593755,-4.054612159729004,-2.777409329414368,-6.212887726857473,-1.081594524551903,0.0,-0.010496139526367188,-85.984375,-3.7786102294921875,0.1678466945886612,60.42481005191803,1315.0237538432389,1,1789167974.1609905,38.99045669666667,-76.93976005666667,-10.255000000000003,0,1,9.114361,11.0224,59.166864000000004,1,1,1789167974.5879104,-0.44711625369825986,-0.887188079556908,-0.10762466361849742,0.0374339278190782,170.815284318573,-9.361520054341343,127.26014490637237,-0.027504818215103838,0.15049939233362064,-0.20196653398105543,0.8237586135864259,-0.2771359335708618,-4.869197938308716
2026-09-11T19:06:14.628,3.5426294399999847,-611.3963623046875,-55025.672607421875,-220102.6904296875,-418.80650817871094,-5.396799926757813,-4.107181072235107,-2.813419034481049,-6.293439142987307,-1.0775526166787097,0.0,-0.009124755859375,-74.75,-3.284912109375,0.015258795581758022,5.493166409432888,-1643.7717619684452,1,1789167974.1609905,38.99045669666667,-76.93976005666667,-10.255000000000003,0,1,9.114361,11.0224,59.166864000000004,1,1,1789167974.6159105,-0.4443703789160107,-0.888199271726246,-0.1103097362286212,0.03832469360842076,170.55072531540338,-9.562111309530936,127.63407210989419,-0.1338599468438823,0.17983523546699173,-0.18985080737956117,-0.25977816278457644,1.8107979523658753,-13.110804800739288
2026-09-11T19:06:14.662,3.576056383999969,-611.5345458984375,-55038.109130859375,-220152.4365234375,-418.90116394042974,-5.491455688476563,-4.108151435852051,-2.814083733558655,-6.294926032477299,-0.019885128524053365,0.0,-0.005771636962890625,-47.28125,-2.077789306640625,0.1525879055261612,54.93164598941803,1479.0008796499098,1,1789167974.1609905,38.99045669666667,-76.93976005666667,-10.255000000000003,0,1,9.114361,11.0224,59.166864000000004,1,1,1789167974.6559105,-0.4412045907510489,-0.8897117873071088,-0.10989735152311164,0.04091474984886586,170.68864662847625,-9.7749758584709,128.04469466143203,-0.018383203945405876,0.13017939651727667,-0.16496852089850403,2.6972210604858398,-0.3067520170593262,-9.235510856323243
2026-09-11T19:06:14.695,3.6094714559999943,-611.6736450195312,-55050.62805175781,-220202.51220703125,-418.9964468383789,-5.586738586425781,-4.135435581207275,-2.832773373126984,-6.33673356551311,-0.5593176506791612,0.0,-0.0041866302490234375,-34.296875,-1.5071868896484375,0.0762939527630806,27.465822994709015,-821.9591145782437,1,1789167974.1609905,38.99045669666667,-76.93976005666667,-10.255000000000003,0,1,9.114361,11.0224,59.166864000000004,1,1,1789167974.6879106,-0.43909102584483656,-0.8907789870428368,-0.1088225373068176,0.0432379768209987,170.8930291635573,-9.938846342836836,128.31344529476655,-0.06037058976063346,0.0530313057230721,-0.1433458113284715,1.3153659861946105,0.11503200639724732,-11.236067489318847
2026-09-11T19:06:14.728,3.6428949119999743,-611.8120727539062,-55063.08654785156,-220252.34619140625,-419.0912698364258,-5.681561584472656,-4.135700702667236,-2.832954981327057,-6.3371398114867885,-0.0054335554071089105,0.0,-0.002994537353515625,-24.53125,-1.078033447265625,0.015258791856467724,5.493165068328381,-657.402332254145,1,1789167974.1609905,38.99045669666667,-76.93976005666667,-10.255000000000003,0,1,9.114361,11.0224,59.166864000000004,1,1,1789167974.7159104,-0.4372367100470126,-0.8918074859018855,-0.1079802514739206,0.04293870943858864,170.94604008875876,-9.846663195337122,128.54581018682018,0.00172979582165158,-0.0026675612287481334,-0.14692949588159143,0.8447448449325561,1.051469030342102,-10.745833047733306
2026-09-11T19:06:14.762,3.6763179839999793,-611.9505004882812,-55075.54504394531,-220302.18017578125,-419.1860928344727,-5.7763845825195315,-4.1364426612854,-2.8334632229804995,-6.338276715686508,-0.015206311778955145,0.0,-0.0017910003662109375,-14.671875,-0.6447601318359375,0.1220703199505806,43.945315182209015,1150.467261473596,1,1789167974.1609905,38.99045669666667,-76.93976005666667,-10.255000000000003,0,1,9.114361,11.0224,59.166864000000004,1,1,1789167974.7599106,-0.43455163781986655,-0.8935310802449682,-0.1045843260853032,0.0427691646120758,171.2647483396841,-9.63236794661245,128.86726413149955,-0.02700198885760427,-0.06673126768660159,-0.1522078951383979,1.6269232618331908,-0.17720616842269896,-9.36809676651001
2026-09-11T19:06:14.795,3.7097369599999865,-612.0870971679688,-55087.83874511719,-220351.35498046875,-419.2796615600586,-5.869953308105469,-4.085262775421143,-2.798405001163483,-6.25985370696913,1.0490513478632322,0.0,-0.0013256072998046875,-10.859375,-0.4772186279296875,0.0457763709127903,16.479493528604507,-821.8630533023688,1,1789167974.1609905,38.99045669666667,-76.93976005666667,-10.255000000000003,0,1,9.114361,11.0224,59.166864000000004,1,1,1789167974.7879105,-0.4328958285496878,-0.8945667073298309,-0.10272809706106857,0.04240926591625606,171.4243009566029,-9.486601711050659,129.06666184653108,-0.01537128925523926,-0.07706920191201441,-0.1515200608801869,1.3592017124176026,-0.963993710899353,-8.536296699790954
2026-09-11T19:06:14.829,3.7431502079999746,-612.2219848632812,-55099.97863769531,-220399.91455078125,-419.37205963134767,-5.962351379394532,-4.008574485778809,-2.745873522758484,-6.142344136449716,1.5721751565432271,0.0,-0.001056671142578125,-8.65625,-0.380401611328125,0.015258791856467724,5.493165068328381,-328.8015717681821,1,1789167974.1609905,38.99045669666667,-76.93976005666667,-10.255000000000003,0,1,9.114361,11.0224,59.166864000000004,1,1,1789167974.8159106,-0.43142238572914976,-0.8954728786783719,-0.10086797647134212,0.04276330162434915,171.6213307480609,-9.417086119885713,129.24350769157698,-0.004163657463557673,-0.09779428864774628,-0.1358058144269308,1.7232245664215087,0.01618097276687622,-11.755623814887999
2026-09-11T19:06:14.862,3.776563679999981,-612.3543701171875,-55111.893310546875,-220447.5732421875,-419.4627435302735,-6.053035278320313,-3.9321720600128174,-2.69353786110878,-6.025272595536813,1.5663042035767458,0.0,-0.0011310577392578125,-9.265625,-0.4071807861328125,0.0,0.0,-164.3997088458004,1,1789167974.1609905,38.99045669666667,-76.93976005666667,-10.255000000000003,0,1,9.114361,11.0224,59.166864000000004,1,1,1789167974.8559105,-0.4292255178085055,-0.8970039398223063,-0.09690706533511405,0.04193336968831208,171.9742936841556,-9.11512766715516,129.49761318227115,0.03147456959876494,-0.1315257435022651,-0.15058962585594873,0.9506566666793823,-0.22633748573303222,-11.980784502601624
2026-09-11T19:06:14.895,3.809976191999965,-612.4822998046875,-55123.406982421875,-220493.6279296875,-419.550375366211,-6.140667114257813,-3.8295083045959473,-2.623213188648224,-5.867960783482957,2.10474065705056,0.0,-0.0014743804931640625,-12.078125,-0.5307769775390625,-0.0610351599752903,-21.972657591104507,-657.6176490745459,1,1789167974.1609905,38.99045669666667,-76.93976005666667,-10.255000000000003,0,1,9.114361,11.0224,59.166864000000004,1,1,1789167974.8879104,-0.4274871504862075,-0.8979820325955401,-0.0960312163336016,0.040755500171809095,171.99185071790333,-8.934174555851934,129.7127815905775,-0.042192636535262125,-0.1487647095900635,-0.16281618086494462,-4.625993014297485,1.7704926202011109,-10.684345351219177
2026-09-11T19:06:14.929,3.843388607999998,-612.611083984375,-55134.99755859375,-220539.990234375,-419.6385925292969,-6.2288842773437505,-3.8313844203948975,-2.624498327970505,-5.870835558273313,-0.03846292714300462,0.0,-0.0016193389892578125,-13.265625,-0.5829620361328125,0.0,0.0,657.6195385297159,1,1789167974.1609905,38.99045669666667,-76.93976005666667,-10.255000000000003,0,1,9.114361,11.0224,59.166864000000004,1,1,1789167974.9159105,-0.4258566785486053,-0.8989412492134625,-0.09450437941539244,0.04024477692075147,172.11163721510565,-8.791893916560138,129.9106026674492,-0.013222614413109042,-0.1611343815977229,-0.1411816030559985,-2.5012841902542116,0.5320107712745666,-8.71516999874115
2026-09-11T19:06:14.962,3.8768060479999917,-612.7359619140625,-55146.236572265625,-220584.9462890625,-419.72413391113287,-6.314425659179688,-3.7807440757751465,-2.5898096919059754,-5.7932392893387,1.038039899661254,0.0,-0.0016193389892578125,-13.265625,-0.5829620361328125,0.03051757998764515,10.986328795552254,328.76033578737,1,1789167974.1609905,38.99045669666667,-76.93976005666667,-10.255000000000003,0,1,9.114361,11.0224,59.166864000000004,1,1,1789167974.9559104,-0.4233039353161752,-0.9004792766945541,-0.09279984112931551,0.03659289652194918,172.09145683491053,-8.306436750371528,130.21993487025642,0.029148743837557296,-0.10489236818268202,-0.12349775254186676,1.6115268210792542,0.41099670827865603,-10.802711618671417
2026-09-11T19:06:14.995,3.9102128000000107,-612.8607788085938,-55157.47009277344,-220629.88037109375,-419.8096334838867,-6.399925231933595,-3.7033028602600098,-2.536762459278107,-5.674576009480369,1.587919490881312,0.0,-0.001880645751953125,-15.40625,-0.677032470703125,-0.0762939527630806,-27.465822994709015,-1151.0293425185255,1,1789167974.1609905,38.99045669666667,-76.93976005666667,-10.255000000000003,0,1,9.114361,11.0224,59.166864000000004,1,1,1789167974.9879105,-0.4211662212267719,-0.9016181229903041,-0.09134891308842885,0.036866657979337074,172.2375566457091,-8.246110929758173,130.48372723597083,0.0785132873351145,-0.09374652104652102,-0.16763887465405536,-0.3040061550140381,-0.8318000667190553,-6.197018370208741
2026-09-11T19:06:15.029,3.943628511999975,-612.98388671875,-55168.5498046875,-220674.19921875,-419.8939624023438,-6.484254150390625,-3.651486873626709,-2.501268508434296,-5.595178302689454,1.0621934628790406,0.0,-0.00264739990234375,-21.6875,-0.95306396484375,-0.1068115308880806,-38.452151119709015,-328.77731664109587,1,1789167974.1609905,38.99045669666667,-76.93976005666667,-10.255000000000003,0,1,9.114361,11.0224,59.166864000000004,1,1,1789167975.0159104,-0.418933765581033,-0.9025473563264579,-0.0923550212970137,0.03705832815233137,172.1202814315505,-8.29530212192155,130.77385290524552,0.0023048818101837117,-0.03299265698214961,-0.1831946452112304,1.9696656849861145,-2.1639354246902465,-5.845253828907013
2026-09-11T19:06:15.062,3.9770438719999675,-613.1047973632812,-55179.43176269531,-220717.72705078125,-419.9767861938477,-6.5670779418945315,-3.625115156173706,-2.483203881978989,-5.554768884169171,0.5406084643502641,0.0,-0.003833770751953125,-31.40625,-1.380157470703125,-0.0915527418255806,-32.958987057209015,164.39039000331815,1,1789167974.1609905,38.99045669666667,-76.93976005666667,-10.255000000000003,0,1,9.114361,11.0224,59.166864000000004,1,1,1789167975.0559106,-0.415595382172077,-0.9040894459479316,-0.09193106178616336,0.0380976629424411,172.18327900318278,-8.35463102772593,131.19683253262187,0.06832388062904642,-0.009099623121122835,-0.1717147420562377,-0.2677215494155884,-0.33685843305587765,-4.738867557659149
2026-09-11T19:06:15.095,4.010457056000007,-613.2252197265625,-55190.269775390625,-220761.0791015625,-420.05927551269536,-6.649567260742188,-3.599013566970825,-2.4653242933750152,-5.51477338353394,0.5351058014690426,0.0,-0.0067539215087890625,-55.328125,-2.4314117431640625,-0.1525879055261612,-54.93164598941803,-657.604463321514,1,1789167974.1609905,38.99045669666667,-76.93976005666667,-10.255000000000003,0,1,9.114361,11.0224,59.166864000000004,1,1,1789167975.0879104,-0.41276340653767585,-0.9053449623288582,-0.09235017856348154,0.038056719885778294,172.11101080898894,-8.345760907861433,131.55825504426585,0.006500304266127681,-0.023328070782156207,-0.2111740184499515,-1.3575345818901061,0.22947561378479003,-6.912119300003052
2026-09-11T19:06:15.129,4.043869183999959,-613.3469848632812,-55201.22863769531,-220804.91455078125,-420.14268463134766,-6.732976379394532,-3.6262753009796143,-2.483998581171036,-5.556546575633127,-0.5589074660568573,0.0,-0.008636474609375,-70.75,-3.109130859375,0.0,0.0,1644.063077619499,1,1789167974.1609905,38.99045669666667,-76.93976005666667,-10.255000000000003,0,1,9.114361,11.0224,59.166864000000004,1,1,1789167975.1159105,-0.41026297580862997,-0.9064335317181585,-0.09305070410618418,0.0374714521060647,171.9868225769483,-8.295661863687295,131.87787413851703,-0.08622868982648066,-0.055962935267646986,-0.1991450347122814,1.6296691238784788,-0.003040061550140381,-8.86825180776596
2026-09-11T19:06:15.163,4.077282687999968,-613.4678955078125,-55212.110595703125,-220848.4423828125,-420.2255084228516,-6.815800170898438,-3.60123872756958,-2.4668485283851624,-5.518183000145758,0.5132671145734589,0.0,-0.009675979614257812,-79.265625,-3.4833526611328125,0.0,0.0,0.0,1,1789167975.160269,38.99046781166667,-76.93975831166667,-10.648000000000003,0,1,28.718881,13.942756,261.048649,1,1,1789167975.1559105,-0.4064244541997927,-0.9082431710764477,-0.09271229213475787,0.03630338976622249,171.93425528032535,-8.123408353271909,132.3581624249063,-0.03569233226913444,-0.031000712706848482,-0.20455782432149142,-1.6336898504447936,0.6222319527626038,-8.374486972122194
2026-09-11T19:06:15.196,4.1107073279999895,-613.5905151367188,-55223.14636230469,-220892.58544921875,-420.3095028686524,-6.89979461669922,-3.653770685195923,-2.502832919359207,-5.598677790263073,-1.0765827537416108,0.0,-0.009675979614257812,-79.265625,-3.4833526611328125,-0.015258789993822575,-5.493164397776127,-164.3447587699571,1,1789167975.160269,38.99046781166667,-76.93975831166667,-10.648000000000003,0,1,28.718881,13.942756,261.048649,1,1,1789167975.1879106,-0.4034953081647724,-0.9093957448600292,-0.09358469340165311,0.03785261788049579,171.8860113434728,-8.300682533378845,132.73641974423103,0.05816274825686063,-0.017401456241159064,-0.19583798484560253,0.3654938515281677,1.5227766371154785,-7.454623186950683
2026-09-11T19:06:15.229,4.144127519999984,-613.7154541015625,-55234.390869140625,-220937.5634765625,-420.39508605957036,-6.985377807617188,-3.732388734817505,-2.556686283349991,-5.719144334623274,-1.6114019928668675,0.0,-0.009675979614257812,-79.265625,-3.4833526611328125,-0.015258791856467724,-5.493165068328381,-2.0064284900675086e-05,1,1789167975.160269,38.99046781166667,-76.93975831166667,-10.648000000000003,0,1,28.718881,13.942756,261.048649,1,1,1789167975.2159104,-0.40084982265110264,-0.9104094189700604,-0.09538606470417012,0.03708919238037246,171.63593845704085,-8.279588443662872,133.07903026575545,0.001844638486432807,-0.021421473107277603,-0.20752680391205894,0.30126029296875,-1.0915782295036316,-4.185086023025512
2026-09-11T19:06:15.263,4.177548736000006,-613.8424072265625,-55245.816650390625,-220983.2666015625,-420.48204895019535,-7.072340698242188,-3.785217761993408,-2.5928741669654847,-5.800094324815412,-1.0827817759673914,0.0,-0.009553909301757812,-78.265625,-3.4394073486328125,0.0,0.0,164.36161593655845,1,1789167975.160269,38.99046781166667,-76.93975831166667,-10.648000000000003,0,1,28.718881,13.942756,261.048649,1,1,1789167975.2599106,-0.39629556746714234,-0.9122963821770987,-0.09727582427013849,0.034677777971455936,171.28593080232372,-8.069417912754568,133.6562127341181,0.03557190455074683,0.06583032872672212,-0.19990687093077691,-1.012830828704834,1.1939596571922302,-10.105458792171477
2026-09-11T19:06:15.296,4.210970559999964,-613.9696655273438,-55257.26989746094,-221029.07958984375,-420.5692208862305,-7.159512634277345,-3.8119499683380127,-2.611185728311539,-5.8410561209545815,-0.5478923396304444,0.0,-0.009368896484375,-76.75,-3.372802734375,0.0,0.0,0.0,1,1789167975.160269,38.99046781166667,-76.93975831166667,-10.648000000000003,0,1,28.718881,13.942756,261.048649,1,1,1789167975.2879105,-0.3938147903243522,-0.9134265169712603,-0.09655856157534828,0.03519024299487318,171.3633622189233,-8.067508411077952,133.96457381841768,-0.010559416507490893,0.06382634167958223,-0.1901190644855927,-5.0127672966766355,1.0534303603744506,-9.974736145515442
2026-09-11T19:06:15.330,4.244389599999977,-614.099609375,-55268.96484375,-221075.859375,-420.658232421875,-7.248524169921875,-3.839694023132324,-2.6301904058456422,-5.883568373849408,-0.5686781407872931,0.0,-0.009000778198242188,-73.734375,-3.2402801513671875,0.0457763746380806,16.479494869709015,493.11694380517366,1,1789167975.160269,38.99046781166667,-76.93975831166667,-10.648000000000003,0,1,28.718881,13.942756,261.048649,1,1,1789167975.3279104,-0.3895836357980646,-0.9148684959033565,-0.09946060062209956,0.03671259791654953,171.082493894691,-8.318218922578422,134.51769828253768,0.065126611972318,0.13941340999080307,-0.20605636401725375,-4.914308529052734,1.4821771054458617,-11.601855540351867
2026-09-11T19:06:15.363,4.277810944000009,-614.2285766601562,-55280.57189941406,-221122.28759765625,-420.7465750122071,-7.336866760253907,-3.841130256652832,-2.63117422580719,-5.885769116426242,-0.029436876073767933,0.0,-0.0084991455078125,-69.625,-3.0596923828125,-0.1220703199505806,-43.945315182209015,-1807.9706804088753,1,1789167975.160269,38.99046781166667,-76.93975831166667,-10.648000000000003,0,1,28.718881,13.942756,261.048649,1,1,1789167975.3599105,-0.3867124096012486,-0.9159583756275158,-0.09908298917405516,0.040698005289359566,171.26992559557976,-8.69581397846429,134.8866503215847,-0.023997055484445636,0.1777544539327641,-0.19050548038198425,2.378701063232422,-2.2236579241752623,-8.94925473810196
2026-09-11T19:06:15.396,4.311235071999988,-614.3599243164062,-55292.39318847656,-221169.57275390625,-420.83654815673833,-7.426839904785157,-3.9213483333587646,-2.686123608350754,-6.00868738446392,-1.6440034738856621,0.0,-0.008577346801757812,-70.265625,-3.0878448486328125,0.0,0.0,1314.7782099876165,1,1789167975.160269,38.99046781166667,-76.93975831166667,-10.648000000000003,0,1,28.718881,13.942756,261.048649,1,1,1789167975.3879104,-0.38385354666543253,-0.9167460752747035,-0.10171524789473141,0.043440724286200355,171.0782264309645,-9.075495081625036,135.27010453646983,0.0015861552242124467,0.2037287929267941,-0.18298258770711312,1.2808465776252747,0.6413549205780029,-9.830774521141052
2026-09-11T19:06:15.430,4.344655167999974,-614.4923706054688,-55304.31335449219,-221217.25341796875,-420.9272738647461,-7.5175656127929695,-3.9227421283721924,-2.687078357934952,-6.010823098458637,-0.028568128116637944,0.0,-0.00853729248046875,-69.9375,-3.07342529296875,0.0610351637005806,21.972658932209015,657.4684564705648,1,1789167975.160269,38.99046781166667,-76.93975831166667,-10.648000000000003,0,1,28.718881,13.942756,261.048649,1,1,1789167975.4279106,-0.3802033061296807,-0.9177473650951052,-0.10389058197602076,0.04890773809670116,171.04058733514177,-9.716252730045078,135.7566574316656,-0.033885567427469905,0.2539372031176906,-0.18727801752919634,-2.272200842475891,1.8512994175338746,-6.9172187580871585
2026-09-11T19:06:15.463,4.378073503999985,-614.6229248046875,-55316.063232421875,-221264.2529296875,-421.016703491211,-7.606995239257813,-3.9241783618927,-2.6880621778964997,-6.01302384103547,-0.029439525700723116,0.0,-0.0074100494384765625,-60.703125,-2.6676177978515625,0.030517593026161194,10.98633348941803,-328.75142086031263,1,1789167975.160269,38.99046781166667,-76.93975831166667,-10.648000000000003,0,1,28.718881,13.942756,261.048649,1,1,1789167975.4559104,-0.37794186945793423,-0.9185153684000451,-0.10416770751723252,0.05136681841593134,171.09075231828407,-9.968172794722188,136.04709262598524,0.07749401505194983,0.2969400214917285,-0.14831877796617893,-0.4220782229614258,-0.5002372247505188,-11.40788000015259
2026-09-11T19:06:15.496,4.411491807999994,-614.7506713867188,-55327.56042480469,-221310.24169921875,-421.1042098999024,-7.694501647949219,-3.846949338912964,-2.6351602971553802,-5.894685704087727,1.5830211114575439,0.0,-0.0046253204345703125,-37.890625,-1.6651153564453125,0.061035171151161194,21.97266161441803,328.7518159209164,1,1789167975.160269,38.99046781166667,-76.93975831166667,-10.648000000000003,0,1,28.718881,13.942756,261.048649,1,1,1789167975.4879105,-0.3754961364873633,-0.9192837535894173,-0.10502042238372775,0.05376562797883496,171.07277031692314,-10.237057825324454,136.36456425984872,0.038894836913618835,0.2228719132285183,-0.13467169947898486,2.6526008022499084,-1.553765651626587,-0.0793357998085022
2026-09-11T19:06:15.531,4.4449113919999945,-614.8790893554688,-55339.11804199219,-221356.47216796875,-421.1921762084961,-7.78246795654297,-3.846970796585083,-2.635174995660782,-5.894718583707899,-0.00043981712643998956,0.0,0.0006694794283248484,5.484375476837158,0.24101259419694543,0.015258789993822575,5.493164397776127,-493.10898713286116,1,1789167975.160269,38.99046781166667,-76.93975831166667,-10.648000000000003,0,1,28.718881,13.942756,261.048649,1,1,1789167975.5279105,-0.3729660967011627,-0.920004972627387,-0.10608360872394551,0.056863072485442104,171.05851871497657,-10.588834498698317,136.69542075502287,-0.04111524478800602,0.16076280099997328,-0.10954593956727449,-1.7764746767997743,1.0146940922355652,-9.167648837203979
2026-09-11T19:06:15.564,4.478333856000006,-615.0064697265625,-55350.582275390625,-221402.3291015625,-421.27943176269537,-7.869723510742188,-3.821424961090088,-2.6176760983467102,-5.855574665235118,0.5235669433009386,0.0,0.006055832374840975,49.609378814697266,2.180099654942751,0.04577639698982239,16.47950291633606,328.71120808316596,1,1789167975.160269,38.99046781166667,-76.93975831166667,-10.648000000000003,0,1,28.718881,13.942756,261.048649,1,1,1789167975.5559106,-0.3710674932680486,-0.9208178150721187,-0.1057136913062797,0.05681621560766436,171.0748941013828,-10.54971373195305,136.9291578622604,-0.08261254214927359,0.15462046376342964,-0.13107841561497893,0.09483030706405639,0.9561483907699585,-9.775170814723968
2026-09-11T19:06:15.597,4.511752383999976,-615.1334228515625,-55362.008056640625,-221448.0322265625,-421.36639465332036,-7.956686401367188,-3.7958104610443115,-2.6001301658153535,-5.816325531977789,0.525036067757754,0.0,0.012092591263353825,99.06250762939453,4.353332854807377,0.3356933891773224,120.84962010383606,3123.1213172403423,1,1789167975.160269,38.99046781166667,-76.93975831166667,-10.648000000000003,0,1,28.718881,13.942756,261.048649,1,1,1789167975.5879104,-0.36961439389994577,-0.9215605796234962,-0.10441118520503803,0.056653352152017764,171.19288410727603,-10.463129157549417,137.0990616862023,0.018199420775170873,0.048437075533047436,-0.08467813931900889,-2.7114407032203673,1.092362761516571,-8.301819694423676
2026-09-11T19:06:15.630,4.545174111999984,-615.2594604492188,-55373.35144042969,-221493.40576171875,-421.45273040771485,-8.043022155761719,-3.7709860801696777,-2.5831254649162294,-5.778287099401008,0.5087917925464613,0.0,0.028179170563817024,230.84376525878906,10.144501402974129,0.5035400986671448,181.27443552017212,1807.9500681808684,1,1789167975.160269,38.99046781166667,-76.93975831166667,-10.648000000000003,0,1,28.718881,13.942756,261.048649,1,1,1789167975.6279104,-0.3683405957517892,-0.922396214083551,-0.10248605489701433,0.05483646886146823,171.3125571564284,-10.175358840568043,137.23829451085587,-0.034693131272367686,-0.07849932470109856,-0.03771080554906588,0.38383228733062746,0.7798248208618164,-9.154017593479157
2026-09-11T19:06:15.664,4.5785991679999825,-615.38427734375,-55384.5849609375,-221538.33984375,-421.53822998046877,-8.128521728515626,-3.7203457355499268,-2.5484368288517,-5.700690830466395,1.0378033791336332,0.0,0.03937149420380592,322.5312805175781,14.173737913370132,0.2899170517921448,104.37013864517212,-2300.797846830924,1,1789167975.160269,38.99046781166667,-76.93975831166667,-10.648000000000003,0,1,28.718881,13.942756,261.048649,1,1,1789167975.6559105,-0.36838577619931145,-0.9227729778938292,-0.09973394280024127,0.05324558025323341,171.545827368063,-9.889484324909777,137.20739490270287,0.05533461673692902,-0.1334953475631407,-0.015670962287806685,-3.946097958583832,0.5305397737503051,-10.825757246551515
2026-09-11T19:06:15.697,4.612019231999966,-615.5059814453125,-55395.538330078125,-221582.1533203125,-421.6215972900391,-8.211889038085937,-3.6947951316833496,-2.5309346652030946,-5.661539605411354,0.5237022780271714,0.0,0.05227852240204811,428.2656555175781,18.82026806473732,0.5035400986671448,181.27443552017212,2301.141520107139,1,1789167975.160269,38.99046781166667,-76.93975831166667,-10.648000000000003,0,1,28.718881,13.942756,261.048649,1,1,1789167975.6879106,-0.36882741110091005,-0.9229323354513173,-0.09855739951104067,0.049484179295995974,171.52265062305432,-9.441612349614326,137.13550426251936,0.0453057803220444,-0.17933467503751974,0.0299489772995967,-1.711260453224182,4.648156043663025,-7.004694077529908
2026-09-11T19:06:15.730,4.64544035199998,-615.6287231445312,-55406.58508300781,-221626.34033203125,-421.7056753540039,-8.295967102050781,-3.695091485977173,-2.5311376678943636,-5.661993709498838,-0.0060740840303632315,0.0,0.06735611706972122,551.7813110351562,24.24820214509964,0.10681158304214478,38.45216989517212,-4273.413506936328,1,1789167975.160269,38.99046781166667,-76.93975831166667,-10.648000000000003,0,1,28.718881,13.942756,261.048649,1,1,1789167975.7279105,-0.3699952185958415,-0.9229185572494971,-0.09631618405817198,0.045255580751930605,171.6015627353305,-8.905631231741138,136.96378325078962,0.049753926453677155,-0.1439791913140202,0.06200439247342535,-4.047694854259491,-0.25271737466812133,-13.304191941928863
2026-09-11T19:06:15.764,4.678866655999968,-615.7474975585938,-55417.27478027344,-221669.09912109375,-421.78703582763677,-8.377327575683594,-3.592893362045288,-2.4611319530010225,-5.505395385202711,2.094330108807892,0.0,0.06654740124940872,545.1563110351562,23.95706444978714,-0.03051757998764515,-10.986328795552254,-1479.029769212347,1,1789167975.160269,38.99046781166667,-76.93975831166667,-10.648000000000003,0,1,28.718881,13.942756,261.048649,1,1,1789167975.7559104,-0.3709222304816511,-0.9228151048659625,-0.09429066599189133,0.04402557748110881,171.777951164971,-8.696703318397093,136.83129720866063,-0.009151284866981867,-0.15824167289546748,0.0391503531161108,-2.486181949005127,0.15013981397628784,-10.889598539104462
2026-09-11T19:06:15.797,4.712284863999969,-615.860107421875,-55427.40966796875,-221709.638671875,-421.8641735839844,-8.454465332031251,-3.412025213241577,-2.3372372710704807,-5.228250874799746,3.7074005263998564,0.0,0.06622887402772903,542.5469360351562,23.842394649982452,-0.015258795581758022,-5.493166409432888,164.3763299970867,1,1789167975.160269,38.99046781166667,-76.93975831166667,-10.648000000000003,0,1,28.718881,13.942756,261.048649,1,1,1789167975.7879105,-0.37200017630148396,-0.9225657372427678,-0.09200707007981906,0.044978087472681436,172.07412265609233,-8.710604843987094,136.68370278049218,0.03256627304588739,-0.12904737596443314,0.04628927335554321,1.188173733596802,-0.4208033584403991,-9.747810260772704
2026-09-11T19:06:15.831,4.745706527999971,-615.9717407226562,-55437.45666503906,-221749.82666015625,-421.94064239501955,-8.530934143066407,-3.3093082904815674,-2.266876178979874,-5.0708575943536855,2.1052540080171385,0.0,0.0657348707318306,538.5000610351562,23.664553463459015,0.0,0.0,164.35945288159562,1,1789167975.160269,38.99046781166667,-76.93975831166667,-10.648000000000003,0,1,28.718881,13.942756,261.048649,1,1,1789167975.8279104,-0.3727947257963071,-0.9225202969902038,-0.08901865215787455,0.045343948080840565,172.41896137398618,-8.628826961886293,136.56504646416138,-0.053527328296488895,-0.06705642252624813,0.052044845629844905,1.8987636043167113,-0.7699201041984558,-9.12832417005539
2026-09-11T19:06:15.864,4.779134527999986,-616.0839233398438,-55447.55310058594,-221790.21240234375,-422.017487487793,-8.607779235839844,-3.3108227252960205,-2.267913566827774,-5.0731781648795895,-0.031033500296150925,0.0,0.06352425366640091,520.3906860351562,22.868731319904327,-0.030517593026161194,-10.98633348941803,-328.6566198819294,1,1789167975.160269,38.99046781166667,-76.93975831166667,-10.648000000000003,0,1,28.718881,13.942756,261.048649,1,1,1789167975.8559105,-0.37304723231270925,-0.922353995620932,-0.08914588249218688,0.04638836988533072,172.45145725342996,-8.747731037560234,136.53633301489145,-0.04395681534317798,-0.0010156070917355002,0.013399067200485667,2.010853615665436,1.4370665147018433,-9.279248516044616
2026-09-11T19:06:15.897,4.812551135999968,-616.1931762695312,-55457.38586425781,-221829.54345703125,-422.09232574462897,-8.682617492675782,-3.338318109512329,-2.286747905015946,-5.115309379509537,-0.5636220824142881,0.0,0.05982208997011185,490.06256103515625,21.535952389240265,-0.045776382088661194,-16.47949755191803,-164.3842505649583,1,1789167975.160269,38.99046781166667,-76.93975831166667,-10.648000000000003,0,1,28.718881,13.942756,261.048649,1,1,1789167975.8879104,-0.372944929574715,-0.9223584310802472,-0.0900001962728523,0.045463928454807984,172.31965762848938,-8.684784456395784,136.55332370542777,-0.07006519562376115,-0.002746450110938277,-0.0014084807063594238,-1.9298506853294373,1.644673298625946,-8.605335516929626
2026-09-11T19:06:15.932,4.845974624000007,-616.3056030273438,-55467.50427246094,-221870.01708984375,-422.1693380737305,-8.759629821777345,-3.365283966064453,-2.3052195167541507,-5.156629198179465,-0.552653623050445,0.0,0.058561332523822784,479.73443603515625,21.082079708576202,0.0,0.0,493.0514000184113,1,1789167975.160269,38.99046781166667,-76.93975831166667,-10.648000000000003,0,1,28.718881,13.942756,261.048649,1,1,1789167975.9279106,-0.37312016705415607,-0.922192574678676,-0.08978779347152777,0.04775299245604803,172.44027240286718,-8.921330644268348,136.53396950335414,-0.053902574085667676,0.03673987888618143,0.00021258110289290932,-0.284000588684082,-0.5650591823196411,-9.912660049991608
2026-09-11T19:06:15.965,4.879396415999963,-616.41650390625,-55477.4853515625,-221909.94140625,-422.24530517578125,-8.835596923828126,-3.3133676052093506,-2.2696568095684055,-5.077077687831968,1.0640574624422294,0.0,0.058561332523822784,479.73443603515625,21.082079708576202,0.0,0.0,0.0,1,1789167975.160269,38.99046781166667,-76.93975831166667,-10.648000000000003,0,1,28.718881,13.942756,261.048649,1,1,1789167975.9559104,-0.3730175620021742,-0.9220231344787698,-0.09219706331688922,0.04723282163538103,172.15774137477445,-8.967938783746163,136.56295991082376,-0.10946495628998196,0.09227817554681819,0.0006941174435181449,-1.6164301461601258,-0.06109543050765991,-10.350723112716674
2026-09-11T19:06:15.998,4.912815711999997,-616.5272827148438,-55487.45544433594,-221949.82177734375,-422.321188659668,-8.911480407714844,-3.3145182132720947,-2.270444976091385,-5.078840766131403,-0.023584174932309233,0.0,0.06168556958436966,505.32818603515625,22.206805050373077,0.1068115383386612,38.45215380191803,1150.5973615326689,1,1789167975.160269,38.99046781166667,-76.93975831166667,-10.648000000000003,0,1,28.718881,13.942756,261.048649,1,1,1789167975.9879105,-0.3731487989854322,-0.9221431327456653,-0.09004642162100633,0.04799644256600387,172.42289515426802,-8.958591533459883,136.53261986699368,0.04043875516993302,0.07369879659348816,0.03945351680718222,-0.08031646482467651,0.19946726428985595,-4.503507953777313
2026-09-11T19:06:16.032,4.946234431999983,-616.6404418945312,-55497.63977050781,-221990.55908203125,-422.39870269775395,-8.988994445800781,-3.392707109451294,-2.3240043699741366,-5.198649718088166,-1.6026764006154053,0.0,0.06283379346132278,514.7344360351562,22.620165646076202,-0.015258795581758022,-5.493166409432888,-1314.9911250750865,1,1789167975.160269,38.99046781166667,-76.93975831166667,-10.648000000000003,0,1,28.718881,13.942756,261.048649,1,1,1789167976.0279105,-0.37382623859626535,-0.9216974617110049,-0.09232630082782887,0.04694237518391999,172.1394704969343,-8.949352624419777,136.46267463693817,0.03392361560516339,0.03525547635736025,0.07571203388566361,-0.3291111794281006,1.8058946272850038,-1.399507044582367
2026-09-11T19:06:16.065,4.979649536000011,-616.7552490234375,-55507.972412109375,-222031.8896484375,-422.4773455810547,-9.067637329101563,-3.4449102878570557,-2.3597635471820833,-5.278640719358627,-1.07015010960064,0.0,0.07047653943300247,577.3438110351562,25.37155419588089,0.1831054985523224,65.91797947883606,2137.0918339266377,1,1789167975.160269,38.99046781166667,-76.93975831166667,-10.648000000000003,0,1,28.718881,13.942756,261.048649,1,1,1789167976.0559106,-0.37450300448220847,-0.9213755208609882,-0.0934692581429454,0.045586697337592956,171.965843028247,-8.85961423452071,136.3837886252306,-0.013337108012039868,0.0051351077252177165,0.07592618578488332,-3.9939544113731387,2.456958131523132,-11.090046468410492
2026-09-11T19:06:16.098,5.013063999999986,-616.87548828125,-55518.7939453125,-222075.17578125,-422.55970947265627,-9.150001220703126,-3.574899673461914,-2.4488062763214113,-5.47782363171396,-2.6647959739648934,0.0,0.08193398267030716,671.2031860351562,29.496233761310577,0.21362310647964478,76.90431833267212,328.7899172599117,1,1789167975.160269,38.99046781166667,-76.93975831166667,-10.648000000000003,0,1,28.718881,13.942756,261.048649,1,1,1789167976.0879104,-0.37610832311749587,-0.920370331625867,-0.09675379629503275,0.045822318220885484,171.6374206293328,-9.040165763940127,136.20761599569724,-0.01797130624193521,0.02396895568348853,0.1322004877910861,-0.3088114135932922,2.5319790052604674,-7.960450202293396
2026-09-11T19:06:16.133,5.046480448000011,-616.9995727539062,-55529.96154785156,-222119.84619140625,-422.6447073364258,-9.234999084472657,-3.653183698654175,-2.50243083357811,-5.597778349986818,-1.604735406248381,0.0,0.0933380201458931,764.6250610351562,33.601687252521515,0.3662109971046448,131.83595895767212,1643.8503764660513,1,1789167975.160269,38.99046781166667,-76.93975831166667,-10.648000000000003,0,1,28.718881,13.942756,261.048649,1,1,1789167976.1279104,-0.3786500338565354,-0.9192738527535974,-0.09716778957202658,0.046023430703158216,171.62635400441286,-9.102517140008324,135.89409357395184,-0.027196418536276443,0.01932620534025841,0.17358782940947803,-0.03089094800949097,2.0898952159690856,-7.496693716144561
2026-09-11T19:06:16.165,5.079901344000007,-617.1220092773438,-55540.98083496094,-222163.92333984375,-422.7285763549805,-9.318868103027345,-3.7060019969940186,-2.538611367940903,-5.678711900368871,-1.0825722435089065,0.0,0.10265160351991653,840.9219360351562,36.95457726716995,0.07629400491714478,27.46584177017212,-3122.9000319893858,1,1789167976.151904,38.99047985833333,-76.939757085,-10.461000000000002,0,1,9.144576,11.370384,77.933584,1,1,1789167976.1559105,-0.38086769854933555,-0.9184667612720088,-0.09542955088552564,0.04745319228488317,171.89637828265506,-9.198794972114463,135.607606602852,0.23454799139143517,0.10020144675209684,0.17597683608960785,-3.6377768774986268,-0.5701586404037475,-17.548117865924834
2026-09-11T19:06:16.198,5.11330959999998,-617.2444458007812,-55552.00012207031,-222208.00048828125,-422.8124453735352,-9.402737121582032,-3.70745849609375,-2.539609069824219,-5.680943695920312,-0.02986393193696303,0.0,0.10519600659608841,861.7656860351562,37.87056237459183,0.09155279397964478,32.95900583267212,164.42534631273358,1,1789167976.151904,38.99047985833333,-76.939757085,-10.461000000000002,0,1,9.144576,11.370384,77.933584,1,1,1789167976.1879106,-0.38364522515767924,-0.9171384362451005,-0.09622937022395922,0.04912573950492131,171.91039226236035,-9.43601586198319,135.26897295093784,0.04479963483896605,0.16241126447848192,0.18550022515311493,-0.6053645144844055,0.04520865724563599,-5.932238815841675
2026-09-11T19:06:16.232,5.146718815999975,-617.3694458007812,-55563.25012207031,-222253.00048828125,-422.8980703735352,-9.488362121582032,-3.7077393531799316,-2.539801456928253,-5.681374053615449,-0.005758504001841255,0.0,0.10785294324159622,883.5313110351562,38.82705956697464,0.0152588477358222,5.493185184895992,-822.1031181270417,1,1789167976.151904,38.99047985833333,-76.939757085,-10.461000000000002,0,1,9.144576,11.370384,77.933584,1,1,1789167976.2279105,-0.38719323871926853,-0.9155096037293396,-0.09724195878465157,0.04967456915922941,171.8621802011896,-9.57031902899045,134.8327924025593,-0.07813699434838453,0.18087597529995594,0.22842816890224227,-1.369302562084198,1.8726779148864745,-3.876863008441925
2026-09-11T19:06:16.265,5.1801418559999775,-617.4899291992188,-55574.09362792969,-222296.37451171875,-422.9806015014649,-9.57089324951172,-3.6821887493133545,-2.522299293279648,-5.642222828560409,0.5236556473798907,0.0,0.1138305738568306,932.5000610351562,40.979006588459015,0.3356934189796448,120.84963083267212,3451.4049484358047,1,1789167976.151904,38.99047985833333,-76.939757085,-10.461000000000002,0,1,9.144576,11.370384,77.933584,1,1,1789167976.2599106,-0.39048253813541317,-0.9139076896729015,-0.09673560733925719,0.05420649814155304,172.15000422775356,-10.056929386457425,134.4209563444532,-0.07348516829304405,0.12757135101602154,0.22013994935037157,1.575830614490509,-0.5989901918792725,-7.6106469910240175
2026-09-11T19:06:16.298,5.213551775999974,-617.60791015625,-55584.7119140625,-222338.84765625,-423.06141845703127,-9.651710205078126,-3.553459882736206,-2.4341200196743014,-5.444971411225614,2.6393141200384456,0.0,0.13066484034061432,1070.4063720703125,47.039342522621155,0.5950928330421448,214.23341989517212,2795.0916692559795,1,1789167976.151904,38.99047985833333,-76.939757085,-10.461000000000002,0,1,9.144576,11.370384,77.933584,1,1,1789167976.2879105,-0.3936834963123605,-0.9126703188949968,-0.0955008531122695,0.0540904870953216,172.31241733715595,-10.01626779239061,134.00844283472463,-0.004055272517008825,0.07033362726271788,0.2632038542482293,-2.4778462963676455,0.493470636138916,-6.496513466148377
2026-09-11T19:06:16.333,5.246959519999962,-617.7264404296875,-55595.379638671875,-222381.5185546875,-423.142611694336,-9.732903442382813,-3.4769928455352783,-2.3817400991916657,-5.327800866123083,1.5678975653864997,0.0,0.1430511623620987,1171.8751220703125,51.49841845035553,0.2746582627296448,98.87697458267212,-3452.9851914736787,1,1789167976.151904,38.99047985833333,-76.939757085,-10.461000000000002,0,1,9.144576,11.370384,77.933584,1,1,1789167976.3279104,-0.3992077242753968,-0.9106517165567383,-0.09190429977974272,0.05385391065762932,172.74661316686655,-9.872840982682614,133.28434159695337,0.017854194649126392,-0.061096123130687505,0.30883548754162105,-1.7816722013854982,-0.5431903524589539,-9.21040583190918
2026-09-11T19:06:16.365,5.280376832000002,-617.8416748046875,-55605.750732421875,-222423.0029296875,-423.22154724121094,-9.811838989257813,-3.4524009227752686,-2.364894632101059,-5.290118629431497,0.5040940184113685,0.0,0.15560151636600494,1274.6876220703125,56.01654589176178,0.19836431741714478,71.41115427017212,-821.9039374701076,1,1789167976.151904,38.99047985833333,-76.939757085,-10.461000000000002,0,1,9.144576,11.370384,77.933584,1,1,1789167976.3599105,-0.40424579193435767,-0.9088428714583171,-0.08860989169547631,0.052328403343506656,173.08225373825118,-9.599314172936221,132.62335409996987,-0.022029894884522824,-0.09216839433686774,0.34927022845427447,-0.17328350835800171,0.12974198163986206,-11.843197200832368
2026-09-11T19:06:16.399,5.313797248000014,-617.9579467773438,-55616.21520996094,-222464.86083984375,-423.3011935424805,-9.891485290527344,-3.479688882827759,-2.383586884737015,-5.3319320077331165,-0.5593064022886125,0.0,0.16214372217655182,1328.2813720703125,58.371739983558655,0.07629400491714478,27.46584177017212,-1314.9241619249547,1,1789167976.151904,38.99047985833333,-76.939757085,-10.461000000000002,0,1,9.144576,11.370384,77.933584,1,1,1789167976.3879104,-0.40899603594638606,-0.906913545299541,-0.08620184193002968,0.052908471724572664,173.41501363352432,-9.583177466482244,132.00414506764153,0.007650476243191945,-0.13884635251683008,0.34922711882175017,1.777161142311096,-0.18024622997283937,-8.551300874538422
2026-09-11T19:06:16.432,5.347215296000002,-618.0726318359375,-55626.536865234375,-222506.1474609375,-423.3797528076172,-9.970044555664064,-3.4295356273651123,-2.349231904745102,-5.2550821061764035,1.0280367061513,0.0,0.16281510889530182,1333.7813720703125,58.613439202308655,-0.03051757998764515,-10.986328795552254,-1150.6408323352407,1,1789167976.151904,38.99047985833333,-76.939757085,-10.461000000000002,0,1,9.144576,11.370384,77.933584,1,1,1789167976.4279106,-0.41578761396661607,-0.9039926451257082,-0.08418171110620484,0.05321087431911829,173.71505460488535,-9.56741123138236,131.12675247365135,-0.009451481498324891,-0.2023724975650693,0.32180398201563964,3.06987376663208,-0.25301157417297365,-6.684114683742523
2026-09-11T19:06:16.466,5.380634751999992,-618.183349609375,-55636.50146484375,-222546.005859375,-423.45559448242193,-10.045886230468751,-3.352385997772217,-2.2963844084739686,-5.1368656238232955,1.581339213634988,0.0,0.16312600672245026,1336.3282470703125,58.72536242008209,0.015258791856467724,5.493165068328381,493.1107754682041,1,1789167976.151904,38.99047985833333,-76.939757085,-10.461000000000002,0,1,9.144576,11.370384,77.933584,1,1,1789167976.4559104,-0.4200726239945044,-0.9024250154389327,-0.08138271063005276,0.050447363567573206,173.92361037328718,-9.173419635044931,130.5646240089252,0.015877260205392416,-0.24546031347367933,0.31334890898727835,-0.6028147854423522,-0.5921255367660523,-11.132116997604369
2026-09-11T19:06:16.499,5.414044703999991,-618.2901611328125,-55646.114501953125,-222584.4580078125,-423.5287603759766,-10.119052124023439,-3.197312831878662,-2.190159289836884,-4.899246800816217,3.1794454130639385,0.0,0.16180230677127838,1325.4844970703125,58.24883043766022,-0.1068115308880806,-38.452151119709015,-1315.3361066797709,1,1789167976.151904,38.99047985833333,-76.939757085,-10.461000000000002,0,1,9.144576,11.370384,77.933584,1,1,1789167976.4879105,-0.42452479122925196,-0.9008005592182665,-0.0781945481001487,0.04714516720971058,174.14439793022342,-8.703884341070669,129.9793494078211,0.07813839061178614,-0.12721635104616588,0.25875780251169894,-5.769840689163208,1.9900635173225403,-12.812682635822297
2026-09-11T19:06:16.533,5.447451295999997,-618.396484375,-55655.68359375,-222622.734375,-423.601591796875,-10.191883544921875,-3.172689914703369,-2.173292591571808,-4.861517071339938,0.5048913180091197,0.0,0.15193559229373932,1244.6563720703125,54.696813225746155,-0.3662109673023224,-131.83594822883606,-2795.370360110694,1,1789167976.151904,38.99047985833333,-76.939757085,-10.461000000000002,0,1,9.144576,11.370384,77.933584,1,1,1789167976.5279105,-0.4296604686466192,-0.898982454195475,-0.07320837304900718,0.043162053317302614,174.5208603578179,-8.077552388641374,129.2970740398264,-0.01927349639684818,-0.23295520391606514,0.2552880879587342,-0.7239269149398804,0.5216157221031189,-9.237570252857209
