timestamp,time_s,drive_pos_turns,drive_encoder_count,drive_wheel_angle_deg,drive_distance_m,drive_distance_since_start_m,drive_velocity_turns_s,drive_velocity_mps,drive_velocity_mph,drive_acceleration_mps2,drive_iq_A,steer_pos_turns,steer_encoder_count,steer_angle_deg,steer_velocity_turns_s,steer_velocity_deg_s,steer_acceleration_deg_s2,gps_received,gps_ros_stamp_s,gps_latitude_deg,gps_longitude_deg,gps_altitude_m,gps_status,gps_service,gps_cov_x_m2,gps_cov_y_m2,gps_cov_z_m2,gps_covariance_type,imu_received,imu_ros_stamp_s,imu_qx,imu_qy,imu_qz,imu_qw,imu_roll_deg,imu_pitch_deg,imu_yaw_deg,imu_gyro_x_rad_s,imu_gyro_y_rad_s,imu_gyro_z_rad_s,imu_accel_x_mps2,imu_accel_y_mps2,imu_accel_z_mps2
2026-09-11T19:05:28.817,6.015999986175302e-06,0.0,0.0,0.0,0.0,0.0,0.0,0.0,0.0,0.0,0.0,-0.0001544952392578125,-1.265625,-0.0556182861328125,0.0,0.0,0.0,1,1789167928.7554548,38.99028713333333,-76.93818018333333,11.657000000000004,0,1,14.44,7.628644,24.393721,1,1,1789167928.8078415,-0.7921792009436591,0.6098362457689935,-0.004023525923875592,-0.02314472246075438,178.17876555955826,-1.9830411899245544,-75.14814685229607,-0.00036355208319041886,-0.0024029693141457927,0.00021956241990088665,0.34637088371276853,0.30704621656417846,-9.662688537368775
2026-09-11T19:05:28.852,0.033415616000013415,0.0,0.0,0.0,0.0,0.0,0.0,0.0,0.0,0.0,0.0,-0.0001544952392578125,-1.265625,-0.0556182861328125,0.0,0.0,0.0,1,1789167928.7554548,38.99028713333333,-76.93818018333333,11.657000000000004,0,1,14.44,7.628644,24.393721,1,1,1789167928.8478415,-0.7921862582984898,0.6098271803486962,-0.00404129392967689,-0.023138932870191666,178.18051049503148,-1.9842294715228959,-75.1468413433109,-0.0010660471071181365,0.0010122909661567112,-0.0006515314097694832,0.3498032112693787,0.3102824111175537,-9.667689928951264
2026-09-11T19:05:28.885,0.06682275200000731,0.0,0.0,0.0,0.0,0.0,0.0,0.0,0.0,0.0,0.0,-0.0001544952392578125,-1.265625,-0.0556182861328125,0.0,0.0,0.0,1,1789167928.7554548,38.99028713333333,-76.93818018333333,11.657000000000004,0,1,14.44,7.628644,24.393721,1,1,1789167928.8758416,-0.7921939015817517,0.6098168190407541,-0.004013199533758087,-0.023155209806871083,178.17704235084,-1.9827917327373064,-75.14532863719984,-0.001156629695296642,-0.000757472895365539,-0.0001064650843716541,0.34735154872894286,0.30851721408843996,-9.665238266410828
2026-09-11T19:05:28.920,0.10024320000002263,0.0,0.0,0.0,0.0,0.0,0.0,0.0,0.0,0.0,0.0,-0.0001544952392578125,-1.265625,-0.0556182861328125,0.0,0.0,0.0,1,1789167928.7554548,38.99028713333333,-76.93818018333333,11.657000000000004,0,1,14.44,7.628644,24.393721,1,1,1789167928.9158416,-0.7921983156525204,0.6098112488321933,-0.004049461564522976,-0.023144574657315765,178.1805285482481,-1.9853291675512015,-75.14453411509125,-0.00034627332359567496,0.0019280652246781358,-0.0007281513639320343,0.3488225462532043,0.3080268815803528,-9.663669202384948
2026-09-11T19:05:28.953,0.13366668800000525,0.0,0.0,0.0,0.0,0.0,0.0,0.0,0.0,0.0,0.0,-0.0001544952392578125,-1.265625,-0.0556182861328125,0.0,0.0,0.0,1,1789167928.7554548,38.99028713333333,-76.93818018333333,11.657000000000004,0,1,14.44,7.628644,24.393721,1,1,1789167928.9478416,-0.792195591227537,0.6098146712870547,-0.004071985459631172,-0.023143700160761338,178.18219035223026,-1.9873217631297373,-75.145032640327,-0.0009517280411125079,0.0009443976582541317,0.00048537606497962306,0.3468612162208557,0.3072423495674133,-9.66592473192215
2026-09-11T19:05:28.986,0.16707184000000552,0.0,0.0,0.0,0.0,0.0,0.0,0.0,0.0,0.0,0.0,-0.0001544952392578125,-1.265625,-0.0556182861328125,0.0,0.0,0.0,1,1789167928.7554548,38.99028713333333,-76.93818018333333,11.657000000000004,0,1,14.44,7.628644,24.393721,1,1,1789167928.9758415,-0.7921900633353735,0.6098231181852192,-0.0040981432333899335,-0.023105698465782577,178.1874927385167,-1.987060405871186,-75.14628248911376,-0.0013873622224102927,-0.001531526418625024,0.00025551620249196987,0.34607668420791626,0.3088114135932922,-9.669945458488465
2026-09-11T19:05:29.019,0.20047830400000066,0.0,0.0,0.0,0.0,0.0,0.0,0.0,0.0,0.0,0.0,-0.0001544952392578125,-1.265625,-0.0556182861328125,0.0,0.0,0.0,1,1789167928.7554548,38.99028713333333,-76.93818018333333,11.657000000000004,0,1,14.44,7.628644,24.393721,1,1,1789167929.0078416,-0.7921928491274104,0.609820142876463,-0.004080228591662963,-0.02309187883577861,178.18748945871965,-1.984460289473306,-75.14585855228924,0.0004602433237509047,-0.001718102115663218,-0.0004951499087907913,0.3448018196868896,0.3087133470916748,-9.667003463439942
2026-09-11T19:05:29.053,0.23390252799998734,0.0,0.0,0.0,0.0,0.0,0.0,0.0,0.0,0.0,0.0,-0.0001544952392578125,-1.265625,-0.0556182861328125,0.0,0.0,0.0,1,1789167928.7554548,38.99028713333333,-76.93818018333333,11.657000000000004,0,1,14.44,7.628644,24.393721,1,1,1789167929.0478415,-0.792204638486067,0.6098032723530129,-0.004031447506101541,-0.023141461054180478,178.17953289841313,-1.9834569348713385,-75.14338003663048,-0.00042865286428980733,0.0005668829410477583,0.0003040363556974122,0.3483322137451172,0.3099882116127014,-9.66818026145935
2026-09-11T19:05:29.087,0.2673307200000181,0.0,0.0,0.0,0.0,0.0,0.0,0.0,0.0,0.0,0.0,-0.0001544952392578125,-1.265625,-0.0556182861328125,0.0,0.0,0.0,1,1789167928.7554548,38.99028713333333,-76.93818018333333,11.657000000000004,0,1,14.44,7.628644,24.393721,1,1,1789167929.0758417,-0.7922089739130537,0.6097969361188527,-0.004021663992952369,-0.023161704825307147,178.17699371972148,-1.9839688759137202,-75.1424492826075,-0.0009878563566287906,-0.001217890752041643,-0.00031014500807939236,0.35009741077423095,0.3083210810852051,-9.671220323009491
2026-09-11T19:05:29.120,0.3007461760000183,0.0,0.0,0.0,0.0,0.0,0.0,0.0,0.0,0.0,0.0,-0.0001544952392578125,-1.265625,-0.0556182861328125,0.0,0.0,0.0,1,1789167928.7554548,38.99028713333333,-76.93818018333333,11.657000000000004,0,1,14.44,7.628644,24.393721,1,1,1789167929.1148417,-0.792210210240334,0.6097959334439799,-0.004049177558395027,-0.02314101353121502,178.1807939642743,-1.98501925726948,-75.14232090624688,2.0245819323134223e-05,0.0011852530950293492,-0.00012618730491919004,0.3485283467483521,0.30949787910461424,-9.667199596443176
2026-09-11T19:05:29.153,0.3341622720000146,0.0,0.0,0.0,0.0,0.0,0.0,0.0,0.0,0.0,0.0,-0.0001544952392578125,-1.265625,-0.0556182861328125,0.0,0.0,0.0,1,1789167928.7554548,38.99028713333333,-76.93818018333333,11.657000000000004,0,1,14.44,7.628644,24.393721,1,1,1789167929.1478417,-0.7922135647608936,0.6097901341619505,-0.004057731894936724,-0.023177465337199988,178.17806433139395,-1.9883311329085136,-75.14145963974437,-0.0012016591899980957,0.0019153243211385773,0.0005209807817203074,0.35284327281951905,0.30910561309814455,-9.672200988025665
2026-09-11T19:05:29.186,0.3675795199999925,0.0,0.0,0.0,0.0,0.0,0.0,0.0,0.0,0.0,0.0,-0.0001544952392578125,-1.265625,-0.0556182861328125,0.0,0.0,0.0,1,1789167928.7554548,38.99028713333333,-76.93818018333333,11.657000000000004,0,1,14.44,7.628644,24.393721,1,1,1789167929.1748416,-0.7922138584610896,0.6097901658825807,-0.004077006975709608,-0.02316320507200078,178.18070710234437,-1.9890851576148512,-75.14147588313962,-0.0006421066318087139,-0.0017306684862775771,-0.00020839231268812293,0.3483322137451172,0.3072423495674133,-9.666513130931854
2026-09-11T19:05:29.220,0.4009982080000327,0.0,0.0,0.0,0.0,0.0,0.0,0.0,0.0,0.0,0.0,-0.0001544952392578125,-1.265625,-0.0556182861328125,0.0,0.0,0.0,1,1789167928.7554548,38.99028713333333,-76.93818018333333,11.657000000000004,0,1,14.44,7.628644,24.393721,1,1,1789167929.2158415,-0.7922124244987554,0.609792761144926,-0.004104347438937439,-0.02313908505432542,178.18481588686652,-1.9898884142114504,-75.14187048681072,-0.00017592918860102842,0.0013414600630828417,-0.00010175269539126941,0.3485283467483521,0.3073404160690308,-9.66896479347229
2026-09-11T19:05:29.254,0.43441337600000907,0.0,0.0,0.0,0.0,0.0,0.0,0.0,0.0,0.0,0.0,-0.0001544952392578125,-1.265625,-0.0556182861328125,0.0,0.0,0.0,1,1789167928.7554548,38.99028713333333,-76.93818018333333,11.657000000000004,0,1,14.44,7.628644,24.393721,1,1,1789167929.2478416,-0.7922218069168383,0.6097800910118684,-0.004068206655681459,-0.023158129146889136,178.18052827122384,-1.9879078266513162,-75.14002064549018,-0.0009883799554043888,0.00047193702973926673,-0.0012063715789784805,0.34735154872894286,0.30920367959976197,-9.66592473192215
2026-09-11T19:05:29.287,0.467831168000032,0.0,0.0,0.0,0.0,0.0,0.0,0.0,0.0,0.0,0.0,-0.0001544952392578125,-1.265625,-0.0556182861328125,0.0,0.0,0.0,1,1789167928.7554548,38.99028713333333,-76.93818018333333,11.657000000000004,0,1,14.44,7.628644,24.393721,1,1,1789167929.2758415,-0.7922163428593079,0.6097881116859353,-0.004114968246965578,-0.023125570035167083,178.18677451921286,-1.9898977221114489,-75.14120809327633,-0.00037262779530078936,-0.0015215780418886564,0.00016598081186466074,0.3485283467483521,0.3087133470916748,-9.665238266410828
2026-09-11T19:05:29.320,0.5012443840000174,0.0,0.0,0.0,0.0,0.0,0.0,0.0,0.0,0.0,0.0,-0.0001544952392578125,-1.265625,-0.0556182861328125,0.0,0.0,0.0,1,1789167928.7554548,38.99028713333333,-76.93818018333333,11.657000000000004,0,1,14.44,7.628644,24.393721,1,1,1789167929.3158417,-0.7922156362692576,0.6097894286535714,-0.004141267724943385,-0.023110349510053918,178.18999856974716,-1.99122561861812,-75.14141213978857,-0.00016318828506146983,0.0018940313042642466,0.0008906415172927064,0.3480380142402649,0.30949787910461424,-9.666905396938324
2026-09-11T19:05:29.354,0.5346640000000207,0.0,0.0,0.0,0.0,0.0,0.0,0.0,0.0,0.0,0.0,-0.0001544952392578125,-1.265625,-0.0556182861328125,0.0,0.0,0.0,1,1789167928.7554548,38.99028713333333,-76.93818018333333,11.657000000000004,0,1,14.44,7.628644,24.393721,1,1,1789167929.3478415,-0.7922243681046454,0.6097762419974704,-0.004145458747844178,-0.02315816159387336,178.1859129745595,-1.994918424569455,-75.13947438601488,-0.001063429113240145,0.0024520130661268335,-1.9198621771937625e-05,0.3510780757904053,0.3100862781143189,-9.671906788520813
2026-09-11T19:05:29.387,0.5680813440000065,0.0,0.0,0.0,0.0,0.0,0.0,0.0,0.0,0.0,0.0,-0.0001544952392578125,-1.265625,-0.0556182861328125,0.0,0.0,0.0,1,1789167928.7554548,38.99028713333333,-76.93818018333333,11.657000000000004,0,1,14.44,7.628644,24.393721,1,1,1789167929.3748417,-0.7922185413312498,0.6097846197231249,-0.0041819467841629765,-0.0231303186576653,178.1910138006967,-1.9963056132308272,-75.14070965171985,0.0008121017009529616,-0.0008792968771547433,0.0013760175822723293,0.35058774328231807,0.3102824111175537,-9.670435790996551
2026-09-11T19:05:29.421,0.6015037440000128,0.0,0.0,0.0,0.0,0.0,0.0,0.0,0.0,0.0,0.0,-0.0001544952392578125,-1.265625,-0.0556182861328125,0.0,0.0,0.0,1,1789167928.7554548,38.99028713333333,-76.93818018333333,11.657000000000004,0,1,14.44,7.628644,24.393721,1,1,1789167929.4158416,-0.7922167647490661,0.6097882708014395,-0.004229946769500998,-0.02308614289655725,178.19839140463748,-1.9975858688906567,-75.14127392911429,0.00043929937272697275,0.00270246781378802,-0.0003691371367968007,0.3498032112693787,0.3080268815803528,-9.667689928951264
2026-09-11T19:05:29.454,0.6350128000000268,0.0,0.0,0.0,0.0,0.0,0.0,0.0,0.0,0.0,0.0,-0.0001544952392578125,-1.265625,-0.0556182861328125,0.0,0.0,0.0,1,1789167928.7554548,38.99028713333333,-76.93818018333333,11.657000000000004,0,1,14.44,7.628644,24.393721,1,1,1789167929.4478416,-0.7922048237741871,0.6098045025141593,-0.004280128671676668,-0.023057892378136154,178.20450593992018,-2.0002060258661487,-75.14364868846413,-0.001959481151214034,0.00165596839429222,-0.0003125884690321844,0.3480380142402649,0.3090075465965271,-9.669945458488465
2026-09-11T19:05:29.488,0.6684337920000303,0.0,0.0,0.0,0.0,0.0,0.0,0.0,0.0,0.0,0.0,-0.0001544952392578125,-1.265625,-0.0556182861328125,0.0,0.0,0.0,1,1789167928.7554548,38.99028713333333,-76.93818018333333,11.657000000000004,0,1,14.44,7.628644,24.393721,1,1,1789167929.4758415,-0.7922144591739793,0.6097901357234007,-0.004205897903994679,-0.02312036922147402,178.1936053344376,-1.9977982579504778,-75.14151770698426,-0.0007829547024446561,-0.0025619688090024765,0.000765501409924713,0.3510780757904053,0.30704621656417846,-9.667199596443176
2026-09-11T19:05:29.522,0.7018587200000184,0.0,0.0,0.0,0.0,0.0,0.0,0.0,0.0,0.0,0.0,-0.0001544952392578125,-1.265625,-0.0556182861328125,0.0,0.0,0.0,1,1789167928.7554548,38.99028713333333,-76.93818018333333,11.657000000000004,0,1,14.44,7.628644,24.393721,1,1,1789167929.5158415,-0.792217279526405,0.6097870209719821,-0.004217340175628224,-0.023103790073072773,178.1959036608774,-1.9976715416418256,-75.14107968323925,-0.0010178760197630929,0.001181587903600161,-0.0003429571980168858,0.35029354377746585,0.30704621656417846,-9.669945458488465
2026-09-11T19:05:29.555,0.7352796800000192,0.0,0.0,0.0,0.0,0.0,0.0,0.0,0.0,0.0,0.0,-0.0001544952392578125,-1.265625,-0.0556182861328125,0.0,0.0,0.0,1,1789167928.7554548,38.99028713333333,-76.93818018333333,11.657000000000004,0,1,14.44,7.628644,24.393721,1,1,1789167929.5478415,-0.7922187009914848,0.609783592621038,-0.004195705731304063,-0.023149428134636534,178.19023581416477,-1.998888890975931,-75.14055082354746,-0.0016896532488557103,0.0019577358219620396,-0.00017767451785302273,0.35029354377746585,0.31047854412078857,-9.670729990501403
2026-09-11T19:05:29.588,0.7687088320000157,0.0,0.0,0.0,0.0,0.0,0.0,0.0,0.0,0.0,0.0,-0.0001544952392578125,-1.265625,-0.0556182861328125,0.0,0.0,0.0,1,1789167928.7554548,38.99028713333333,-76.93818018333333,11.657000000000004,0,1,14.44,7.628644,24.393721,1,1,1789167929.5758417,-0.7922148798177605,0.6097895210216963,-0.0041925275653543455,-0.02312459643053321,178.1922854509466,-1.9968778819117343,-75.14142396917661,8.866272600131195e-05,-0.0005852088981936986,0.001469043631403627,0.34705734922409054,0.3073404160690308,-9.671514522514343
2026-09-11T19:05:29.622,0.8021537280000075,0.0,0.0,0.0,0.0,0.0,0.0,0.0,0.0,0.0,0.0,-0.0001544952392578125,-1.265625,-0.0556182861328125,0.0,0.0,0.0,1,1789167928.7554548,38.99028713333333,-76.93818018333333,11.657000000000004,0,1,14.44,7.628644,24.393721,1,1,1789167929.6158416,-0.7922201235674027,0.6097836389928166,-0.004187719335619014,-0.023100918559518083,178.19408656729019,-1.9947725215428864,-75.1405876684396,-0.0010299187916018538,0.00024766222085799536,0.00016964600329384883,0.34656701671600343,0.30704621656417846,-9.6617078723526
2026-09-11T19:05:29.655,0.8355725440000015,0.0,0.0,0.0,0.0,0.0,0.0,0.0,0.0,0.0,0.0,-0.0001544952392578125,-1.265625,-0.0556182861328125,0.0,0.0,0.0,1,1789167928.7554548,38.99028713333333,-76.93818018333333,11.657000000000004,0,1,14.44,7.628644,24.393721,1,1,1789167929.6478417,-0.7922142277929431,0.6097912720939198,-0.004216480650560935,-0.023096386111971456,178.19652720377144,-1.9970855709555915,-75.14169928067255,-0.000819955682586936,0.0010400417012634208,4.886921905584122e-06,0.35127420879364013,0.30949787910461424,-9.668474460964202
2026-09-11T19:05:29.689,0.8690501120000249,0.0,0.0,0.0,0.0,0.0,0.0,0.0,0.0,0.0,0.0,-0.0001544952392578125,-1.265625,-0.0556182861328125,0.0,0.0,0.0,1,1789167928.7554548,38.99028713333333,-76.93818018333333,11.657000000000004,0,1,14.44,7.628644,24.393721,1,1,1789167929.6758416,-0.7922195565479184,0.6097838413090495,-0.004192942878331114,-0.023114072151364958,178.19325661501398,-1.996166954017697,-75.1406092413144,3.0543261909900765e-05,-0.0024411920247644687,-0.00035081117965086024,0.35029354377746585,0.31224374114990233,-9.677888845119476
2026-09-11T19:05:29.722,0.9024678399999857,0.0,0.0,0.0,0.0,0.0,0.0,0.0,0.0,0.0,0.0,-0.0001544952392578125,-1.265625,-0.0556182861328125,0.0,0.0,0.0,1,1789167928.7554548,38.99028713333333,-76.93818018333333,11.657000000000004,0,1,14.44,7.628644,24.393721,1,1,1789167929.7158415,-0.7922356664898903,0.6097618605922414,-0.004156776969546686,-0.02314828964810234,178.1875647062089,-1.9952235322680105,-75.13740211057534,-0.0007611380867947272,0.0018894934482090611,0.0004103269071438669,0.3498032112693787,0.30567328554153445,-9.677202379608154
2026-09-11T19:05:29.755,0.9358893120000289,0.0,0.0,0.0,0.0,0.0,0.0,0.0,0.0,0.0,0.0,-0.0001544952392578125,-1.265625,-0.0556182861328125,0.0,0.0,0.0,1,1789167928.7554548,38.99028713333333,-76.93818018333333,11.657000000000004,0,1,14.44,7.628644,24.393721,1,1,1789167929.7478416,-0.7922547084202313,0.6097343881225842,-0.0040810111589473065,-0.02323355923384904,178.17445260134568,-1.9942385011603396,-75.13336272762992,-0.0013590878885279844,0.001789835147920185,0.000300720230118623,0.34931287876129147,0.3099882116127014,-9.66818026145935
2026-09-11T19:05:29.789,0.9693142080000143,0.0,0.0,0.0,0.0,0.0,0.0,0.0,0.0,0.0,0.0,-0.0001544952392578125,-1.265625,-0.0556182861328125,0.0,0.0,0.0,1,1789167929.7567537,38.99028734,-76.938180075,11.613,0,1,14.44,7.628644,24.393721,1,1,1789167929.7758415,-0.7922525621034737,0.6097380409721865,-0.004131254024106283,-0.023201982072008073,178.18084176665093,-1.9966036557157096,-75.13391825441951,0.00034522612604447837,-0.0006670648401122327,-0.00015219271077390555,0.3498032112693787,0.31047854412078857,-9.669455125980377
2026-09-11T19:05:29.822,1.0027356159999954,0.0,0.0,0.0,0.0,0.0,0.0,0.0,0.0,0.0,0.0,-0.0001544952392578125,-1.265625,-0.0556182861328125,0.0,0.0,0.0,1,1789167929.7567537,38.99028734,-76.938180075,11.613,0,1,14.44,7.628644,24.393721,1,1,1789167929.8158417,-0.7922537467834926,0.6097369812770741,-0.004149841104653455,-0.023186055926896,178.18358508484712,-1.9971764149347495,-75.13377790857527,-0.001202531854624093,0.001989849880198735,8.429940287132612e-05,0.3490186792564392,0.3083210810852051,-9.670926123504639
2026-09-11T19:05:29.855,1.0361597120000283,0.0,0.0,0.0,0.0,0.0,0.0,0.0,0.0,0.0,0.0,-0.0001544952392578125,-1.265625,-0.0556182861328125,0.0,0.0,0.0,1,1789167929.7567537,38.99028734,-76.938180075,11.613,0,1,14.44,7.628644,24.393721,1,1,1789167929.8478415,-0.792269626779781,0.6097145745764835,-0.004109869947923487,-0.023239728919572253,178.17585802757455,-1.997245630052047,-75.13049658574289,-0.0019137535248117824,0.00195459422930845,-0.0009871582249279928,0.351470341796875,0.31224374114990233,-9.673377786045075
2026-09-11T19:05:29.889,1.0695919679999975,0.0,0.0,0.0,0.0,0.0,0.0,0.0,0.0,0.0,0.0,-0.0001544952392578125,-1.265625,-0.0556182861328125,0.0,0.0,0.0,1,1789167929.7567537,38.99028734,-76.938180075,11.613,0,1,14.44,7.628644,24.393721,1,1,1789167929.8758416,-0.7922629971716538,0.6097246457743412,-0.0041655594551930335,-0.02319154506209487,178.18415319133683,-1.9989596619633438,-75.13199234672928,0.0005351179486614614,-0.001336398608252058,0.0001884955592153876,0.350783876285553,0.3080268815803528,-9.671220323009491
2026-09-11T19:05:29.923,1.103023520000022,0.0,0.0,0.0,0.0,0.0,0.0,0.0,0.0,0.0,0.0,-0.0001544952392578125,-1.265625,-0.0556182861328125,0.0,0.0,0.0,1,1789167929.7567537,38.99028734,-76.938180075,11.613,0,1,14.44,7.628644,24.393721,1,1,1789167929.9158416,-0.7922526860410003,0.609739369488418,-0.004208891107429816,-0.02314882269862989,178.19110043458934,-1.9999432988486634,-75.13415633445351,-0.00048764499300721565,0.0009105382707654418,0.0007684684696531033,0.34999934427261353,0.310576610622406,-9.67739851261139
2026-09-11T19:05:29.956,1.1364422080000054,0.0,0.0,0.0,0.0,0.0,0.0,0.0,0.0,0.0,0.0,-0.0001544952392578125,-1.265625,-0.0556182861328125,0.0,0.0,0.0,1,1789167929.7567537,38.99028734,-76.938180075,11.613,0,1,14.44,7.628644,24.393721,1,1,1789167929.9478416,-0.7922580624992775,0.6097317891574077,-0.004205408906342074,-0.023165108066400784,178.18935791246108,-2.0007479993965425,-75.13304876003271,-0.0012418017627939656,0.001081929603311285,-0.000715934059168074,0.3510780757904053,0.30979207860946656,-9.66670926393509
2026-09-11T19:05:29.989,1.169860672000027,0.0,0.0,0.0,0.0,0.0,0.0,0.0,0.0,0.0,0.0,-0.0001544952392578125,-1.265625,-0.0556182861328125,0.0,0.0,0.0,1,1789167929.7567537,38.99028734,-76.938180075,11.613,0,1,14.44,7.628644,24.393721,1,1,1789167929.9758415,-0.7922541193692687,0.6097381798793539,-0.004254841695339126,-0.023122687170498916,178.19668299176502,-2.0022878060814135,-75.13400862771321,0.0013041100170901629,-0.0014966198335851378,-3.420845333908886e-05,0.3458805512046814,0.3067520170593262,-9.659746542320251
2026-09-11T19:05:30.023,1.203281056000037,0.0,0.0,0.0,0.0,0.0,0.0,0.0,0.0,0.0,0.0,-0.0001544952392578125,-1.265625,-0.0556182861328125,0.0,0.0,0.0,1,1789167929.7567537,38.99028734,-76.938180075,11.613,0,1,14.44,7.628644,24.393721,1,1,1789167930.0158415,-0.7922574607955448,0.6097334564413642,-0.004214957986661261,-0.023140052701616967,178.1923064225629,-1.9998678959160734,-75.13330766211428,-0.001520181778487061,0.0016351989761934872,-0.0006859143960337716,0.3491167457580566,0.3073404160690308,-9.667689928951264
2026-09-11T19:05:30.056,1.2367007999999942,0.0,0.0,0.0,0.0,0.0,0.0,0.0,0.0,0.0,0.0,-0.0001544952392578125,-1.265625,-0.0556182861328125,0.0,0.0,0.0,1,1789167929.7567537,38.99028734,-76.938180075,11.613,0,1,14.44,7.628644,24.393721,1,1,1789167930.0478415,-0.7922522866840408,0.6097406878838327,-0.0042537663844145505,-0.02311954269457004,178.19689999258583,-2.001976036901394,-75.13437326711735,-0.0016074482410867775,0.00018029251173101425,-0.00048677232838121855,0.3485283467483521,0.3090075465965271,-9.669160926475525
2026-09-11T19:05:30.089,1.270119520000037,0.0,0.0,0.0,0.0,0.0,0.0,0.0,0.0,0.0,0.0,-0.0001544952392578125,-1.265625,-0.0556182861328125,0.0,0.0,0.0,1,1789167929.7567537,38.99028734,-76.938180075,11.613,0,1,14.44,7.628644,24.393721,1,1,1789167930.0758417,-0.7922482999621544,0.6097469479570311,-0.004270906270246006,-0.02308787612129458,178.20099127195905,-2.0013337283247523,-75.13530220448558,0.0006387905062299246,-0.00182526533173567,0.00035657076618244156,0.34735154872894286,0.30920367959976197,-9.663669202384948
2026-09-11T19:05:30.123,1.3035396160000232,0.0,0.0,0.0,0.0,0.0,0.0,0.0,0.0,0.0,0.0,-0.0001544952392578125,-1.265625,-0.0556182861328125,0.0,0.0,0.0,1,1789167929.7567537,38.99028734,-76.938180075,11.613,0,1,14.44,7.628644,24.393721,1,1,1789167930.1158416,-0.7922432692045229,0.6097543946877926,-0.004259294399452375,-0.02306596996166246,178.2021897447539,-1.9987645834370866,-75.13639159133834,-0.0017254324985215943,0.001198517597344506,-0.0007133160652900824,0.34784188123703,0.3077326820755005,-9.662982736873627
2026-09-11T19:05:30.157,1.3369715520000227,0.0,0.0,0.0,0.0,0.0,0.0,0.0,0.0,0.0,0.0,-0.0001544952392578125,-1.265625,-0.0556182861328125,0.0,0.0,0.0,1,1789167929.7567537,38.99028734,-76.938180075,11.613,0,1,14.44,7.628644,24.393721,1,1,1789167930.1478417,-0.7922504254776347,0.6097433402730742,-0.004204884249654583,-0.023122311121249257,178.19324003628887,-1.9977352326603808,-75.13474724170538,-0.0019373154697137059,0.0013004448256609751,0.0009737191896876364,0.3485283467483521,0.30685008356094357,-9.667984128456116
2026-09-11T19:05:30.190,1.3703908800000022,0.0,0.0,0.0,0.0,0.0,0.0,0.0,0.0,0.0,0.0,-0.0001544952392578125,-1.265625,-0.0556182861328125,0.0,0.0,0.0,1,1789167929.7567537,38.99028734,-76.938180075,11.613,0,1,14.44,7.628644,24.393721,1,1,1789167930.1878417,-0.7922443886702925,0.6097521682146049,-0.004246507865913786,-0.023088723415722507,178.19922287955654,-1.9991885231884137,-75.136052655494,0.000890117918517108,0.0003611086222376268,-0.00022689280275926284,0.34950901176452637,0.3093017461013794,-9.668474460964202
2026-09-11T19:05:30.223,1.4038094400000318,0.0,0.0,0.0,0.0,0.0,0.0,0.0,0.0,0.0,0.0,-0.0001544952392578125,-1.265625,-0.0556182861328125,0.0,0.0,0.0,1,1789167929.7567537,38.99028734,-76.938180075,11.613,0,1,14.44,7.628644,24.393721,1,1,1789167930.2158415,-0.7922478429000989,0.6097469777264161,-0.0042192626229118815,-0.023112256414308828,178.1951675478297,-1.9983467963112873,-75.13528217835488,-0.0008976228343006836,0.0016980308292652833,0.00016720254234105678,0.3498032112693787,0.30635975105285645,-9.666513130931854
2026-09-11T19:05:30.257,1.4372223679999934,0.0,0.0,0.0,0.0,0.0,0.0,0.0,0.0,0.0,0.0,-0.0001544952392578125,-1.265625,-0.0556182861328125,0.0,0.0,0.0,1,1789167929.7567537,38.99028734,-76.938180075,11.613,0,1,14.44,7.628644,24.393721,1,1,1789167930.2478416,-0.7922418755459337,0.6097547381034186,-0.004227051633857377,-0.023110647467717637,178.19587752168988,-1.9989595348843991,-75.13640700782153,-0.0008117526351025627,-0.00014468779499032992,0.0009517280411125079,0.3485283467483521,0.30704621656417846,-9.667984128456116
2026-09-11T19:05:30.290,1.470639712000036,0.0,0.0,0.0,0.0,0.0,0.0,0.0,0.0,0.0,0.0,-0.0001544952392578125,-1.265625,-0.0556182861328125,0.0,0.0,0.0,1,1789167929.7567537,38.99028734,-76.938180075,11.613,0,1,14.44,7.628644,24.393721,1,1,1789167930.2878416,-0.7922347176762956,0.6097639258289348,-0.004209176689094711,-0.023116870412006055,178.194086302772,-1.9977917615128704,-75.13772913879053,0.0005368632779134558,-8.185594191853405e-05,0.0012999212268853767,0.34931287876129147,0.30949787910461424,-9.671220323009491
2026-09-11T19:05:30.323,1.5040573759999916,0.0,0.0,0.0,0.0,0.0,0.0,0.0,0.0,0.0,0.0,-0.0001544952392578125,-1.265625,-0.0556182861328125,0.0,0.0,0.0,1,1789167929.7567537,38.99028734,-76.938180075,11.613,0,1,14.44,7.628644,24.393721,1,1,1789167930.3158417,-0.7922071477004115,0.6098020367812597,-0.004293390553213448,-0.02304078703872115,178.20698085028067,-2.0002092798001923,-75.14330540832756,-0.0016453218858550546,0.00200363798128949,-0.0003085742117525975,0.34705734922409054,0.3116553421401978,-9.663669202384948
2026-09-11T19:05:30.357,1.537480319999986,0.0,0.0,0.0,0.0,0.0,0.0,0.0,0.0,0.0,0.0,-0.0001544952392578125,-1.265625,-0.0556182861328125,0.0,0.0,0.0,1,1789167929.7567537,38.99028734,-76.938180075,11.613,0,1,14.44,7.628644,24.393721,1,1,1789167930.3478415,-0.792194484917277,0.6098187589748744,-0.004319959327030635,-0.023028617422831903,178.20998543484015,-2.0018096447091924,-75.14573708045815,-0.0005916666164260777,0.0011184069846779663,0.0014718361582068181,0.3491167457580566,0.3060655515480042,-9.669258992977143
2026-09-11T19:05:30.390,1.5709059520000324,0.0,0.0,0.0,0.0,0.0,0.0,0.0,0.0,0.0,0.0,-0.0001544952392578125,-1.265625,-0.0556182861328125,0.0,0.0,0.0,1,1789167929.7567537,38.99028734,-76.938180075,11.613,0,1,14.44,7.628644,24.393721,1,1,1789167930.387823,-0.7921965099633591,0.609815500798629,-0.004258968095252277,-0.023056577767615355,178.20317465629623,-1.9982169963478797,-75.14523689250233,0.0007250097712784445,-0.0006246533392887706,0.0007887142889762375,0.3485283467483521,0.30783074857711795,-9.671710655517579
2026-09-11T19:05:30.424,1.6043256639999868,0.0,0.0,0.0,0.0,0.0,0.0,0.0,0.0,0.0,0.0,-0.0001544952392578125,-1.265625,-0.0556182861328125,0.0,0.0,0.0,1,1789167929.7567537,38.99028734,-76.938180075,11.613,0,1,14.44,7.628644,24.393721,1,1,1789167930.4158232,-0.7922081282225868,0.6097995034632037,-0.004194676559240801,-0.023092246375334757,178.1954007344825,-1.9948343841802059,-75.14288922617457,-0.0010046115174479362,0.0007038912873293131,-0.0006778858814745976,0.3525490733146668,0.30812494808197016,-9.671220323009491
2026-09-11T19:05:30.457,1.63774313600004,0.0,0.0,0.0,0.0,0.0,0.0,0.0,0.0,0.0,0.0,-0.0001544952392578125,-1.265625,-0.0556182861328125,0.0,0.0,0.0,1,1789167929.7567537,38.99028734,-76.938180075,11.613,0,1,14.44,7.628644,24.393721,1,1,1789167930.447823,-0.7922166777271318,0.6097880617773063,-0.004147761313707514,-0.023109550427188656,178.19052144841763,-1.9917564732028985,-75.14121587416155,-0.0018465583486100008,-0.0009557422983920949,-0.0007424630637983879,0.3496070782661438,0.3080268815803528,-9.667493795948028
2026-09-11T19:05:30.490,1.6711617280000155,0.0,0.0,0.0,0.0,0.0,0.0,0.0,0.0,0.0,0.0,-0.0001544952392578125,-1.265625,-0.0556182861328125,0.0,0.0,0.0,1,1789167929.7567537,38.99028734,-76.938180075,11.613,0,1,14.44,7.628644,24.393721,1,1,1789167930.4878232,-0.7922112750496467,0.6097968186867999,-0.00420840997060492,-0.023052654710261158,178.19995161066996,-1.9933080278439033,-75.14252858853143,0.00019233528356977513,0.001015432558810301,-0.0005667084081225588,0.3462728172111511,0.3090075465965271,-9.671416456012727
2026-09-11T19:05:30.524,1.704579200000012,0.0,0.0,0.0,0.0,0.0,0.0,0.0,0.0,0.0,0.0,-0.0001544952392578125,-1.265625,-0.0556182861328125,0.0,0.0,0.0,1,1789167929.7567537,38.99028734,-76.938180075,11.613,0,1,14.44,7.628644,24.393721,1,1,1789167930.5158231,-0.7921997240492196,0.6098133852009138,-0.004285495405902199,-0.02299710797618425,178.21042734581525,-1.9964643265992852,-75.14497390872845,-0.0009714502616600439,0.0015474089148181727,-0.0010822786691616838,0.34931287876129147,0.3088114135932922,-9.670239657993317
2026-09-11T19:05:30.558,1.7379931520000014,0.0,0.0,0.0,0.0,0.0,0.0,0.0,0.0,0.0,0.0,-0.0001544952392578125,-1.265625,-0.0556182861328125,0.0,0.0,0.0,1,1789167929.7567537,38.99028734,-76.938180075,11.613,0,1,14.44,7.628644,24.393721,1,1,1789167930.5478232,-0.7922055389805241,0.6098049433306267,-0.0042501850167580854,-0.023027180145027235,178.20520598992186,-1.9953401720636395,-75.14372718746095,-0.0007550294344127469,0.0008799950088555409,0.00026511551337793864,0.34784188123703,0.3083210810852051,-9.669945458488465
2026-09-11T19:05:30.591,1.7714126079999915,0.0,0.0,0.0,0.0,0.0,0.0,0.0,0.0,0.0,0.0,-0.0001544952392578125,-1.265625,-0.0556182861328125,0.0,0.0,0.0,1,1789167929.7567537,38.99028734,-76.938180075,11.613,0,1,14.44,7.628644,24.393721,1,1,1789167930.5878232,-0.7922114480873291,0.609796517018195,-0.004226068597076354,-0.023051457569273674,178.2012934402002,-1.9948276446237463,-75.14248857666968,0.0006955137069197402,0.0005803219762881147,-4.8345620280242926e-05,0.34735154872894286,0.3080268815803528,-9.667493795948028
2026-09-11T19:05:30.624,1.8049647039999854,0.0,0.0,0.0,0.0,0.0,0.0,0.0,0.0,0.0,0.0,-0.0001544952392578125,-1.265625,-0.0556182861328125,0.0,0.0,0.0,1,1789167929.7567537,38.99028734,-76.938180075,11.613,0,1,14.44,7.628644,24.393721,1,1,1789167930.6158233,-0.79220398864763,0.6098068814892755,-0.004269218579542599,-0.0230256689768226,178.20667808905,-1.9969677851809176,-75.14401178508926,-0.0007817329719682603,0.0021186551789959167,-4.60766922526503e-05,0.3517645413017273,0.30861528059005733,-9.674456517562867
2026-09-11T19:05:30.657,1.8383817600000043,0.0,0.0,0.0,0.0,0.0,0.0,0.0,0.0,0.0,0.0,-0.0001544952392578125,-1.265625,-0.0556182861328125,0.0,0.0,0.0,1,1789167929.7567537,38.99028734,-76.938180075,11.613,0,1,14.44,7.628644,24.393721,1,1,1789167930.647823,-0.7922062522477563,0.6098033495550542,-0.004242697616594138,-0.02304622068657992,178.20294843742505,-1.9959875202439081,-75.14348307623736,-0.0011981685314941073,-0.0006279694648675597,4.852015320544236e-05,0.34931287876129147,0.30704621656417846,-9.667199596443176
2026-09-11T19:05:30.691,1.8717978880000032,0.0,0.0,0.0,0.0,0.0,0.0,0.0,0.0,0.0,0.0,-0.0001544952392578125,-1.265625,-0.0556182861328125,0.0,0.0,0.0,1,1789167929.7567537,38.99028734,-76.938180075,11.613,0,1,14.44,7.628644,24.393721,1,1,1789167930.687823,-0.7922042464929133,0.6098060023597489,-0.004256781301460377,-0.023042376994766293,178.20428846408433,-1.9970040918888536,-75.14387167901378,0.0012913691135506044,0.0005476843192758206,8.115781021773632e-05,0.350783876285553,0.30851721408843996,-9.670729990501403
2026-09-11T19:05:30.724,1.9052326400000084,0.0,0.0,0.0,0.0,0.0,0.0,0.0,0.0,0.0,0.0,-0.0001544952392578125,-1.265625,-0.0556182861328125,0.0,0.0,0.0,1,1789167929.7567537,38.99028734,-76.938180075,11.613,0,1,14.44,7.628644,24.393721,1,1,1789167930.7158232,-0.7921995644270963,0.6098119551434797,-0.004264730051091364,-0.023044339070515642,178.20468054527544,-1.9978767474289212,-75.14473288318729,-0.0012091641057816714,0.001455604596163271,0.00040526545231308334,0.3496070782661438,0.3083210810852051,-9.669945458488465
2026-09-11T19:05:30.758,1.9386500479999995,0.0,0.0,0.0,0.0,0.0,0.0,0.0,0.0,0.0,0.0,-0.0001544952392578125,-1.265625,-0.0556182861328125,0.0,0.0,0.0,1,1789167930.7568183,38.990287503333334,-76.93818,11.573,0,1,14.44,7.628644,24.393721,1,1,1789167930.7478232,-0.7922071979217534,0.6098014555685451,-0.00421714021497372,-0.023068508314463623,178.19913248515658,-1.9952198221370756,-75.14319050590159,-0.0016447982870794562,-0.0008557349322528197,-0.00036948620264719956,0.34705734922409054,0.3088114135932922,-9.672200988025665
2026-09-11T19:05:30.792,1.9720678400000224,0.0,0.0,0.0,0.0,0.0,0.0,0.0,0.0,0.0,0.0,-0.0001544952392578125,-1.265625,-0.0556182861328125,0.0,0.0,0.0,1,1789167930.7568183,38.990287503333334,-76.93818,11.573,0,1,14.44,7.628644,24.393721,1,1,1789167930.786823,-0.7922141726020038,0.6097921295421579,-0.004223208143981881,-0.02307440118259858,178.1989974096967,-1.996161740157977,-75.14183861292327,0.0002155481626212997,0.0010564477962321677,-0.00043476151667178753,0.34931287876129147,0.3088114135932922,-9.671416456012727
2026-09-11T19:05:30.825,2.005494655999996,0.0,0.0,0.0,0.0,0.0,0.0,0.0,0.0,0.0,0.0,-0.0001544952392578125,-1.265625,-0.0556182861328125,0.0,0.0,0.0,1,1789167930.7568183,38.990287503333334,-76.93818,11.573,0,1,14.44,7.628644,24.393721,1,1,1789167930.815823,-0.7922111805051528,0.6097953182665482,-0.004206232622459204,-0.023095950076959762,178.1958610117434,-1.9961334370429107,-75.14228323355408,-0.0018608700484763544,0.0009079202768874501,-0.0003886848244191372,0.3510780757904053,0.3088114135932922,-9.664453734397888
2026-09-11T19:05:30.858,2.038912000000039,0.0,0.0,0.0,0.0,0.0,0.0,0.0,0.0,0.0,0.0,-0.0001544952392578125,-1.265625,-0.0556182861328125,0.0,0.0,0.0,1,1789167930.7568183,38.990287503333334,-76.93818,11.573,0,1,14.44,7.628644,24.393721,1,1,1789167930.8478231,-0.7922131850639186,0.609793322146707,-0.004193312578429861,-0.02308224005124766,178.1961992513852,-1.9939969136511935,-75.14200131228594,-0.0013838715639063039,-0.0011236429724339496,-0.00035185837720205684,0.3468612162208557,0.30626168455123903,-9.664944066905976
2026-09-11T19:05:30.891,2.0723310399999946,0.0,0.0,0.0,0.0,0.0,0.0,0.0,0.0,0.0,0.0,-0.0001544952392578125,-1.265625,-0.0556182861328125,0.0,0.0,0.0,1,1789167930.7568183,38.990287503333334,-76.93818,11.573,0,1,14.44,7.628644,24.393721,1,1,1789167930.887823,-0.7922016538166744,0.6098102423443541,-0.004268369105503905,-0.023017146808960512,178.2074016911193,-1.996302470381827,-75.14450332121672,0.000613134166225608,0.0010723302924253162,-0.00039165188414752757,0.3485283467483521,0.31047854412078857,-9.671220323009491
2026-09-11T19:05:30.925,2.105745280000008,0.0,0.0,0.0,0.0,0.0,0.0,0.0,0.0,0.0,0.0,-0.0001544952392578125,-1.265625,-0.0556182861328125,0.0,0.0,0.0,1,1789167930.7568183,38.990287503333334,-76.93818,11.573,0,1,14.44,7.628644,24.393721,1,1,1789167930.9158232,-0.7922001202474039,0.6098113506963793,-0.004247464990443283,-0.023044415440861027,178.20346575424853,-1.996312496816894,-75.14464246642314,-0.002143264321449037,0.0011503465099894626,-0.00020978857608971841,0.34735154872894286,0.31018434461593625,-9.663669202384948
2026-09-11T19:05:30.958,2.139163231999987,0.0,0.0,0.0,0.0,0.0,0.0,0.0,0.0,0.0,0.0,-0.0001544952392578125,-1.265625,-0.0556182861328125,0.0,0.0,0.0,1,1789167930.7568183,38.990287503333334,-76.93818,11.573,0,1,14.44,7.628644,24.393721,1,1,1789167930.947823,-0.792196567878325,0.6098162293255631,-0.004232994425371123,-0.023040096595915688,178.20285945707408,-1.9947072532928438,-75.14534858080071,-0.0011110766018195902,-0.001166229006182611,0.001638689634697476,0.350783876285553,0.3073404160690308,-9.671710655517579
2026-09-11T19:05:30.992,2.172579264000035,0.0,0.0,0.0,0.0,0.0,0.0,0.0,0.0,0.0,0.0,-0.0001544952392578125,-1.265625,-0.0556182861328125,0.0,0.0,0.0,1,1789167930.7568183,38.990287503333334,-76.93818,11.573,0,1,14.44,7.628644,24.393721,1,1,1789167930.9878232,-0.7921872396189668,0.6098289547665433,-0.004260455037830513,-0.023018945156054224,178.2067324336273,-1.9957516890100904,-75.14720772224382,0.0007023204910025181,0.0010430087609918114,-8.587019919812101e-05,0.34607668420791626,0.30783074857711795,-9.673181653041839
2026-09-11T19:05:31.025,2.2059953280000286,0.0,0.0,0.0,0.0,0.0,0.0,0.0,0.0,0.0,0.0,-0.0001544952392578125,-1.265625,-0.0556182861328125,0.0,0.0,0.0,1,1789167930.7568183,38.990287503333334,-76.93818,11.573,0,1,14.44,7.628644,24.393721,1,1,1789167931.0158231,-0.7921837841778344,0.609832849049463,-0.004242524758203843,-0.023037996648524607,178.20375805467992,-1.9954637829771515,-75.14775572868732,-0.0008684758357923784,0.0006607816548050531,0.0003061307507998054,0.35137227529525755,0.30655588405609135,-9.66818026145935
2026-09-11T19:05:31.058,2.2394101760000353,0.0,0.0,0.0,0.0,0.0,0.0,0.0,0.0,0.0,0.0,-0.0001544952392578125,-1.265625,-0.0556182861328125,0.0,0.0,0.0,1,1789167930.7568183,38.990287503333334,-76.93818,11.573,0,1,14.44,7.628644,24.393721,1,1,1789167931.0468233,-0.792183053291431,0.6098329376466685,-0.004229721282587629,-0.023063124180647456,178.20058014421326,-1.9960577092614236,-75.14775019102206,-0.001073901088752111,-0.0012041026509508879,0.00017174039839624203,0.3510780757904053,0.3090075465965271,-9.66474793390274
2026-09-11T19:05:31.092,2.2728267520000145,0.0,0.0,0.0,0.0,0.0,0.0,0.0,0.0,0.0,0.0,-0.0001544952392578125,-1.265625,-0.0556182861328125,0.0,0.0,0.0,1,1789167930.7568183,38.990287503333334,-76.93818,11.573,0,1,14.44,7.628644,24.393721,1,1,1789167931.0878232,-0.7921863940853084,0.6098273372975528,-0.004189156512855499,-0.02310382389138716,178.19403298203835,-1.9952057665643694,-75.14690728411794,0.00018081611050661253,0.0016491616102094421,-0.0003391174736624982,0.350783876285553,0.3060655515480042,-9.672691320533753
2026-09-11T19:05:31.126,2.3062480959999903,0.0,0.0,0.0,0.0,0.0,0.0,0.0,0.0,0.0,0.0,-0.0001544952392578125,-1.265625,-0.0556182861328125,0.0,0.0,0.0,1,1789167930.7568183,38.990287503333334,-76.93818,11.573,0,1,14.44,7.628644,24.393721,1,1,1789167931.1158233,-0.792183016493526,0.6098332058765333,-0.004207509517277187,-0.023061358442856467,178.19918927547266,-1.9939173819514142,-75.1477865390337,-0.0008464846872172499,-0.0006262241356155655,-0.0002804744107954888,0.35009741077423095,0.30783074857711795,-9.668474460964202
