timestamp,time_s,drive_pos_turns,drive_encoder_count,drive_wheel_angle_deg,drive_distance_m,drive_distance_since_start_m,drive_velocity_turns_s,drive_velocity_mps,drive_velocity_mph,drive_acceleration_mps2,drive_iq_A,steer_pos_turns,steer_encoder_count,steer_angle_deg,steer_velocity_turns_s,steer_velocity_deg_s,steer_acceleration_deg_s2,gps_received,gps_ros_stamp_s,gps_latitude_deg,gps_longitude_deg,gps_altitude_m,gps_status,gps_service,gps_cov_x_m2,gps_cov_y_m2,gps_cov_z_m2,gps_covariance_type,imu_received,imu_ros_stamp_s,imu_qx,imu_qy,imu_qz,imu_qw,imu_roll_deg,imu_pitch_deg,imu_yaw_deg,imu_gyro_x_rad_s,imu_gyro_y_rad_s,imu_gyro_z_rad_s,imu_accel_x_mps2,imu_accel_y_mps2,imu_accel_z_mps2
2026-09-11T19:06:07.675,6.687999984933413e-06,-2.2393276691436768,-201.5394902229309,-806.1579608917236,-1.5339394533634187,7.839202880859376e-06,-0.20805099606513977,-0.14251493230462076,-0.31879682423188216,8.11139758787903,0.0,-0.1621417999267578,-1328.265625,-58.37104797363281,0.0,0.0,0.0,0,nan,nan,nan,nan,-999,-999,nan,nan,nan,-999,1,1789167967.6638422,-0.8959450447496626,0.4433635031523607,-0.013441662172433515,-0.02303481232903363,178.3160699780712,-2.551168084419989,-52.62003853351045,-0.0007859217621730467,0.008452804100333737,-0.010002656476104703,0.09228057802200318,0.8107157688713074,-9.618068279132844
2026-09-11T19:06:07.708,0.033411039999975856,-2.2392194271087646,-201.52974843978882,-806.1189937591553,-1.533865307569504,8.19849967956543e-05,-0.027636848390102386,-0.018931241147220137,-0.042347980375850296,3.6996284543233826,0.0,-0.161956787109375,-1326.75,-58.304443359375,0.0,0.0,0.0,0,nan,nan,nan,nan,-999,-999,nan,nan,nan,-999,1,1789167967.7038424,-0.8946319973884469,0.4459533884747843,-0.013657846306009394,-0.023929642515039106,178.24263045440077,-2.62394671747673,-52.95013928518574,1.9896753472735356e-05,0.022892785666708822,-0.00184062422915322,0.2060377198982239,0.8094409043502808,-9.685538032245637
2026-09-11T19:06:07.743,0.0668174399999657,-2.239201307296753,-201.52811765670776,-806.112470626831,-1.533852895498276,9.439706802368164e-05,0.0,0.0,0.0,0.5666950388915265,0.0,-0.161834716796875,-1325.75,-58.260498046875,0.0,0.0,0.0,0,nan,nan,nan,nan,-999,-999,nan,nan,nan,-999,1,1789167967.7358422,-0.8935914805497605,0.44802221400644626,-0.013981596133974197,-0.023976584727509638,178.2605074854643,-2.663594772806304,-53.21541320178721,-0.0016135568934687577,0.03303454488419747,-0.0017205455766160101,0.17122411182403563,0.7631535155868531,-9.658471677799225
2026-09-11T19:06:07.775,0.10021926399997483,-2.239201307296753,-201.52811765670776,-806.112470626831,-1.533852895498276,9.439706802368164e-05,0.0,0.0,0.0,0.0,0.0,-0.16168212890625,-1324.5,-58.20556640625,0.015258789993822575,5.493164397776127,164.4570188075545,0,nan,nan,nan,nan,-999,-999,nan,nan,nan,-999,1,1789167967.7638423,-0.8926755776149621,0.4498490262235988,-0.014354119950893557,-0.02366698070961288,178.31687508455477,-2.6893214587264724,-53.45061003393616,-0.0031958723933268166,0.028988697145149418,0.0037428585809018396,0.19789820026397706,0.7331451660919189,-9.692402687358856
2026-09-11T19:06:07.809,0.13361999999995078,-2.239201307296753,-201.52811765670776,-806.112470626831,-1.533852895498276,9.439706802368164e-05,0.0,0.0,0.0,0.0,0.0,-0.161346435546875,-1321.75,-58.084716796875,0.0,0.0,-164.46237585243875,0,nan,nan,nan,nan,-999,-999,nan,nan,nan,-999,1,1789167967.8048422,-0.8913831121627673,0.4522992830484055,-0.014675014154633176,-0.02541947805283628,178.1615916687066,-2.817597950214148,-53.762433201163724,0.0015067427432467048,0.012997641472526971,0.009183224392293363,0.28301992366790774,0.927414905796051,-9.652979953708648
2026-09-11T19:06:07.842,0.16702646400000276,-2.239201307296753,-201.52811765670776,-806.112470626831,-1.533852895498276,9.439706802368164e-05,0.0,0.0,0.0,0.0,0.0,-0.161102294921875,-1319.75,-57.996826171875,0.0,0.0,0.0,1,1789167967.82939,38.99028868,-76.94090688333333,-9.178999999999998,0,1,13.483584,6.395841,53.34841600000001,1,1,1789167967.8358424,-0.8905503533290915,0.45380516982007746,-0.01436612023421146,-0.02783074953027693,177.90377633246243,-2.914574342042851,-53.951477671444806,0.0012164944886400477,0.012758880430854146,0.00922441416264043,0.3067520170593262,1.0697093996429443,-9.648370828132629
2026-09-11T19:06:07.876,0.20042959999994991,-2.239201307296753,-201.52811765670776,-806.112470626831,-1.533852895498276,9.439706802368164e-05,0.0,0.0,0.0,0.0,0.0,-0.160980224609375,-1318.75,-57.952880859375,0.0,0.0,0.0,1,1789167967.82939,38.99028868,-76.94090688333333,-9.178999999999998,0,1,13.483584,6.395841,53.34841600000001,1,1,1789167967.8628423,-0.8899066584653584,0.45493440715776273,-0.014002766241672623,-0.030079011629636766,177.65880271064793,-2.9973784651277726,-54.092416838721235,-0.0013816026358787112,0.009900031116087435,0.005316971033275526,0.310576610622406,1.1331584261894225,-9.615028217582703
2026-09-11T19:06:07.910,0.2338512959999548,-2.239201307296753,-201.52811765670776,-806.112470626831,-1.533852895498276,9.439706802368164e-05,0.0,0.0,0.0,0.0,0.0,-0.160858154296875,-1317.75,-57.908935546875,0.0,0.0,0.0,1,1789167967.82939,38.99028868,-76.94090688333333,-9.178999999999998,0,1,13.483584,6.395841,53.34841600000001,1,1,1789167967.9028423,-0.888798030797282,0.456895737457398,-0.01374415710808525,-0.033097487661793774,177.34373336272537,-3.1342533165483313,-54.3391049363856,-0.000819955682586936,0.012051149419170447,0.005192005458832732,0.3261691843795776,1.102561677684784,-9.652097355194092
2026-09-11T19:06:07.943,0.2672719999999913,-2.239201307296753,-201.52811765670776,-806.112470626831,-1.533852895498276,9.439706802368164e-05,0.0,0.0,0.0,0.0,0.0,-0.160858154296875,-1317.75,-57.908935546875,0.0,0.0,0.0,1,1789167967.82939,38.99028868,-76.94090688333333,-9.178999999999998,0,1,13.483584,6.395841,53.34841600000001,1,1,1789167967.9358423,-0.8877286920195926,0.45883587475286775,-0.013655344677571039,-0.03494196569586205,177.15779335553373,-3.228017722109549,-54.585616347319196,-0.00041835542170304084,0.00965201982937904,-0.0006853907972581732,0.3030254899978638,1.093049227027893,-9.663865335388184
2026-09-11T19:06:07.975,0.3006734719999713,-2.239201307296753,-201.52811765670776,-806.112470626831,-1.533852895498276,9.439706802368164e-05,0.0,0.0,0.0,0.0,0.0,-0.160858154296875,-1317.75,-57.908935546875,0.0,0.0,0.0,1,1789167967.82939,38.99028868,-76.94090688333333,-9.178999999999998,0,1,13.483584,6.395841,53.34841600000001,1,1,1789167967.9638424,-0.8867464085988754,0.46065876186701443,-0.013361453532782896,-0.0359969930916043,177.0414340325517,-3.2596593116005823,-54.818942669969076,0.0001319468914507713,0.0002790781473938933,0.001155407964820246,0.30076996046066284,1.1022674781799315,-9.641800372524262
2026-09-11T19:06:08.008,0.3340747199999896,-2.239201307296753,-201.52811765670776,-806.112470626831,-1.533852895498276,9.439706802368164e-05,0.0,0.0,0.0,0.0,0.0,-0.160858154296875,-1317.75,-57.908935546875,0.0,0.0,0.0,1,1789167967.82939,38.99028868,-76.94090688333333,-9.178999999999998,0,1,13.483584,6.395841,53.34841600000001,1,1,1789167968.0048423,-0.8853559576672781,0.46321097510695597,-0.013145090370174637,-0.037518360341034014,176.88455945499834,-3.326972603939048,-55.14589160890506,0.00046600291028248603,0.006143384434094841,-0.000789761486527434,0.31322440616607666,1.0840271088790894,-9.634347318401337
2026-09-11T19:06:08.042,0.36748412800000096,-2.239201307296753,-201.52811765670776,-806.112470626831,-1.533852895498276,9.439706802368164e-05,0.0,0.0,0.0,0.0,0.0,-0.160858154296875,-1317.75,-57.908935546875,0.0,0.0,0.0,1,1789167967.82939,38.99028868,-76.94090688333333,-9.178999999999998,0,1,13.483584,6.395841,53.34841600000001,1,1,1789167968.0358424,-0.8843322488850004,0.4651742198919619,-0.012845050381962259,-0.037475637560784925,176.8803215467737,-3.301145441129727,-55.400390635476455,-0.0010663961729685354,0.004990768996077785,-0.001535540675904611,0.27762626607894897,1.0238142768859864,-9.641211973514556
2026-09-11T19:06:08.077,0.400894591999986,-2.239201307296753,-201.52811765670776,-806.112470626831,-1.533852895498276,9.439706802368164e-05,0.0,0.0,0.0,0.0,0.0,-0.160858154296875,-1317.75,-57.908935546875,0.0,0.0,0.0,1,1789167967.82939,38.99028868,-76.94090688333333,-9.178999999999998,0,1,13.483584,6.395841,53.34841600000001,1,1,1789167968.0637853,-0.8834144953986893,0.4669550897518948,-0.012702789189669503,-0.03701908455218702,176.925731199911,-3.2685576701285766,-55.63232061590256,-0.0011136945956975817,-0.0028660051646998883,-0.0003075270142014009,0.2853735197067261,0.9925310628700256,-9.653470286216736
2026-09-11T19:06:08.110,0.4343048319999525,-2.239201307296753,-201.52811765670776,-806.112470626831,-1.533852895498276,9.439706802368164e-05,0.0,0.0,0.0,0.0,0.0,-0.160736083984375,-1316.75,-57.864990234375,0.0,0.0,0.0,1,1789167967.82939,38.99028868,-76.94090688333333,-9.178999999999998,0,1,13.483584,6.395841,53.34841600000001,1,1,1789167968.1037853,-0.8821393599821408,0.4694057255801106,-0.01242290606312667,-0.03652513884786426,176.96985672874453,-3.22216141744517,-55.951601130065335,-0.000594982742004867,-0.003458718978677163,-0.0007325146870620201,0.2708596774673462,1.00037638299942,-9.626698131275177
2026-09-11T19:06:08.142,0.4677111039999886,-2.239201307296753,-201.52811765670776,-806.112470626831,-1.533852895498276,9.439706802368164e-05,0.0,0.0,0.0,0.0,0.0,-0.160736083984375,-1316.75,-57.864990234375,0.0,0.0,0.0,1,1789167967.82939,38.99028868,-76.94090688333333,-9.178999999999998,0,1,13.483584,6.395841,53.34841600000001,1,1,1789167968.1357853,-0.8811199180757106,0.4713249902375326,-0.011945272383598451,-0.0365753197597078,176.94603701846228,-3.183166420430609,-56.20118712206117,-0.0019085175370557993,-0.0015662584707397114,0.00017139133254584317,0.28860971426010135,1.0105752991676331,-9.66857252746582
2026-09-11T19:06:08.175,0.5011105279999697,-2.239201307296753,-201.52811765670776,-806.112470626831,-1.533852895498276,9.439706802368164e-05,0.0,0.0,0.0,0.0,0.0,-0.160736083984375,-1316.75,-57.864990234375,0.0,0.0,0.0,1,1789167967.82939,38.99028868,-76.94090688333333,-9.178999999999998,0,1,13.483584,6.395841,53.34841600000001,1,1,1789167968.1637855,-0.8802447727921673,0.47295318602811504,-0.011344030624712278,-0.03682033089349472,176.89460598011647,-3.1413612769424253,-56.41286908760577,-0.0006778858814745976,-0.004888143636060519,0.00040805797911627425,0.2663486183929443,1.0490173678016663,-9.593551653728484
2026-09-11T19:06:08.210,0.5345114879999642,-2.239201307296753,-201.52811765670776,-806.112470626831,-1.533852895498276,9.439706802368164e-05,0.0,0.0,0.0,0.0,0.0,-0.160736083984375,-1316.75,-57.864990234375,0.0,0.0,0.0,1,1789167967.82939,38.99028868,-76.94090688333333,-9.178999999999998,0,1,13.483584,6.395841,53.34841600000001,1,1,1789167968.2047853,-0.878969216349544,0.4752236312805022,-0.010762157438228994,-0.038207236876238275,176.73098325870615,-3.16623902213247,-56.70627309409405,-0.0018493508754131916,0.006912027436673143,-0.0030396654252733244,0.3250904528617859,1.0967757540893555,-9.658962010307313
2026-09-11T19:06:08.244,0.5679304319999687,-2.239201307296753,-201.52811765670776,-806.112470626831,-1.533852895498276,9.439706802368164e-05,0.0,0.0,0.0,0.0,0.0,-0.160736083984375,-1316.75,-57.864990234375,0.0,0.0,0.0,1,1789167967.82939,38.99028868,-76.94090688333333,-9.178999999999998,0,1,13.483584,6.395841,53.34841600000001,1,1,1789167968.2357852,-0.8779980768646517,0.4769790246414126,-0.009767539547242165,-0.038922772836637975,176.61083619363788,-3.111684952742603,-56.93462401445871,-0.002988003679414292,0.016169951920951865,-0.00026267205242514656,0.2124120425033569,1.1450244728851318,-9.688381960792542
2026-09-11T19:06:08.277,0.6013376959999732,-2.239201307296753,-201.52811765670776,-806.112470626831,-1.533852895498276,9.439706802368164e-05,0.0,0.0,0.0,0.0,0.0,-0.160736083984375,-1316.75,-57.864990234375,0.0,0.0,0.0,1,1789167967.82939,38.99028868,-76.94090688333333,-9.178999999999998,0,1,13.483584,6.395841,53.34841600000001,1,1,1789167968.2637854,-0.8770724595510911,0.47865471511413965,-0.009985958053971447,-0.03916433374571334,176.60438655037385,-3.1533869313648855,-57.15275324904951,-0.0012573351931367152,0.021162815312132044,-0.0002419026343264141,0.3484302802467346,1.033522860546112,-9.668376394462586
2026-09-11T19:06:08.309,0.6347383359999981,-2.239201307296753,-201.52811765670776,-806.112470626831,-1.533852895498276,9.439706802368164e-05,0.0,0.0,0.0,0.0,0.0,-0.160736083984375,-1316.75,-57.864990234375,0.0,0.0,0.0,1,1789167967.82939,38.99028868,-76.94090688333333,-9.178999999999998,0,1,13.483584,6.395841,53.34841600000001,1,1,1789167968.3047853,-0.8760598622724749,0.4805966940003866,-0.011137188356977709,-0.0377080689844008,176.82130007588762,-3.19638066001395,-57.40865391053973,-0.0016732471538869636,0.012205785590897144,-0.003821398397241585,0.23545767038345336,0.8704382683563233,-9.664257601394654
2026-09-11T19:06:08.343,0.668141855999977,-2.239201307296753,-201.52811765670776,-806.112470626831,-1.533852895498276,9.439706802368164e-05,0.0,0.0,0.0,0.0,0.0,-0.16100311279296875,-1318.9375,-57.96112060546875,-0.015258789993822575,-5.493164397776127,-164.4486688163281,1,1789167967.82939,38.99028868,-76.94090688333333,-9.178999999999998,0,1,13.483584,6.395841,53.34841600000001,1,1,1789167968.3357854,-0.8752961799974356,0.4820490054235005,-0.011497651328167949,-0.03678529143620604,176.93930754712025,-3.1868486391410262,-57.60034290288434,-1.7453292519943296e-06,-0.014231240187836563,0.0006293657282691553,0.3946196025085449,0.9126068640518189,-9.6532741532135
2026-09-11T19:06:08.377,0.7015442239999743,-2.239201307296753,-201.52811765670776,-806.112470626831,-1.533852895498276,9.439706802368164e-05,0.0,0.0,0.0,0.0,0.0,-0.16202735900878906,-1327.328125,-58.32984924316406,-0.0457763709127903,-16.479493528604507,-328.90869086973925,1,1789167967.82939,38.99028868,-76.94090688333333,-9.178999999999998,0,1,13.483584,6.395841,53.34841600000001,1,1,1789167968.3637853,-0.8745827587470868,0.4832651028031966,-0.011312225320329305,-0.037840085534431,176.82746255523375,-3.230933136775228,-57.75763866449583,0.0024975661596038858,-0.020952328604341527,-0.005114512840044183,0.3867742823791504,1.0872633034324646,-9.648468894634247
2026-09-11T19:06:08.411,0.7349543679999897,-2.239201307296753,-201.52811765670776,-806.112470626831,-1.533852895498276,9.439706802368164e-05,0.0,0.0,0.0,0.0,0.0,-0.1637439727783203,-1341.390625,-58.94783020019531,-0.0305175818502903,-10.986329466104507,164.41605467182262,1,1789167967.82939,38.99028868,-76.94090688333333,-9.178999999999998,0,1,13.483584,6.395841,53.34841600000001,1,1,1789167968.4047854,-0.873744454113998,0.4846546388001538,-0.00900895147048619,-0.03999185902063433,176.48878468254998,-3.1245995435672116,-57.937324767988734,0.001198866663194905,-0.013719335118226627,-0.006709220177591402,0.2900807117843628,1.2628023413276672,-9.642192638530732
2026-09-11T19:06:08.443,0.7683695039999634,-2.239201307296753,-201.52811765670776,-806.112470626831,-1.533852895498276,9.439706802368164e-05,0.0,0.0,0.0,0.0,0.0,-0.16513824462890625,-1352.8125,-59.44976806640625,-0.0610351599752903,-21.972657591104507,-328.78298400487273,1,1789167967.82939,38.99028868,-76.94090688333333,-9.178999999999998,0,1,13.483584,6.395841,53.34841600000001,1,1,1789167968.4357853,-0.8728953237887166,0.48606043520779096,-0.007969174969306624,-0.04165932409092529,176.26867635771876,-3.119027096458899,-58.11973677863057,0.0007267551005304388,0.00046425758103049166,-0.009874200243157919,0.3016525589752197,1.2653520703697205,-9.666905396938324
2026-09-11T19:06:08.476,0.8017731839999556,-2.239201307296753,-201.52811765670776,-806.112470626831,-1.533852895498276,9.439706802368164e-05,0.0,0.0,0.0,0.0,0.0,-0.1700000762939453,-1392.640625,-61.20002746582031,-0.1220703274011612,-43.94531786441803,-657.7916047967972,1,1789167967.82939,38.99028868,-76.94090688333333,-9.178999999999998,0,1,13.483584,6.395841,53.34841600000001,1,1,1789167968.4637854,-0.8721975316714411,0.48715929748662395,-0.008065314080782782,-0.04338473611032673,176.1049079071059,-3.229734270827601,-58.26056624156304,0.0037782887647173245,0.02824571048257543,-0.013791242683408794,0.2318292098236084,1.339098079586029,-9.60100470785141
2026-09-11T19:06:08.509,0.8351742079999553,-2.239201307296753,-201.52811765670776,-806.112470626831,-1.533852895498276,9.439706802368164e-05,0.0,0.0,0.0,0.0,0.0,-0.17217636108398438,-1410.46875,-61.983489990234375,-0.061035171151161194,-21.97266161441803,657.8437909568325,1,1789167967.82939,38.99028868,-76.94090688333333,-9.178999999999998,0,1,13.483584,6.395841,53.34841600000001,1,1,1789167968.5047853,-0.8713316788658688,0.48843225365754445,-0.007362649967001782,-0.046484732733037736,175.75965538403136,-3.338790087906966,-58.422709233135016,0.0012454669542231536,0.0005567600313861911,-0.022863638668200518,0.45257690496444697,1.5172849130249022,-9.633660852890015
2026-09-11T19:06:08.543,0.8685814399999572,-2.239201307296753,-201.52811765670776,-806.112470626831,-1.533852895498276,9.439706802368164e-05,0.0,0.0,0.0,0.0,0.0,-0.1726398468017578,-1414.265625,-62.15034484863281,0.0,0.0,657.721705719792,1,1789167967.82939,38.99028868,-76.94090688333333,-9.178999999999998,0,1,13.483584,6.395841,53.34841600000001,1,1,1789167968.5357854,-0.870844261975816,0.4891048717210616,-0.0057289249994725185,-0.0487224307775205,175.4466577738007,-3.304288976699256,-58.50960501671218,0.003750363496685415,-0.009036616735125841,-0.0223761682081185,0.34038882711410523,1.7127314507484437,-9.678183044624328
2026-09-11T19:06:08.578,0.9019939840000006,-2.2397232055664062,-201.57508850097656,-806.3003540039062,-1.5342103958129885,-0.0002631032466888428,-0.02577344700694084,-0.017654811199754476,-0.03949268790209927,-0.5283887153199563,0.0,-0.171966552734375,-1408.75,-61.907958984375,0.0,0.0,0.0,1,1789167967.82939,38.99028868,-76.94090688333333,-9.178999999999998,0,1,13.483584,6.395841,53.34841600000001,1,1,1789167968.5647852,-0.8703808322206383,0.4896769416276664,-0.005208887854648477,-0.05125004613072715,175.1664778225841,-3.39730180342607,-58.580853462017494,0.00446001437054631,-0.01216756288027847,-0.030989019000860117,0.5067096138572693,1.7948131126022338,-9.609536493492126
2026-09-11T19:06:08.611,0.9354101760000049,-2.2405834197998047,-201.65250778198242,-806.6100311279297,-1.5347996425628663,-0.0008523499965667725,-0.02577344700694084,-0.017654811199754476,-0.03949268790209927,0.0,0.0,-0.171844482421875,-1407.75,-61.864013671875,0.0,0.0,0.0,1,1789167967.82939,38.99028868,-76.94090688333333,-9.178999999999998,0,1,13.483584,6.395841,53.34841600000001,1,1,1789167968.6047854,-0.8700997245691333,0.48978241015107765,-0.004401612953506165,-0.05495712706035124,174.75021628403297,-3.525556854574981,-58.588967840732714,-0.0006396631708559218,-0.004203625503428343,-0.051585125904869605,0.5473091455268859,2.1020554621696474,-9.648468894634247
2026-09-11T19:06:08.643,0.9688137279999864,-2.2616288661956787,-203.54659795761108,-814.1863918304443,-1.5492157733440401,-0.015268480777740479,-0.8848614692687988,-0.6061301064491272,-1.3558744328228494,-17.61714727971736,0.0,-0.1716899871826172,-1406.484375,-61.80839538574219,0.015258789993822575,5.493164397776127,164.44851127745807,1,1789167967.82939,38.99028868,-76.94090688333333,-9.178999999999998,0,1,13.483584,6.395841,53.34841600000001,1,1,1789167968.6357853,-0.8700508940229543,0.4895338225044334,-0.004156180867472726,-0.05788613473581397,174.4418136744076,-3.6640765140501736,-58.55060868672086,-0.0018540632643935765,-0.0064304910960479075,-0.07192362221128472,0.735891028137207,2.149911914958954,-9.492248957557678
2026-09-11T19:06:08.678,1.0022152639999717,-2.2809035778045654,-205.2813220024109,-821.1252880096436,-1.5624189507961275,-0.028471658229827883,-0.49031567573547363,-0.3358662378787995,-0.7513113767868628,8.091360486249695,0.0,-0.170867919921875,-1399.75,-61.512451171875,0.015258789993822575,5.493164397776127,0.0,1,1789167967.82939,38.99028868,-76.94090688333333,-9.178999999999998,0,1,13.483584,6.395841,53.34841600000001,1,1,1789167968.6637855,-0.8696927695759292,0.48995782591644166,-0.0035316284390961043,-0.05969374314910747,174.2274256071177,-3.7060509443233793,-58.60419618374928,0.00882822442243772,-0.019035258953950956,-0.08857685580211382,0.4436528533172608,1.7598033715248107,-9.660138808326721
2026-09-11T19:06:08.712,1.0356220159999907,-2.2960000038146973,-206.64000034332275,-826.560001373291,-1.5727600026130677,-0.038812710046768194,-0.46401262283325195,-0.3178486466407776,-0.7110071730511303,0.5393398088509667,0.0,-0.16921424865722656,-1386.203125,-60.91712951660156,0.0762939527630806,27.465822994709015,657.731065771387,1,1789167967.82939,38.99028868,-76.94090688333333,-9.178999999999998,0,1,13.483584,6.395841,53.34841600000001,1,1,1789167968.7037854,-0.8696886397176932,0.4898716327494973,-0.002571054282932393,-0.06050490106763664,174.09200946769027,-3.6551593438751473,-58.594044094885554,0.02011771215603784,-0.022095170198547415,-0.09527403320786647,0.6867597108268737,2.0444904257202148,-9.639250643482209
2026-09-11T19:06:08.744,1.0690413439999702,-2.3216254711151123,-208.9462924003601,-835.7851696014404,-1.590313447713852,-0.05636615514755249,-0.6706634163856506,-0.4594044402241707,-1.0276584650683835,-4.235746259873328,0.0,-0.16538619995117188,-1354.84375,-59.539031982421875,0.1678466945886612,60.42481005191803,986.225308217725,1,1789167967.82939,38.99028868,-76.94090688333333,-9.178999999999998,0,1,13.483584,6.395841,53.34841600000001,1,1,1789167968.7357852,-0.8696979995906918,0.48960570221079525,-0.0014871260594820082,-0.06252546942411885,173.82765621534227,-3.6586644505576387,-58.558265854602084,0.02290605016902398,-0.0412124596273421,-0.1132032770148286,0.6732265336036682,2.250037813110352,-9.485090102939607
2026-09-11T19:06:08.777,1.1024427840000044,-2.3478403091430664,-211.30562782287598,-845.2225112915039,-1.6082706117630006,-0.07432331919670106,-0.8017545938491821,-0.5492018967866898,-1.2285296545872613,-2.6884306952762276,0.0,-0.16145896911621094,-1322.671875,-58.12522888183594,0.061035171151161194,21.97266161441803,-1151.212296160304,1,1789167967.82939,38.99028868,-76.94090688333333,-9.178999999999998,0,1,13.483584,6.395841,53.34841600000001,1,1,1789167968.7637854,-0.8699723045971546,0.4888760812251622,-0.00020540105224120411,-0.06440748597990861,173.5642115079931,-3.6310832695618998,-58.46291814252086,0.016859706041340024,-0.05198375910602511,-0.11627034410935826,0.3939331369972229,2.5172690300178524,-9.59678784828186
2026-09-11T19:06:08.810,1.1358418239999537,-2.3782265186309814,-214.04038667678833,-856.1615467071533,-1.6290851652622225,-0.09513787269592286,-0.9048484563827515,-0.6198211926221848,-1.3865005203610061,-2.114410948206959,0.0,-0.15977859497070312,-1308.90625,-57.520294189453125,0.030517593026161194,10.98633348941803,-328.94143439502074,1,1789167967.82939,38.99028868,-76.94090688333333,-9.178999999999998,0,1,13.483584,6.395841,53.34841600000001,1,1,1789167968.8037853,-0.8706733617256688,0.4872213623027069,0.0017163454463059683,-0.0673817145487254,173.1516528093535,-3.593131000758707,-58.24694312989996,-0.0008155923594569502,-0.044752161883311804,-0.15649302751789437,0.33489710302352904,2.7794007888412477,-9.311708528079986
2026-09-11T19:06:08.844,1.1692496640000059,-2.4164886474609375,-217.48397827148438,-869.9359130859375,-1.6552947235107422,-0.12134743094444275,-1.1141926050186157,-0.7632219344377519,-1.707278844035771,-4.292427819797485,0.0,-0.159637451171875,-1307.75,-57.469482421875,0.0,0.0,-328.8549481020288,1,1789167968.8286512,38.99028894833334,-76.940907535,-9.154,0,1,12.759184000000001,6.056520999999999,50.765625,1,1,1789167968.8367853,-0.8713699908487678,0.48559470650884407,0.0023507902920407333,-0.07004708304998136,172.84165940851153,-3.66554341331038,-58.03050551011019,-0.005969549640596206,-0.03444878517708848,-0.1824849943373695,0.5615287882614136,2.6463245461463925,-9.583745003566742
2026-09-11T19:06:08.878,1.2026497919999883,-2.4591445922851562,-221.32301330566406,-885.2920532226562,-1.6845140457153323,-0.15056675314903262,-1.2700494527816772,-0.869983875155449,-1.946098503837348,-3.196453041070772,0.0,-0.159637451171875,-1307.75,-57.469482421875,0.0,0.0,0.0,1,1789167968.8286512,38.99028894833334,-76.940907535,-9.154,0,1,12.759184000000001,6.056520999999999,50.765625,1,1,1789167968.8757854,-0.8722669382320904,0.48357073314464066,0.0024960934443775187,-0.07282516069797655,172.54522422809572,-3.7887346032940328,-57.75964470986001,-0.00847915857203885,-0.04189470883194668,-0.20846212585820273,0.4730728038024902,2.514130901966095,-9.636112515430451
2026-09-11T19:06:08.912,1.2360584639999956,-2.5059289932250977,-225.5336093902588,-902.1344375610352,-1.716561360359192,-0.18261406779289246,-1.3741177320480347,-0.9412706464529038,-2.1055624696960065,-2.13378045369296,0.0,-0.159637451171875,-1307.75,-57.469482421875,0.0,0.0,0.0,1,1789167968.8286512,38.99028894833334,-76.940907535,-9.154,0,1,12.759184000000001,6.056520999999999,50.765625,1,1,1789167968.9047854,-0.8729110768764171,0.4821572091075307,0.004224119954692571,-0.07438302482891412,172.2869950397871,-3.689765918535344,-57.57979681402015,-0.001667662100280582,-0.04514555909671133,-0.22929123421735345,0.49356870264053343,2.60709794549942,-9.781937403335572
2026-09-11T19:06:08.944,1.2694684159999952,-2.5569868087768555,-230.128812789917,-920.515251159668,-1.7515359640121462,-0.21758867144584657,-1.5043509006500244,-1.030480366945267,-2.3051189310694027,-2.6701541053505364,0.0,-0.15922164916992188,-1304.34375,-57.319793701171875,0.03051757998764515,10.986328795552254,328.83401914352976,1,1789167968.8286512,38.99028894833334,-76.940907535,-9.154,0,1,12.759184000000001,6.056520999999999,50.765625,1,1,1789167968.9367855,-0.873545398511429,0.4807614808796902,0.005277995490917929,-0.07588793056523399,172.0714221948157,-3.654903723374348,-57.39958409740461,0.003836059162958337,-0.058104279726918825,-0.2506877491163275,0.5533892686271668,2.5927802362632755,-9.556874782123566
2026-09-11T19:06:08.977,1.3028681600000027,-2.613114833831787,-235.18033504486084,-940.7213401794434,-1.7899836611747744,-0.25603636860847473,-1.6612787246704102,-1.137975926399231,-2.5455796492466667,-3.218454592165133,0.0,-0.15808486938476562,-1295.03125,-56.910552978515625,0.0457763709127903,16.479493528604507,164.46727055905012,1,1789167968.8286512,38.99028894833334,-76.940907535,-9.154,0,1,12.759184000000001,6.056520999999999,50.765625,1,1,1789167968.9627852,-0.8741202280099728,0.47964464776051235,0.00610646269893573,-0.07627286523917776,171.98260262663422,-3.582872654771262,-57.257485295268914,0.021989752311726955,-0.060449827708674,-0.26213920340451274,0.20888164844512938,2.1848235895347594,-9.41928748035431
2026-09-11T19:06:09.011,1.3362691199999972,-2.6741039752960205,-240.66935777664185,-962.6774311065674,-1.8317612230777742,-0.29781393051147464,-1.818297266960144,-1.2455336278676987,-2.7861793751514345,-3.2201979065417707,0.0,-0.15705108642578125,-1286.5625,-56.53839111328125,0.0915527418255806,32.958987057209015,493.38382874645606,1,1789167968.8286512,38.99028894833334,-76.940907535,-9.154,0,1,12.759184000000001,6.056520999999999,50.765625,1,1,1789167969.0047853,-0.8753402233444567,0.47742201540074797,0.0074854418825007945,-0.07610309301065238,171.91573735160495,-3.414670378357468,-56.97588661303894,0.012368275744257817,-0.048965386697626116,-0.2767463875132289,0.3501954772758484,2.475688833332062,-9.7128985861969
2026-09-11T19:06:09.045,1.3696879999999965,-2.7402682304382324,-246.62414073944092,-986.4965629577637,-1.8770837378501894,-0.3431364452838898,-1.9744576215744019,-1.3525034707784653,-3.0254640989138863,-3.200880547486001,0.0,-0.15362167358398438,-1258.46875,-55.303802490234375,0.1373291164636612,49.43848192691803,493.1193047076796,1,1789167968.8286512,38.99028894833334,-76.940907535,-9.154,0,1,12.759184000000001,6.056520999999999,50.765625,1,1,1789167969.0367854,-0.8766810970597942,0.4747504751398794,0.008692401691282756,-0.0772443044200148,171.72445453398322,-3.3309103833417724,-56.63284834724175,-0.005030562503023256,-0.028746445444972603,-0.2909442919123523,-0.1450403558921814,2.5882691771888733,-9.499309745674132
2026-09-11T19:06:09.079,1.4030956799999785,-2.8094370365142822,-252.8493332862854,-1011.3973331451416,-1.9244643700122834,-0.3905170774459839,-2.079669952392578,-1.424573917388916,-3.1866810965213728,-2.157301752485937,0.0,-0.14643478393554688,-1199.59375,-52.716522216796875,0.2899170219898224,104.37012791633606,1644.2819731704662,1,1789167968.8286512,38.99028894833334,-76.940907535,-9.154,0,1,12.759184000000001,6.056520999999999,50.765625,1,1,1789167969.0767853,-0.8785722008359693,0.4709849668190372,0.010355078444745834,-0.07859275602187972,171.4840911666047,-3.2008688167775055,-56.15136187032342,-0.023581667122470985,0.037369419147375786,-0.3036270759878196,0.09384964204788208,2.5540439681243896,-9.513137122402192
2026-09-11T19:06:09.111,1.4366319039999667,-2.8848190307617188,-259.6337127685547,-1038.5348510742188,-1.9761010360717775,-0.4421537435054779,-2.236534357070923,-1.5320260345935823,-3.4270446371545735,-3.204061292192715,0.0,-0.13521766662597656,-1107.703125,-48.67835998535156,0.4577637016773224,164.79493260383606,1801.7772271416543,1,1789167968.8286512,38.99028894833334,-76.940907535,-9.154,0,1,12.759184000000001,6.056520999999999,50.765625,1,1,1789167969.1037853,-0.879978087107944,0.4681905193501109,0.010962548849154548,-0.07947343155575205,171.35200732504623,-3.159963306964021,-55.79124549570396,-0.0028893925766766125,0.04962529568780517,-0.3073774394845049,-0.6114446375846863,2.8812918840217594,-9.224037075634003
2026-09-11T19:06:09.144,1.470039647999954,-2.9643218517303467,-266.7889666557312,-1067.1558666229248,-2.030560468435288,-0.49661317586898807,-2.366851806640625,-1.6212934875488283,-3.626730242369422,-2.6720586985843684,0.0,-0.11670112609863281,-956.015625,-42.01240539550781,0.5340576767921448,192.26076364517212,822.1396524514331,1,1789167968.8286512,38.99028894833334,-76.940907535,-9.154,0,1,12.759184000000001,6.056520999999999,50.765625,1,1,1789167969.1367853,-0.8813115590322537,0.4654133486341231,0.012827834484734913,-0.0807204899126786,171.11605854522765,-3.0109122750972994,-55.44237840681696,-0.03296996770187369,0.02549489704850717,-0.28223300454979827,-0.015788706760406494,2.7680250746536257,-9.04585024219513
2026-09-11T19:06:09.178,1.5034384319999958,-3.0491864681243896,-274.42678213119507,-1097.7071285247803,-2.088692730665207,-0.5547454380989075,-2.524585247039795,-1.7293408942222597,-3.8684254076195814,-3.2350700754044253,0.0,-0.09425163269042969,-772.109375,-33.93058776855469,1.0681153535842896,384.52152729034424,5756.519867457791,1,1789167968.8286512,38.99028894833334,-76.940907535,-9.154,0,1,12.759184000000001,6.056520999999999,50.765625,1,1,1789167969.1757853,-0.8828240321339468,0.4624118765407369,0.012481494662642539,-0.08149353969377417,171.04529566021964,-3.056990238806845,-55.05050713731449,-0.043387488941177436,0.029319262505477145,-0.24768752813214928,-0.25968009628295896,2.698005592498779,-10.009451687088013
2026-09-11T19:06:09.212,1.5368480639999689,-3.1377711296081543,-282.3994016647339,-1129.5976066589355,-2.149373223781586,-0.6154259312152863,-2.628711462020874,-1.8006673514842988,-4.027978148452704,-2.1349070011335853,0.0,-0.07600212097167969,-622.609375,-27.360763549804688,0.35095226764678955,126.34281635284424,-7727.672993755463,1,1789167968.8286512,38.99028894833334,-76.940907535,-9.154,0,1,12.759184000000001,6.056520999999999,50.765625,1,1,1789167969.2037854,-0.8838911800313138,0.46028667620915253,0.015265897085674692,-0.08148318816388797,170.89289266066388,-2.7526581272453665,-54.79725865518291,-0.03848119388089618,0.007102966456841323,-0.22445126166864798,-0.5306378402519226,3.01221066368103,-9.49676001663208
2026-09-11T19:06:09.246,1.5702701440000055,-3.2308216094970703,-290.7739448547363,-1163.0957794189453,-2.2131128025054934,-0.6791655099391938,-2.7601418495178223,-1.8906971669197083,-4.229369109967131,-2.6937226957541482,0.0,-0.04827308654785156,-395.453125,-17.378311157226562,0.8392335176467896,302.12406635284424,5259.434780833724,1,1789167968.8286512,38.99028894833334,-76.940907535,-9.154,0,1,12.759184000000001,6.056520999999999,50.765625,1,1,1789167969.2367854,-0.8849749913417571,0.45842984956132693,0.016771102282514785,-0.07987532697313772,170.97293852434854,-2.4960467705550196,-54.57255321696687,-0.0331209386821712,0.017173516240848605,-0.18894550509655172,-0.49141123960495,2.382329523792267,-9.839012107276917
2026-09-11T19:06:09.279,1.6036778239999876,-3.3265202045440674,-299.38681840896606,-1197.5472736358643,-2.2786663401126863,-0.7447190475463867,-2.8387229442596436,-1.944525216817856,-4.349779028314813,-1.611247769919267,0.0,-0.02825164794921875,-231.4375,-10.17059326171875,1.0070801973342896,362.54887104034424,1808.7099938556776,1,1789167968.8286512,38.99028894833334,-76.940907535,-9.154,0,1,12.759184000000001,6.056520999999999,50.765625,1,1,1789167969.2767854,-0.8858372485070327,0.45673291363504115,0.015692198370112157,-0.08025689796053996,170.98542357927462,-2.6084585974744274,-54.345116701961246,-0.027906767541838132,0.013560510156295143,-0.11911121653282941,1.0553916904067993,2.415377934837341,-8.83843959127426
2026-09-11T19:06:09.312,1.6370857599999908,-3.4262731075286865,-308.3645796775818,-1233.4583187103271,-2.3469970786571506,-0.8130497860908509,-2.944549560546875,-2.0170164489746094,-4.511937296381995,-2.1698805983328757,0.0,-0.005115509033203125,-41.90625,-1.841583251953125,-0.2441406399011612,-87.89063036441803,-13483.008989382597,1,1789167968.8286512,38.99028894833334,-76.940907535,-9.154,0,1,12.759184000000001,6.056520999999999,50.765625,1,1,1789167969.3037853,-0.8862867927870461,0.4561789426291077,0.01626036813377417,-0.07830768583731035,171.15388587075688,-2.442797015326588,-54.28150900972749,-0.018431025966910517,0.026210132975974444,-0.1002456035821723,-1.2620178093147278,1.3530235228157044,-10.186853988513946
2026-09-11T19:06:09.345,1.6704900159999738,-3.5246167182922363,-317.21550464630127,-1268.862018585205,-2.4143624520301823,-0.8804151594638825,-2.9452643394470215,-2.01750607252121,-4.51303255306283,-0.014657519886112316,0.0,0.0068988804705441,56.515628814697266,2.483596969395876,0.6408692002296448,230.71291208267212,9537.812859752137,1,1789167968.8286512,38.99028894833334,-76.940907535,-9.154,0,1,12.759184000000001,6.056520999999999,50.765625,1,1,1789167969.3357854,-0.8866502505054293,0.45573202427547516,0.015946714212802724,-0.07684632479339736,171.31870074111274,-2.3936169532882343,-54.223982460020174,-0.043411923550705354,0.022208616599927046,-0.06603889557233544,0.38383228733062746,0.7511894023895264,-9.362114709911346
2026-09-11T19:06:09.378,1.7038895359999628,-3.6237447261810303,-326.1370253562927,-1304.548101425171,-2.482265137434006,-0.9483178448677064,-2.9474315643310547,-2.018990621566773,-4.516353394700185,-0.04444821499121307,0.0,0.0216598529368639,177.43751525878906,7.797547057271004,0.16784673929214478,60.42482614517212,-5098.518958881923,1,1789167968.8286512,38.99028894833334,-76.940907535,-9.154,0,1,12.759184000000001,6.056520999999999,50.765625,1,1,1789167969.3757854,-0.88694768413192,0.4556505962096523,0.015105421882734848,-0.07401463380005681,171.6523072003971,-2.329955395927052,-54.21169001650684,-0.07323174648565448,-0.006032206960742801,-0.030029611511038834,-1.43108445810318,-0.44012245925903326,-9.111947064285278
2026-09-11T19:06:09.413,1.7372997439999835,-3.720149517059326,-334.81345653533936,-1339.2538261413574,-2.5483024191856387,-1.0143551266193391,-2.897003412246704,-1.9844473373889924,-4.4390822686761595,1.0339140713448718,0.0,0.02157783694565296,176.76564025878906,7.768021300435066,-0.030517585575580597,-10.986330807209015,-2137.405338881365,1,1789167968.8286512,38.99028894833334,-76.940907535,-9.154,0,1,12.759184000000001,6.056520999999999,50.765625,1,1,1789167969.4037855,-0.8870809436523865,0.4556693529395154,0.01464988929312733,-0.07237555487990344,171.84391199213513,-2.29057167741476,-54.21333574417793,-0.06153908769484366,-0.010719812265749171,-0.0347802232020422,0.7618786510658264,0.6312540709114074,-9.764187366542817
2026-09-11T19:06:09.445,1.7707070399999907,-3.8113174438476562,-343.01856994628906,-1372.0742797851562,-2.610752449035645,-1.0768051564693453,-2.768570899963379,-1.8964710664749147,-4.242284955428849,2.633444829358799,0.0,0.019649507477879524,160.96876525878906,7.073822692036629,-0.1831054836511612,-65.91797411441803,-1644.3007930721865,1,1789167968.8286512,38.99028894833334,-76.940907535,-9.154,0,1,12.759184000000001,6.056520999999999,50.765625,1,1,1789167969.4367855,-0.8874224519807469,0.45533396218870437,0.01192325225974515,-0.07078284151943198,172.1479934134198,-2.4815535274866725,-54.15412991101823,-0.03889274251851644,0.08746246307471545,-0.055768331056049614,0.504846350326538,-0.3398984946060181,-9.659158143310547
2026-09-11T19:06:09.478,1.8041074879999996,-3.8952865600585938,-350.57579040527344,-1402.3031616210938,-2.668271293640137,-1.1343240010738374,-2.5359177589416504,-1.7371036648750307,-3.88579023101966,4.771415089996436,0.0,0.010179521515965462,83.39064025878906,3.6646277457475662,-0.3204346001148224,-115.35645604133606,-1480.174215834014,1,1789167968.8286512,38.99028894833334,-76.940907535,-9.154,0,1,12.759184000000001,6.056520999999999,50.765625,1,1,1789167969.4757853,-0.8880766965552284,0.4544723365532149,0.009333394303415734,-0.06846578776433544,172.51740186321595,-2.616695238446848,-54.03096159459892,0.0014028956527530419,0.049562114768882976,-0.0862459685860754,-1.2240660731887818,-1.4945334846496583,-10.91333063249588
2026-09-11T19:06:09.513,1.8375067519999675,-3.975937604904175,-357.83438444137573,-1431.337537765503,-2.72351725935936,-1.1895699667930604,-2.433053970336914,-1.6666419696807864,-3.7281719078399798,2.1096780813586826,0.0,-0.0068531036376953125,-56.140625,-2.4671173095703125,-0.8239746689796448,-296.6308808326721,-5427.497587716622,1,1789167968.8286512,38.99028894833334,-76.940907535,-9.154,0,1,12.759184000000001,6.056520999999999,50.765625,1,1,1789167969.5037854,-0.8886086555056608,0.4537364502493605,0.0076210940980250405,-0.0666318992696484,172.79189908943218,-2.6894374068563396,-53.92960260405195,-0.010133381637079077,-0.03447653591219519,-0.10715414036034146,-0.09963556564331055,-0.34666508321762085,-9.817927809429168
2026-09-11T19:06:09.547,1.870925599999964,-4.051353931427002,-364.6218538284302,-1458.4874153137207,-2.7751774430274967,-1.241230150461197,-2.2259716987609863,-1.5247906136512757,-3.4108594614604373,4.244651282699065,0.0,-0.020168304443359375,-165.21875,-7.260589599609375,0.2746582329273224,98.87696385383606,11834.873682257037,1,1789167968.8286512,38.99028894833334,-76.940907535,-9.154,0,1,12.759184000000001,6.056520999999999,50.765625,1,1,1789167969.5357854,-0.889376210527983,0.45260278289189404,0.006564532724854915,-0.06416840324881223,173.0956922160036,-2.6599905183002654,-53.78251624219865,-0.01844865379235566,-0.061039050864147286,-0.13043613445024502,-0.22349355718612673,0.17750036792755128,-9.99042678577423
2026-09-11T19:06:09.580,1.9043370559999744,-4.122601509094238,-371.03413581848145,-1484.1365432739258,-2.8239820337295534,-1.2900347411632538,-2.1736578941345215,-1.4889556574821474,-3.330698947481536,1.072535006230115,0.0,-0.03695487976074219,-302.734375,-13.303756713867188,-0.732421875,-263.671875,-10851.033814680944,1,1789167968.8286512,38.99028894833334,-76.940907535,-9.154,0,1,12.759184000000001,6.056520999999999,50.765625,1,1,1789167969.5757854,-0.8905751140229615,0.45071936736945,0.005044608842956429,-0.06084874758524731,173.5090002452477,-2.628862637997402,-53.53877555869902,0.06156404590314718,-0.04775046300531286,-0.16261895865946926,1.216613019065857,0.07884546730041504,-7.980063502616883
2026-09-11T19:06:09.612,1.937738751999973,-4.191896915435791,-377.2707223892212,-1509.0828895568848,-2.871449387073517,-1.3375020945072176,-2.1218621730804443,-1.4534755885601045,-3.2513322936652265,1.0622235745767064,0.0,-0.06279563903808594,-514.421875,-22.606430053710938,-0.42724609375,-153.80859375,3289.1527798470115,1,1789167968.8286512,38.99028894833334,-76.940907535,-9.154,0,1,12.759184000000001,6.056520999999999,50.765625,1,1,1789167969.6037853,-0.8915885185541519,0.4490392398657559,0.004255488417858803,-0.05844283926643758,173.7916206095526,-2.573329077329831,-53.32368707304189,-0.03225054298420162,-0.08942526035150826,-0.18607967446477705,-0.5275977787017823,-1.4328496551322936,-12.772671503162385
2026-09-11T19:06:09.645,1.97114604799998,-4.256979942321777,-383.12819480895996,-1532.5127792358398,-2.9160312604904175,-1.3820839679241181,-1.991895079612732,-1.3644481295347215,-3.052183539581961,2.664910653809395,0.0,-0.08085250854492188,-662.34375,-29.106903076171875,-0.79345703125,-285.64453125,-3946.3217106817574,1,1789167968.8286512,38.99028894833334,-76.940907535,-9.154,0,1,12.759184000000001,6.056520999999999,50.765625,1,1,1789167969.6367853,-0.8928213925197884,0.4468641511396685,0.0025243806220526556,-0.05635617967644998,174.08825264713792,-2.62847599446005,-53.04090626574542,-0.007825707300092175,-0.041739199995593994,-0.2033617501850997,0.17053764631271362,0.6658715459823609,-9.280425314064026
2026-09-11T19:06:09.680,2.004544095999961,-4.321356773376465,-388.92210960388184,-1555.6884384155273,-2.9601293897628786,-1.426182097196579,-1.9658092260360718,-1.3465793198347094,-3.0122121506681903,0.5350255709561934,0.0,-0.09029388427734375,-739.6875,-32.50579833984375,0.1831054836511612,65.91797411441803,10526.438711765995,1,1789167968.8286512,38.99028894833334,-76.940907535,-9.154,0,1,12.759184000000001,6.056520999999999,50.765625,1,1,1789167969.6757853,-0.8944879911271925,0.44392359542882354,0.0015942691391183945,-0.05310869473728055,174.46116522803882,-2.5390509557390235,-52.66645811229852,0.010441606782981276,0.004126831016340592,-0.22455144356771245,-0.27772433258056645,0.7163757943153382,-8.189337417068481
2026-09-11T19:06:09.714,2.037949279999964,-4.387945652008057,-394.9151086807251,-1579.6604347229004,-3.005742771625519,-1.4717954790592194,-1.9660687446594238,-1.3467570900917054,-3.012609811407713,-0.005321636815293146,0.0,-0.09367179870605469,-767.359375,-33.72184753417969,-0.061035171151161194,-21.97266161441803,-2631.0477957202206,1,1789167968.8286512,38.99028894833334,-76.940907535,-9.154,0,1,12.759184000000001,6.056520999999999,50.765625,1,1,1789167969.7047853,-0.8955535092805029,0.44204420257920013,0.0019376460812701227,-0.050764953552219105,174.68000630557987,-2.373306897200892,-52.43151162836281,0.01319538727677793,-0.03861907489180373,-0.22910221505936246,-0.5701586404037475,1.6689937910270691,-9.99160358379364
2026-09-11T19:06:09.747,2.0713730239999677,-4.454460620880127,-400.9014558792114,-1603.6058235168457,-3.051305525302887,-1.5173582327365875,-1.992588996887207,-1.364923462867737,-3.0532468299654068,-0.5435169912751077,0.0,-0.09372329711914062,-767.78125,-33.740386962890625,0.0762939527630806,27.465822994709015,1479.1426301350743,1,1789167968.8286512,38.99028894833334,-76.940907535,-9.154,0,1,12.759184000000001,6.056520999999999,50.765625,1,1,1789167969.7367854,-0.8964052498871493,0.4402422415204253,0.002429436113575938,-0.05136627878286342,174.5885141240935,-2.34242797977046,-52.20240772529675,0.007847872981592502,0.021248510978404963,-0.2133033201373846,0.6708729375648499,1.8273711911392212,-9.618264412136078
2026-09-11T19:06:09.779,2.104774271999986,-4.523580551147461,-407.1222496032715,-1628.488998413086,-3.098652677536011,-1.5647053849697115,-2.07114315032959,-1.418733057975769,-3.1736154661233167,-1.6110055261409,0.0,-0.09289932250976562,-761.03125,-33.443756103515625,0.0457763709127903,16.479493528604507,-328.9197297687345,1,1789167968.8286512,38.99028894833334,-76.940907535,-9.154,0,1,12.759184000000001,6.056520999999999,50.765625,1,1,1789167969.7757854,-0.8977505355933605,0.43729330368265135,0.001615714530762863,-0.05306535463654304,174.4460122940465,-2.493682525255512,-51.820348180193214,-0.01279815033902402,0.03455507572853493,-0.21942523702167988,1.1008945471572875,2.0325263125228883,-10.280017165050507
2026-09-11T19:06:09.814,2.138181567999993,-4.60009241104126,-414.0083169937134,-1656.0332679748535,-3.151063301563263,-1.6171160089969636,-2.254410982131958,-1.5442715227603914,-3.4544370140488314,-3.7578158012128684,0.0,-0.092193603515625,-755.25,-33.189697265625,0.015258791856467724,5.493165068328381,-328.86015259282823,1,1789167968.8286512,38.99028894833334,-76.940907535,-9.154,0,1,12.759184000000001,6.056520999999999,50.765625,1,1,1789167969.8037853,-0.8987797234556569,0.43488667268937625,0.0014483791032003305,-0.055375922747250846,174.20865221604762,-2.6113543508891786,-51.509176808358184,0.010743897809426695,0.0771020141019519,-0.2467338802288596,0.4903325080871582,2.691827402896881,-9.22756746969223
2026-09-11T19:06:09.848,2.1716100799999936,-4.679465293884277,-421.15187644958496,-1684.6075057983398,-3.2054337263107304,-1.6714864337444306,-2.35909366607666,-1.6159791612625123,-3.6148424330317432,-2.1451041105903856,0.0,-0.09132575988769531,-748.140625,-32.87727355957031,0.015258789993822575,5.493164397776127,-2.0059291114218197e-05,1,1789167969.8341153,38.990291318333334,-76.940915855,-9.059000000000001,0,1,13.490929,6.400899999999999,53.333809,1,1,1789167969.8437853,-0.8999212807911688,0.4320533710061222,-0.0013528904808778166,-0.05890452163268124,173.9728754929178,-3.0573086724066325,-51.13045457450032,0.025096263847351665,0.11803417385142372,-0.2502765495445577,0.45551890001296996,2.621905987243652,-9.197755253200532
2026-09-11T19:06:09.881,2.205026271999998,-4.762576580047607,-428.63189220428467,-1714.5275688171387,-3.2623649573326112,-1.7284176647663119,-2.515455484390259,-1.7230870068073274,-3.8544358598946973,-3.205267839758688,0.0,-0.08976364135742188,-735.34375,-32.314910888671875,0.0610351637005806,21.972658932209015,493.158961213498,1,1789167969.8341153,38.990291318333334,-76.940915855,-9.059000000000001,0,1,13.490929,6.400899999999999,53.333809,1,1,1789167969.8767853,-0.9013416614351603,0.42869878135859735,-0.0014309442440942005,-0.061632107067086966,173.68206583103242,-3.1771180396147445,-50.69827496045679,-0.0030808551956203905,0.09358437995901074,-0.26081537116687503,-0.688622974357605,2.8705045688438418,-9.404871704616546
2026-09-11T19:06:09.914,2.2384270079999737,-4.8512983322143555,-436.616849899292,-1746.467399597168,-3.3231393575668338,-1.7891920650005342,-2.6724627017974854,-1.8306369507312776,-4.095018232666598,-3.219987245910619,0.0,-0.08736610412597656,-715.703125,-31.451797485351562,0.0762939527630806,27.465822994709015,164.46236581445257,1,1789167969.8341153,38.990291318333334,-76.940915855,-9.059000000000001,0,1,13.490929,6.400899999999999,53.333809,1,1,1789167969.9037855,-0.9024684451011453,0.4259966117770671,-0.0009472329547156956,-0.06384900234858232,173.41846858694387,-3.2164759013542072,-50.35290341015834,-0.007379601143282424,0.052855900133246675,-0.2499374320708952,-0.3696126445960999,3.0175062547683713,-8.726839912433624
2026-09-11T19:06:09.947,2.2718365439999957,-4.945436954498291,-445.0893259048462,-1780.3573036193848,-3.3876243138313296,-1.85367702126503,-2.8029768466949463,-1.9200391399860384,-4.295005234399687,-2.67594824587513,0.0,-0.08252334594726562,-676.03125,-29.708404541015625,0.1983642727136612,71.41113817691803,1315.3524545261614,1,1789167969.8341153,38.990291318333334,-76.940915855,-9.059000000000001,0,1,13.490929,6.400899999999999,53.333809,1,1,1789167969.9367855,-0.9037536567077205,0.42304294071305376,-0.0011425957482523784,-0.0652893006183347,173.26734221216878,-3.2851690665490825,-49.97486631438875,-0.02121622238724307,0.04343915068703647,-0.23749567796512838,1.9614280988502502,2.200906495800018,-10.264522657794952
2026-09-11T19:06:09.981,2.305235391999986,-5.043634414672852,-453.92709732055664,-1815.7083892822266,-3.454889574050904,-1.920942281484604,-2.93387770652771,-2.0097062289714813,-4.495584799954096,-2.684735982075462,0.0,-0.076873779296875,-629.75,-27.674560546875,0.1983642876148224,71.41114354133606,0.00016061685809602534,1,1789167969.8341153,38.990291318333334,-76.940915855,-9.059000000000001,0,1,13.490929,6.400899999999999,53.333809,1,1,1789167969.9757853,-0.9052522340719455,0.4195981052896421,-0.0012024550316967256,-0.06674111811312727,173.10620325497152,-3.3356930276050387,-49.535899318509074,0.003892956896573352,0.08544172086675642,-0.2475904878257384,-1.8426695653915406,2.040175499649048,-10.495469269104005
2026-09-11T19:06:10.014,2.338644095999996,-5.144814491271973,-463.03330421447754,-1852.1332168579102,-3.5241979265213015,-1.990250633955002,-3.012706756591797,-2.063704128265381,-4.616374660579319,-1.6162823704230957,0.0,-0.07155227661132812,-586.15625,-25.758819580078125,0.09155276417732239,32.95899510383606,-1150.961989949941,1,1789167969.8341153,38.990291318333334,-76.940915855,-9.059000000000001,0,1,13.490929,6.400899999999999,53.333809,1,1,1789167970.0037854,-0.9063327213917034,0.41722533214585,-0.0012072677699780166,-0.06695194437076185,173.075726360416,-3.328262003245151,-49.23602955731125,-0.021315008022905948,0.06978978266779647,-0.25552056581509985,-1.1903311966323853,2.608078610515595,-8.349676147212982
2026-09-11T19:06:10.048,2.3720633919999727,-5.248652935028076,-472.37876415252686,-1889.5150566101074,-3.5953272604942326,-2.061379967927933,-3.092214822769165,-2.118167153596878,-4.738204978518422,-1.6296879901819235,0.0,-0.06642532348632812,-544.15625,-23.913116455078125,0.1831054985523224,65.91797947883606,986.2261722994656,1,1789167969.8341153,38.990291318333334,-76.940915855,-9.059000000000001,0,1,13.490929,6.400899999999999,53.333809,1,1,1789167970.0357854,-0.9074598039823887,0.414947318128619,-0.0029347562313394426,-0.0657785264351067,173.27190763114396,-3.4349678804493022,-48.943708210673925,-0.039364679548255704,0.07729260405626968,-0.240628369439533,0.6796008562088013,1.2115135609817504,-9.274737456970215
2026-09-11T19:06:10.081,2.40546345599995,-5.354019641876221,-481.86176776885986,-1927.4470710754395,-3.6675034546852117,-2.133556162118912,-3.1715638637542725,-2.172521246671677,-4.859791621939143,-1.6273649378287451,0.0,-0.05597686767578125,-458.5625,-20.15167236328125,0.4730225205421448,170.28810739517212,3124.848141500787,1,1789167969.8341153,38.990291318333334,-76.940915855,-9.059000000000001,0,1,13.490929,6.400899999999999,53.333809,1,1,1789167970.0757854,-0.9085948987663335,0.41235550461733766,-0.005339809505772531,-0.0662550691043266,173.32513078621244,-3.6892303045125163,-48.6055567237522,-0.045753980873956546,0.06697247218922721,-0.22261185916997117,0.5198505250740051,1.6873322268295288,-9.357505584335328
2026-09-11T19:06:10.114,2.4388622719999944,-5.46006965637207,-491.4062690734863,-1965.6250762939453,-3.7401477146148685,-2.206200422048569,-3.1721417903900146,-2.1729171264171603,-4.860677179709104,-0.01185310717250417,0.0,-0.047557830810546875,-389.59375,-17.120819091796875,0.13732916116714478,49.43849802017212,-3618.380046012383,1,1789167969.8341153,38.990291318333334,-76.940915855,-9.059000000000001,0,1,13.490929,6.400899999999999,53.333809,1,1,1789167970.1037853,-0.9092941621700106,0.4107309933289976,-0.005339383862133213,-0.06675079581912141,173.26654692724392,-3.7006358329006974,-48.39990612048451,-0.04280699243196412,0.014380465838882079,-0.20422900429041568,0.5363256973457337,2.0004585664939882,-8.210715914421082
2026-09-11T19:06:10.148,2.4722819840000057,-5.571788311004639,-501.4609479904175,-2005.84379196167,-3.816674993038178,-2.2827277004718782,-3.2519731521606445,-2.2276016092300415,-4.983002883925463,-1.6362942569003216,0.0,-0.0289764404296875,-237.375,-10.4315185546875,0.9307861924171448,335.0830292701721,8547.18709873693,1,1789167969.8341153,38.990291318333334,-76.940915855,-9.059000000000001,0,1,13.490929,6.400899999999999,53.333809,1,1,1789167970.1437855,-0.9099030519214357,0.40959807162106887,-0.005941407076583289,-0.06534948745253674,173.43714757319003,-3.6893178439233227,-48.258732205166574,-0.024781755516142288,-0.004089655503273113,-0.16114014118425446,0.4966087641906738,1.7603917705345153,-8.035373009529113
2026-09-11T19:06:10.182,2.505691327999955,-5.68549108505249,-511.6941976547241,-2046.7767906188965,-3.894561393260956,-2.3606141006946566,-3.409203290939331,-2.335304254293442,-5.223926839418038,-3.223728219972364,0.0,-0.0043277740478515625,-35.453125,-1.5579986572265625,-0.0610351599752903,-21.972657591104507,-10687.300141595699,1,1789167969.8341153,38.990291318333334,-76.940915855,-9.059000000000001,0,1,13.490929,6.400899999999999,53.333809,1,1,1789167970.1757853,-0.9104530868578539,0.40869341801857356,-0.0032577825556766777,-0.06351577404173209,173.50116914765272,-3.316359250852381,-48.16134870395478,0.03230604445441504,-0.044225596047985115,-0.10293393422901918,-0.4496349099159241,1.853456880569458,-9.913052315998078
2026-09-11T19:06:10.214,2.539092863999997,-5.799135684967041,-521.9222116470337,-2087.6888465881348,-3.9724079442024234,-2.438460651636124,-3.4627161026000977,-2.371960530281067,-5.305924593506318,-1.0974428238144123,0.0,0.015796661376953125,129.40625,5.686798095703125,0.9002685546875,324.0966796875,10360.88092709772,1,1789167969.8341153,38.990291318333334,-76.940915855,-9.059000000000001,0,1,13.490929,6.400899999999999,53.333809,1,1,1789167970.2037854,-0.9103864542077188,0.40899100106843034,-0.00043779712172898255,-0.06263124917978662,173.46366115033186,-2.9823522039889507,-48.21365048212992,-0.024066868654525408,-0.04404059114727372,-0.05045973760318366,-0.8269948081398011,2.442640422286987,-9.998664371910095
2026-09-11T19:06:10.248,2.5724977919999787,-5.916362762451172,-532.4726486206055,-2129.890594482422,-4.052708492279053,-2.5187611997127535,-3.515974283218384,-2.408442384004593,-5.387532176101893,-1.0921099343050762,0.0,0.03446769714355469,282.359375,12.408370971679688,0.030517578125,10.986328125,-9373.178459258203,1,1789167969.8341153,38.990291318333334,-76.940915855,-9.059000000000001,0,1,13.490929,6.400899999999999,53.333809,1,1,1789167970.2437854,-0.9098383517901475,0.4106070990811135,0.0024535094182183913,-0.05991630902780387,173.61813008286867,-2.5642421595108607,-48.436024316161536,-0.007243465461626866,-0.03666587692589687,0.011982034380791472,-0.9607575163459778,1.9957513744163513,-11.740227374134065
2026-09-11T19:06:10.282,2.6059007679999695,-6.036264896392822,-543.263840675354,-2173.055362701416,-4.134841454029083,-2.600894161462784,-3.5940945148468018,-2.461954742670059,-5.507235913274107,-1.602023683922086,0.0,0.048412322998046875,396.59375,17.428436279296875,0.7476807236671448,269.1650605201721,7729.213480716316,1,1789167969.8341153,38.990291318333334,-76.940915855,-9.059000000000001,0,1,13.490929,6.400899999999999,53.333809,1,1,1789167970.2757854,-0.9090576529919966,0.4125379593750594,0.0018810176909666552,-0.058507071228962995,173.79804320302284,-2.570742516841727,-48.67859435840958,0.018470121342155192,0.0007649778111491147,0.04008113720619938,-0.24742178358078,1.4701149257469177,-8.957884590244293
2026-09-11T19:06:10.315,2.6393006399999877,-6.156054973602295,-554.0449476242065,-2216.179790496826,-4.216897656917572,-2.6829503643512727,-3.5936074256896973,-2.4616210865974426,-5.506489545896206,0.0099897410569841,0.0,0.05897712707519531,483.140625,21.231765747070312,-0.3051758110523224,-109.86329197883606,-11348.197756530391,1,1789167969.8341153,38.990291318333334,-76.940915855,-9.059000000000001,0,1,13.490929,6.400899999999999,53.333809,1,1,1789167970.3047853,-0.9085329875173374,0.41393599972686135,0.0038226334047565015,-0.056658505070276276,173.90359289204196,-2.2901498439864034,-48.86692397159594,-0.048990868504705236,-0.08115100343365354,0.07409132114226168,-1.695569812965393,-1.8773851069641114,-8.735273631572724
2026-09-11T19:06:10.349,2.672722591999957,-6.278774261474609,-565.0896835327148,-2260.3587341308594,-4.300960369110108,-2.767013076543808,-3.6454718112945557,-2.497148190736771,-5.585961414497065,-1.0629871091718721,0.0,0.060089111328125,492.25,21.632080078125,0.0,0.0,3287.1596482137616,1,1789167969.8341153,38.990291318333334,-76.940915855,-9.059000000000001,0,1,13.490929,6.400899999999999,53.333809,1,1,1789167970.3437853,-0.90721424699587,0.4169775206847668,0.002424403488788368,-0.05555339376694228,174.09323346675055,-2.4031237763649855,-49.245302084639434,-0.00039653880605311167,0.08309268222649724,0.09887202946085277,1.3220345083045961,1.0745146582221985,-8.711835737686158
2026-09-11T19:06:10.382,2.7061314239999774,-6.40015983581543,-576.0143852233887,-2304.0575408935547,-4.3841094875335695,-2.85016219496727,-3.6459009647369385,-2.497442160844803,-5.586619006900502,-0.00879917346503002,0.0,0.06039237976074219,494.734375,21.741256713867188,0.0,0.0,0.0,1,1789167969.8341153,38.990291318333334,-76.940915855,-9.059000000000001,0,1,13.490929,6.400899999999999,53.333809,1,1,1789167970.3757854,-0.9061652589599901,0.41937467840954634,0.0014770819468654939,-0.054655473575713855,174.2385871162298,-2.4739571848323454,-49.545035225552965,-0.011751127320752622,0.031851735250120916,0.09187133929817831,-2.475688833332062,1.7763766102981566,-8.250236714572907
2026-09-11T19:06:10.415,2.7395308479999585,-6.522609710693359,-587.0348739624023,-2348.1394958496094,-4.467987651824951,-2.934040359258652,-3.6468703746795654,-2.4981062066555024,-5.588104435074042,-0.01988195397320649,0.0,0.05962562561035156,488.453125,21.465225219726562,0.0457763746380806,16.479494869709015,493.40655903881304,1,1789167969.8341153,38.990291318333334,-76.940915855,-9.059000000000001,0,1,13.490929,6.400899999999999,53.333809,1,1,1789167970.4037855,-0.9052535456306312,0.42147228435821704,-0.0008702189667973401,-0.05363184091550904,174.46389877500064,-2.681516394719351,-49.80226876033735,0.023764054029304392,0.02956954272021313,0.09152436784288186,-0.6959779619789124,1.472664654788971,-9.91648464355469
2026-09-11T19:06:10.448,2.7729359999999588,-6.6489715576171875,-598.4074401855469,-2393.6297607421875,-4.5545455169677735,-3.0205982244014744,-3.7254884243011475,-2.5519595706462863,-5.708570979434242,-1.6121274943093644,0.0,0.05794525146484375,474.6875,20.86029052734375,-0.1068115383386612,-38.45215380191803,-1644.4064877066448,1,1789167969.8341153,38.990291318333334,-76.940915855,-9.059000000000001,0,1,13.490929,6.400899999999999,53.333809,1,1,1789167970.4447854,-0.9042165220318866,0.42377151921374134,-0.001812471233037567,-0.05298014473239583,174.58410424043592,-2.7616191094657037,-50.09071617016533,0.03633094824243916,-0.030650076060122818,0.07010254566975385,-1.1640493741989135,-0.44806584589004517,-11.825741363544463
2026-09-11T19:06:10.482,2.806345887999953,-6.7729058265686035,-609.5615243911743,-2438.2460975646973,-4.639440491199494,-3.1054931986331944,-3.674365758895874,-2.5169405448436737,-5.630235649703988,1.0481635198124184,0.0,0.05486106872558594,449.421875,19.749984741210938,-0.2288818508386612,-82.39746630191803,-1315.3385159509542,1,1789167969.8341153,38.990291318333334,-76.940915855,-9.059000000000001,0,1,13.490929,6.400899999999999,53.333809,1,1,1789167970.4757853,-0.9035626331388896,0.42528997317474493,-0.00263046402381414,-0.051923861289013454,174.7382808848258,-2.8039698061982694,-50.28210495372318,-0.03707986902446993,-0.032990911652897616,0.03958476556693219,-1.0683364686203003,0.9385944869804382,-10.654729267730712
2026-09-11T19:06:10.515,2.839752992000001,-6.893771648406982,-620.4394483566284,-2481.7577934265137,-4.722233579158783,-3.1882862865924837,-3.6233279705047607,-2.4819796597957615,-5.552030377137972,1.0465104981222508,0.0,0.044864654541015625,367.53125,16.151275634765625,-0.3662109673023224,-131.83594822883606,-1479.8793073128056,1,1789167969.8341153,38.990291318333334,-76.940915855,-9.059000000000001,0,1,13.490929,6.400899999999999,53.333809,1,1,1789167970.5047853,-0.9032658248195655,0.42602960391221417,-0.0038924413851399563,-0.05093599123895475,174.9046242876098,-2.8907841739172584,-50.37360840844635,-0.05436491180452097,0.0027324874769223224,-0.00751626042371358,0.011473780689239502,-0.7715872347259521,-10.489683345508576
2026-09-11T19:06:10.549,2.873173312000006,-7.010760307312012,-630.968427658081,-2523.873710632324,-4.802370810508728,-3.268423517942429,-3.4689905643463135,-2.376258536577225,-5.315538959773672,3.163378543907471,0.0,0.030790328979492188,252.234375,11.084518432617188,-0.5493164658546448,-197.75392770767212,-1972.3922296024318,1,1789167969.8341153,38.990291318333334,-76.940915855,-9.059000000000001,0,1,13.490929,6.400899999999999,53.333809,1,1,1789167970.5437853,-0.9032648504689725,0.4261954224015896,-0.0051542024391567996,-0.04943183213690836,175.12286735297903,-2.948966917266123,-50.39390088351643,-0.031047662063727128,-0.031143306106736417,-0.041229738386936846,0.8939742287445069,-0.006668522109985352,-9.197559120197296
2026-09-11T19:06:10.582,2.9066628479999963,-7.122673988342285,-641.0406589508057,-2564.1626358032227,-4.879031682014466,-3.345084389448166,-3.3666765689849854,-2.306173449754715,-5.158763085528616,2.09274583029546,0.0,0.017545700073242188,143.734375,6.3164520263671875,-0.061035215854644775,-21.97267770767212,5248.841011116126,1,1789167969.8341153,38.990291318333334,-76.940915855,-9.059000000000001,0,1,13.490929,6.400899999999999,53.333809,1,1,1789167970.5757854,-0.9034938591762118,0.4258196107777822,-0.007066968970738603,-0.048234463379417,175.33909367754669,-3.0867725592452837,-50.343659120552,-0.045343653966812676,-0.011488106202477076,-0.06310220457292978,2.85108740152359,0.16033873014450073,-10.774566532707215
2026-09-11T19:06:10.616,2.9400650559999804,-7.231225490570068,-650.8102941513062,-2603.2411766052246,-4.953389461040497,-3.419442168474198,-3.289945363998413,-2.2536125743389133,-5.041187755768859,1.5735748791165804,0.0,0.012187957763671875,99.84375,4.387664794921875,-0.3662109673023224,-131.83594822883606,-3289.102041434398,1,1789167969.8341153,38.990291318333334,-76.940915855,-9.059000000000001,0,1,13.490929,6.400899999999999,53.333809,1,1,1789167970.6037853,-0.9037421110591004,0.4254425863663496,-0.008261306719743627,-0.04669639403245415,175.55572685237215,-3.1336616687087258,-50.296417976954345,-0.001997878394757909,-0.05222985053055631,-0.10288314514778614,-0.18799348360061646,0.8344478622627258,-8.715660331249238
2026-09-11T19:06:10.649,2.9734822719999556,-7.337945461273193,-660.4150915145874,-2641.6603660583496,-5.026492640972138,-3.492545348405838,-3.187053918838501,-2.1831319344043734,-4.883527054412069,2.1091116607257785,0.0,0.002613067626953125,21.40625,0.940704345703125,-0.3967285454273224,-142.82227635383606,-328.7625194453102,1,1789167969.8341153,38.990291318333334,-76.940915855,-9.059000000000001,0,1,13.490929,6.400899999999999,53.333809,1,1,1789167970.6437855,-0.9040456701195827,0.4250282103129608,-0.00890693748973204,-0.044419739314299336,175.82234169115463,-3.087665042746732,-50.24756311401975,0.03341031427215185,-0.005329362870964686,-0.1112694522036189,0.1453345553970337,0.034421342067718505,-10.882635817489625
2026-09-11T19:06:10.682,3.006890559999988,-7.444387435913086,-669.9948692321777,-2679.979476928711,-5.099405393600464,-3.5654581010341646,-3.188568353652954,-2.1841693222522736,-4.8858476249379725,-0.031051811092480706,0.0,-0.017513275146484375,-143.46875,-6.304779052734375,-0.3356934189796448,-120.84963083267212,657.7004341300773,1,1789167969.8341153,38.990291318333334,-76.940915855,-9.059000000000001,0,1,13.490929,6.400899999999999,53.333809,1,1,1789167970.6757853,-0.9045210859207355,0.42411909024295796,-0.0103939305560531,-0.043087917376625415,176.02980832688462,-3.173050535374244,-50.1326276901248,0.001644274688303858,-0.024714385807015304,-0.12740013421640087,1.544253200969696,0.0995374991416931,-8.660743090343475
2026-09-11T19:06:10.716,3.0402995839999676,-7.547816753387451,-679.3035078048706,-2717.2140312194824,-5.170254476070404,-3.6363071835041048,-3.1384682655334473,-2.1498507618904115,-4.809079191773463,1.0272242721572191,0.0,-0.01636505126953125,-134.0625,-5.89141845703125,-0.1983642727136612,-71.41113817691803,1479.7945805236425,1,1789167969.8341153,38.990291318333334,-76.940915855,-9.059000000000001,0,1,13.490929,6.400899999999999,53.333809,1,1,1789167970.7037854,-0.9050894579360644,0.4229727717990782,-0.012264729972276362,-0.04191281246007078,176.23849307722105,-3.305353761109429,-49.98734263756826,0.02250881323127007,-0.022071084654869892,-0.15452569238504635,1.5081647283744812,0.5374044288635254,-9.90344179883957
2026-09-11T19:06:10.749,3.0737079360000052,-7.646841526031494,-688.2157373428345,-2752.862949371338,-5.238086445331574,-3.7041391527652743,-2.9833526611328125,-2.043596572875977,-4.571395340184266,3.180467836734803,0.0,-0.018497467041015625,-151.53125,-6.659088134765625,-0.015258789993822575,-5.493164397776127,1973.0986365046556,1,1789167969.8341153,38.990291318333334,-76.940915855,-9.059000000000001,0,1,13.490929,6.400899999999999,53.333809,1,1,1789167970.7437854,-0.9060558410518653,0.4211396770964099,-0.013124244944477458,-0.03913999828264803,176.56200050344285,-3.25324946147182,-49.76086181545542,0.018402228034252614,-0.05169944497087523,-0.15332368412919786,1.7460740612983705,0.36039439344406127,-8.490205444030762
2026-09-11T19:06:10.783,3.107107584000005,-7.747191429138184,-697.2472286224365,-2788.988914489746,-5.306826128959656,-3.7728788363933567,-2.9845659732818604,-2.0444276916980746,-4.573254500040426,-0.024884059319959073,0.0,-0.021516799926757812,-176.265625,-7.7460479736328125,-0.045776382088661194,-16.47949755191803,-328.9355969901847,1,1789167969.8341153,38.990291318333334,-76.940915855,-9.059000000000001,0,1,13.490929,6.400899999999999,53.333809,1,1,1789167970.7767854,-0.9065456253876645,0.42015786593148996,-0.014726217759137874,-0.03775626169120376,176.77960859855708,-3.3495371033707846,-49.638552726612794,0.02611588519636675,-0.0527256985710479,-0.16983449885306423,0.71745452583313,0.9035847459030152,-10.249126217041017
2026-09-11T19:06:10.816,3.140518143999998,-7.844985485076904,-706.0486936569214,-2824.1947746276855,-5.37381505727768,-3.8398677647113804,-2.9327499866485596,-2.0089337408542636,-4.493856793249511,1.0623572560237982,0.0,-0.023761749267578125,-194.65625,-8.554229736328125,-0.0457763709127903,-16.479493528604507,0.00012042041565121064,1,1789167969.8341153,38.990291318333334,-76.940915855,-9.059000000000001,0,1,13.490929,6.400899999999999,53.333809,1,1,1789167970.8037853,-0.9071142028488742,0.419124514912038,-0.014944182623186137,-0.0354278900772405,177.02896869561312,-3.2567010868695725,-49.51332580115861,0.006373942428283292,-0.0548799584667845,-0.17811713335132853,-0.006178189601898193,0.8764203249549867,-10.513219305896758
2026-09-11T19:06:10.850,3.1739398720000054,-7.94283390045166,-714.8550510406494,-2859.4202041625977,-5.440841221809388,-3.906893929243088,-2.9325592517852783,-2.008803087472916,-4.4935645299590945,0.003909234775282319,0.0,-0.024690628051757812,-202.265625,-8.888626098632812,0.0,0.0,493.07724389956115,1,1789167970.8302898,38.99029447,-76.940928495,-8.942999999999998,0,1,13.490929,6.400899999999999,53.333809,1,1,1789167970.8447855,-0.907821774876518,0.41778161670823927,-0.014528509460738538,-0.03327263460484898,177.22908373559667,-3.105805219980704,-49.34885293085495,0.026187443695698517,-0.06470406776041018,-0.1649423409597241,-0.5551544656562806,1.1924886596679687,-8.50893614583969
2026-09-11T19:06:10.882,3.2073483839999994,-8.039567947387695,-723.5611152648926,-2894.2444610595703,-5.507104043960572,-3.973156751394272,-2.9325389862060547,-2.008789205551148,-4.493533476984489,0.000415520504717544,0.0,-0.023761749267578125,-194.65625,-8.554229736328125,0.0915527418255806,32.958987057209015,986.544598490794,1,1789167970.8302898,38.99029447,-76.940928495,-8.942999999999998,0,1,13.490929,6.400899999999999,53.333809,1,1,1789167970.8757854,-0.9082329146173409,0.41685916435974024,-0.013251345463692998,-0.03414398539114815,177.07412352441602,-3.011539570453833,-49.23125996909821,0.0028422686868727655,-0.023982220185803683,-0.1589750602471555,0.4176652303886414,1.509243459892273,-10.719257025794983
2026-09-11T19:06:10.915,3.2407504959999756,-8.138190269470215,-732.4371242523193,-2929.7484970092773,-5.574660334587097,-4.040713042020798,-2.985308885574341,-2.0449365866184235,-4.5743928655565975,-1.0821884875813097,0.0,-0.02184295654296875,-178.9375,-7.86346435546875,0.1068115308880806,38.452151119709015,164.45559078731094,1,1789167970.8302898,38.99029447,-76.940928495,-8.942999999999998,0,1,13.490929,6.400899999999999,53.333809,1,1,1789167970.9037855,-0.9089563764989947,0.4153456587724104,-0.010421917230533536,-0.03431724059376241,176.9166322274094,-2.7198877956612586,-49.04264076567594,0.012228125805322673,-0.041753162629609944,-0.15129264447865207,-0.6085026425361634,1.9333810793876647,-9.44939389635086
2026-09-11T19:06:10.949,3.2741604159999724,-8.239255905151367,-741.533031463623,-2966.132125854492,-5.643890295028687,-4.109943002462387,-3.0385186672210693,-2.0813852870464324,-4.655926286342229,-1.090954435928382,0.0,-0.018384933471679688,-150.609375,-6.6185760498046875,0.1220703274011612,43.94531786441803,164.41723729687257,1,1789167970.8302898,38.99029447,-76.940928495,-8.942999999999998,0,1,13.490929,6.400899999999999,53.333809,1,1,1789167970.9437854,-0.9098373711529202,0.41345356587109267,-0.00737583554421882,-0.034607859974949515,176.73660238619937,-2.409373486749851,-48.80790046468826,0.045604406157060635,-0.00543879501506473,-0.14349172085393821,-1.6236870672798156,1.9899654508209228,-6.055116142368317
2026-09-11T19:06:10.982,3.307559967999964,-8.34446907043457,-751.0022163391113,-3004.0088653564453,-5.715961313247681,-4.182014020681382,-3.169318437576294,-2.1709831297397617,-4.856350952352718,-2.6826061227812756,0.0,-0.016084671020507812,-131.765625,-5.7904815673828125,0.1220703274011612,43.94531786441803,0.0,1,1789167970.8302898,38.99029447,-76.940928495,-8.942999999999998,0,1,13.490929,6.400899999999999,53.333809,1,1,1789167970.9757853,-0.9103125259158208,0.41224832015978663,-0.006357757017879927,-0.036633408412180636,176.47365651977898,-2.394469562525094,-48.65445911192942,-0.11285106957177615,0.06433615235408978,-0.129707110421687,-1.9220053652000426,1.6881167588424681,-9.689852958316804
2026-09-11T19:06:11.017,3.340965055999959,-8.45233154296875,-760.7098388671875,-3042.83935546875,-5.789847106933594,-4.255899814367295,-3.2219932079315186,-2.2070653474330904,-4.9370645746087325,-1.080141375269961,0.0,-0.008447647094726562,-69.203125,-3.0411529541015625,0.3051758110523224,109.86329197883606,1973.2914373531344,1,1789167970.8302898,38.99029447,-76.940928495,-8.942999999999998,0,1,13.490929,6.400899999999999,53.333809,1,1,1789167971.0037854,-0.9107377156739571,0.4112496799213279,-0.007038986940501055,-0.03716135999178633,176.44783405664262,-2.486645990321836,-48.52662603307672,-0.03476259537659706,0.07416602123424704,-0.084827015904204,1.9870234557723998,3.5890378261947635,-12.442089326210022
2026-09-11T19:06:11.050,3.3743871359999957,-8.565333366394043,-770.8800029754639,-3083.5200119018555,-5.86725335597992,-4.3333060634136205,-3.3524224758148193,-2.2964093959331513,-5.136921519177587,-2.673204315828427,0.0,0.005771637428551912,47.281253814697266,2.0777894742786884,0.3509522080421448,126.34279489517212,493.0723317135853,1,1789167970.8302898,38.99029447,-76.940928495,-8.942999999999998,0,1,13.490929,6.400899999999999,53.333809,1,1,1789167971.0437853,-0.9109776648283655,0.4106231322181811,-0.006208288518364418,-0.038337900631893886,176.28401090260445,-2.4527839833646525,-48.447356938724546,0.024070359313029397,0.03289736200499072,-0.047585354858074205,0.7547197964477539,3.3253370033454894,-9.41203055923462
2026-09-11T19:06:11.082,3.4077882560000035,-8.681723594665527,-781.3551235198975,-3125.42049407959,-5.9469806623458865,-4.413033369779587,-3.509154796600342,-2.4037710356712343,-5.377082667482175,-3.214312566107309,0.0,0.02491760440170765,204.12501525878906,8.970337584614754,0.4730225205421448,170.28810739517212,1315.6838004231547,1,1789167970.8302898,38.99029447,-76.940928495,-8.942999999999998,0,1,13.490929,6.400899999999999,53.333809,1,1,1789167971.0757854,-0.9108294900317304,0.41088787707510843,-0.005492488623530713,-0.03912320449514744,176.1689319413841,-2.416073534694013,-48.48078121125435,0.016389688873777952,0.004296651552559641,-0.014254104001037689,-0.8926012977218628,2.35281150680542,-10.681893688678741
2026-09-11T19:06:11.115,3.4411892800000032,-8.802124977111816,-792.1912479400635,-3168.764991760254,-6.0294556093215945,-4.495508316755295,-3.5623443126678467,-2.440205854177475,-5.458585035293201,-1.0908293861362186,0.0,0.02729988284409046,223.64064025878906,9.827957823872566,0.1831054836511612,65.91797411441803,-3124.7584888641372,1,1789167970.8302898,38.99029447,-76.940928495,-8.942999999999998,0,1,13.490929,6.400899999999999,53.333809,1,1,1789167971.1047854,-0.9103939165734917,0.4117514558123961,-0.0051707119719853365,-0.0402109318476155,176.04230310508234,-2.437443789331924,-48.588190027210416,0.0038083084278516272,0.026124088243851123,-0.002067167966062084,-0.3045945540237427,1.7735326817512513,-10.455458136444092
2026-09-11T19:06:11.149,3.474595487999977,-8.925026893615723,-803.252420425415,-3213.00968170166,-6.113643422126771,-4.579696129560471,-3.69303297996521,-2.529727591276169,-5.658839457937022,-2.6797934413496987,0.0,0.03741646185517311,306.5156555175781,13.46992626786232,0.3204346001148224,115.35645604133606,1479.9189996948044,1,1789167970.8302898,38.99029447,-76.940928495,-8.942999999999998,0,1,13.490929,6.400899999999999,53.333809,1,1,1789167971.1437855,-0.9094969802284197,0.4136281123850311,-0.0042200148076862445,-0.04134270280477894,175.88411050482767,-2.4000880814679166,-48.824665182640956,-0.004317071904807974,0.010405478467464993,0.028814338752875184,-1.907785722465515,1.4076465642166138,-8.929347238273621
2026-09-11T19:06:11.184,3.5080023040000015,-9.04992389678955,-814.4931507110596,-3257.9726028442383,-6.199197869300843,-4.665250576734543,-3.719972610473633,-2.548181238174439,-5.7001190904045185,-0.5523916705577768,0.0,0.052793506532907486,432.4844055175781,19.005662351846695,0.5798340439796448,208.74025583267212,2795.3516968294202,1,1789167970.8302898,38.99029447,-76.940928495,-8.942999999999998,0,1,13.490929,6.400899999999999,53.333809,1,1,1789167971.1757853,-0.9089548335072277,0.4149707518891476,-0.0023915668814730325,-0.03993327094359791,175.9481098879796,-2.148518337844053,-49.000813802941444,0.006851813577479339,0.05017228187538019,0.033097900336044865,-0.8653388102722168,1.4793331768989564,-8.01683844072342
2026-09-11T19:06:11.216,3.5414092479999795,-9.17666244506836,-825.8996200561523,-3303.5984802246094,-6.286013774871827,-4.752066482305527,-3.799337148666382,-2.6025459468364716,-5.821729480217583,-1.6273475557078334,0.0,0.05284881964325905,432.9375305175781,19.025575071573257,-0.030517593026161194,-10.98633348941803,-6577.272956252292,1,1789167970.8302898,38.99029447,-76.940928495,-8.942999999999998,0,1,13.490929,6.400899999999999,53.333809,1,1,1789167971.2047853,-0.908130556408831,0.41670120622015083,-0.0030410495733256392,-0.04061710561759547,175.9117934761572,-2.2565320787539753,-49.21607145665451,-0.04503979214404047,0.022876903170515675,0.04963297513651395,-1.9779032711219788,2.1734478753471373,-9.624736801242829
2026-09-11T19:06:11.250,3.574830879999979,-9.305532455444336,-837.4979209899902,-3349.991683959961,-6.3742897319793705,-4.840342439413071,-3.853140354156494,-2.639401142597199,-5.9041722051655245,-1.1027347725188201,0.0,0.05356979742646217,438.8437805175781,19.285127073526382,0.1068115308880806,38.452151119709015,1479.2361010116936,1,1789167970.8302898,38.99029447,-76.940928495,-8.942999999999998,0,1,13.490929,6.400899999999999,53.333809,1,1,1789167971.2437854,-0.9073350129702367,0.41836240765996047,-0.004399241360199708,-0.04119122201047522,175.92101273263214,-2.4328731973665967,-49.421186487941334,-0.014274349820360825,0.06317044694668277,0.04704290652655436,-1.5676910948562621,1.7167521773147583,-7.680274207172394
2026-09-11T19:06:11.282,3.6082304319999707,-9.435070991516113,-849.1563892364502,-3396.625556945801,-6.463023629188538,-4.929076336622239,-3.932500123977661,-2.693762584924698,-6.025775288396329,-1.6276099250526692,0.0,0.05364227667450905,439.4375305175781,19.311219602823257,-0.015258789993822575,-5.493164397776127,-1315.7456578308625,1,1789167970.8302898,38.99029447,-76.940928495,-8.942999999999998,0,1,13.490929,6.400899999999999,53.333809,1,1,1789167971.2767854,-0.9063822581596215,0.4203765084237305,-0.007825535640891279,-0.04115281583162508,176.0950139855621,-2.7962964311189107,-49.66802140010617,0.03915942882822117,0.042838582891425225,0.05366712916957364,1.2126903590011597,2.343102923145294,-12.012852248630523
2026-09-11T19:06:11.316,3.641629375999969,-9.566428184509277,-860.978536605835,-3443.91414642334,-6.553003306388855,-5.0190560138225555,-3.959980010986328,-2.712586307525635,-6.06788275663393,-0.5636023282933176,0.0,0.05314255133271217,435.3437805175781,19.131318479776382,-0.0762939527630806,-27.465822994709015,-657.8848300393589,1,1789167970.8302898,38.99029447,-76.940928495,-8.942999999999998,0,1,13.490929,6.400899999999999,53.333809,1,1,1789167971.3047853,-0.9059605839575583,0.4213992339853447,-0.006213368505354055,-0.0402430113642239,176.11525167208902,-2.5892112663933533,-49.80229600301375,0.048254863159139225,0.028701241417345952,0.04787385778342886,-1.3474337322235106,1.8188394054985046,-10.124581759986876
2026-09-11T19:06:11.351,3.6750379519999683,-9.699966430664062,-872.9969787597656,-3491.9879150390625,-6.644477005004883,-5.110529712438583,-3.9867022037506104,-2.7308910095691683,-6.108829208950352,-0.5479042879149814,0.0,0.05140304937958717,421.0937805175781,18.505097776651382,-0.0915527418255806,-32.958987057209015,-164.42377138433275,1,1789167970.8302898,38.99029447,-76.940928495,-8.942999999999998,0,1,13.490929,6.400899999999999,53.333809,1,1,1789167971.3437853,-0.9047232678646513,0.4238001621213959,-0.006032640403844443,-0.04281166219551633,175.84626384831455,-2.7055333834331456,-50.101537328888455,-0.042038000363535416,-0.0035616934045448285,0.030126128218674122,-0.46316808713912966,2.1701136142921444,-10.261972928752899
2026-09-11T19:06:11.384,3.708447711999952,-9.837729454040527,-885.3956508636475,-3541.58260345459,-6.738844676017762,-5.2048973834514625,-4.06505012512207,-2.7845593357086185,-6.2288818354255,-1.6063667065994025,0.0,0.04773331061005592,391.0312805175781,17.183991819620132,-0.0915527492761612,-32.95898973941803,-8.028219941998662e-05,1,1789167970.8302898,38.99029447,-76.940928495,-8.942999999999998,0,1,13.490929,6.400899999999999,53.333809,1,1,1789167971.3767853,-0.9037398225800537,0.4258508407015553,-0.00573835159913552,-0.043271998771447745,175.7902561148521,-2.706902490974681,-50.36101644802888,0.02398204565287848,-0.009601405281071207,0.02678521896450658,-0.22310129117965696,2.3152520366859437,-11.93165318529129
2026-09-11T19:06:11.416,3.7418482879999715,-9.975353240966797,-897.7817916870117,-3591.127166748047,-6.833116970062257,-5.299169677495957,-4.143133163452148,-2.838046216964722,-6.348528581256082,-1.601376013876894,0.0,0.047330860048532486,387.7344055175781,17.039109617471695,0.0,0.0,986.7790824744679,1,1789167970.8302898,38.99029447,-76.940928495,-8.942999999999998,0,1,13.490929,6.400899999999999,53.333809,1,1,1789167971.4037855,-0.9031419030132035,0.42694882057308736,-0.005574509762279336,-0.04492585529346398,175.61382011895395,-2.775990935822036,-50.497363532151184,0.04152365183297269,-0.008047015049245057,0.01323256278984541,-0.5301475077438355,2.4603904590797425,-7.8172731099319455
2026-09-11T19:06:11.450,3.775254719999964,-10.114557266235352,-910.3101539611816,-3641.2406158447266,-6.928471727371217,-5.394524434804917,-4.118048667907715,-2.820863337516785,-6.310091574616996,0.5143584160062659,0.0,0.0484924353659153,397.2500305175781,17.457276731729507,0.0,0.0,0.0,1,1789167970.8302898,38.99029447,-76.940928495,-8.942999999999998,0,1,13.490929,6.400899999999999,53.333809,1,1,1789167971.4447854,-0.9025741819582648,0.42836141671016764,-0.005995280124590421,-0.04278316669737415,175.86107520181,-2.721179314838107,-50.67965447667506,0.044743086171201436,0.0370898174012063,0.002723411764811952,0.23104467781066895,1.279571713104248,-8.249550249061585
2026-09-11T19:06:11.483,3.8086540799999966,-10.251272201538086,-922.6144981384277,-3690.457992553711,-7.022121458053589,-5.4881741654872895,-4.118987560272217,-2.8215064787864685,-6.311530240664069,-0.019256095616294735,0.0,0.049207691103219986,403.1094055175781,17.714768797159195,0.015258789993822575,5.493164397776127,164.4691514379545,1,1789167970.8302898,38.99029447,-76.940928495,-8.942999999999998,0,1,13.490929,6.400899999999999,53.333809,1,1,1789167971.4757853,-0.9022973004811848,0.429008198424676,-0.006369386363800148,-0.04208299117373882,175.95398050316905,-2.7284280235390423,-50.76224211761955,0.030754097683541683,-0.05608196672263299,0.023061384472451475,-2.976220257587433,-1.1399250148010254,-9.987877056732179
2026-09-11T19:06:11.518,3.842062271999964,-10.383150100708008,-934.4835090637207,-3737.934036254883,-7.112457818984986,-5.578510526418686,-3.911217451095581,-2.6791839540004734,-5.993163819793464,4.260108562179398,0.0,0.050779346376657486,415.9844055175781,18.280564695596695,0.1831054836511612,65.91797411441803,1808.6824248585656,1,1789167970.8302898,38.99029447,-76.940928495,-8.942999999999998,0,1,13.490929,6.400899999999999,53.333809,1,1,1789167971.5037854,-0.9022238915055676,0.4292907258536273,-0.005468861700813576,-0.0408853744548454,176.03483124612282,-2.5775579106246425,-50.8022739767762,-0.04061520795730964,-0.047304880447278715,-0.01820849648728124,-1.4782544453811646,1.7608821030426025,-11.303635308933258
2026-09-11T19:06:11.551,3.8754851519999534,-10.509543418884277,-945.858907699585,-3783.43563079834,-7.199037241935731,-5.665089949369431,-3.755470037460327,-2.572496975660324,-5.754511846054763,3.1920342693443464,0.0,0.05031776800751686,412.2031555175781,18.11439648270607,-0.061035171151161194,-21.97266161441803,-2629.6547672990646,1,1789167970.8302898,38.99029447,-76.940928495,-8.942999999999998,0,1,13.490929,6.400899999999999,53.333809,1,1,1789167971.5447853,-0.9017147994677388,0.43052223854219607,-0.007156983290003849,-0.038856146639353065,176.3316732585746,-2.6574133690603627,-50.95901647478288,-0.0012273155300024125,-0.0543249437646503,0.02586700124503236,0.3260711178779602,-0.4735631363105774,-9.997487573890686
2026-09-11T19:06:11.583,3.9088934719999884,-10.630742073059082,-956.7667865753174,-3827.0671463012695,-7.282058320045472,-5.7481110274791725,-3.678558349609375,-2.519812469482422,-5.63665996215645,1.576987594043842,0.0,0.04476547613739967,366.7187805175781,16.115571409463882,-0.2441406548023224,-87.89063572883606,-1973.1005364636394,1,1789167970.8302898,38.99029447,-76.940928495,-8.942999999999998,0,1,13.490929,6.400899999999999,53.333809,1,1,1789167971.5757854,-0.9014926046374183,0.43122721658565627,-0.007922693328408524,-0.03593608757578999,176.67390127821585,-2.5951104420446973,-51.05270027197495,0.02540291819692707,-0.0229006396483428,-0.0036137042162542594,-0.4627758211326599,0.30694815006256104,-9.556482516117095
2026-09-11T19:06:11.617,3.9422994560000006,-10.750677108764648,-967.5609397888184,-3870.2437591552734,-7.364213819503785,-5.830266526937486,-3.575401544570923,-2.4491500580310825,-5.478592649496868,2.115262087514432,0.0,0.03208351507782936,262.8281555175781,11.55006542801857,-0.6103516221046448,-219.72658395767212,-3946.4770212662393,1,1789167970.8302898,38.99029447,-76.940928495,-8.942999999999998,0,1,13.490929,6.400899999999999,53.333809,1,1,1789167971.6037853,-0.9013942320669434,0.4314340156366236,-0.010244674556727649,-0.03532952294229212,176.8518638987376,-2.8059617237871315,-51.07719678620954,0.06450544929153322,0.05682268445717939,-0.017622414924461545,-0.7597211880302429,-1.593286451778412,-13.458744748477935
2026-09-11T19:06:11.650,3.975704063999956,-10.867201805114746,-978.0481624603271,-3912.1926498413086,-7.444033236503602,-5.910085943937302,-3.499204635620117,-2.3969551753997806,-5.361836022279389,1.5625054672508596,0.0,0.016736987978219986,137.10940551757812,6.025315672159195,-0.15258795022964478,-54.93166208267212,4933.299078834295,1,1789167970.8302898,38.99029447,-76.940928495,-8.942999999999998,0,1,13.490929,6.400899999999999,53.333809,1,1,1789167971.6437855,-0.9013762738302975,0.4313498161774994,-0.014461918072004159,-0.03534122217927561,177.05844118523993,-3.2423864364663832,-51.06322617215846,0.03789354152174968,0.07940776857676161,-0.06035243833641272,2.2397408304405215,1.0332286610412598,-9.591198057689667
2026-09-11T19:06:11.685,4.009103231999973,-10.98326301574707,-988.4936714172363,-3953.9746856689453,-7.523535165786743,-5.989587873220445,-3.5003862380981445,-2.3977645730972292,-5.363646593363517,-0.024234067670433665,0.0,0.011453632265329361,93.82815551757812,4.12330761551857,-0.2136230766773224,-76.90430760383606,-657.8800262675084,1,1789167970.8302898,38.99029447,-76.940928495,-8.942999999999998,0,1,13.490929,6.400899999999999,53.333809,1,1,1789167971.6767855,-0.9018070028978294,0.43056579457029637,-0.013812668927370477,-0.03415312939668093,177.14674932386455,-3.114015023476979,-50.96651021727702,-0.016861800436442417,0.08908841180587336,-0.09528694864433121,-1.3633205054855346,0.5596655247306824,-8.92669944272995
2026-09-11T19:06:11.718,4.042509663999965,-11.09859848022461,-998.8738632202148,-3995.4954528808594,-7.602539958953858,-6.068592666387558,-3.4762766361236572,-2.3812494957447052,-5.32670341746757,0.49436819090789796,0.0,0.008199695497751236,67.17190551757812,2.951890379190445,-0.030517607927322388,-10.98633885383606,1973.2118877590644,1,1789167970.8302898,38.99029447,-76.940928495,-8.942999999999998,0,1,13.490929,6.400899999999999,53.333809,1,1,1789167971.7157853,-0.9017464753820834,0.4305558047737162,-0.01708544894645919,-0.03439593792797876,177.28276060304617,-3.464622640642619,-50.96384405543847,-0.02509800917660366,0.01173035790265389,-0.10115142946395737,0.4511059074401855,0.861514216709137,-10.423586523418427
2026-09-11T19:06:11.751,4.0759316799999965,-11.209961891174316,-1008.8965702056885,-4035.586280822754,-7.678823895454407,-6.144876602888107,-3.347135305404663,-2.2927876842021946,-5.128819980767251,2.6468125544080774,0.0,0.007169727236032486,58.734405517578125,2.581101804971695,0.0,0.0,328.71562427071274,1,1789167970.8302898,38.99029447,-76.940928495,-8.942999999999998,0,1,13.490929,6.400899999999999,53.333809,1,1,1789167971.7427855,-0.9018684188865715,0.4303467178882586,-0.017442312543498192,-0.03362771403134694,177.37914721520016,-3.463030702190275,-50.93913499498115,0.03030258100605075,0.01100953692158023,-0.07591204861794218,-0.19377940719604492,1.3148756536865236,-9.941785800971983
2026-09-11T19:06:11.784,4.109337983999978,-11.32495403289795,-1019.2458629608154,-4076.9834518432617,-7.757593512535096,-6.2236462199687965,-3.374138832092285,-2.3112850999832153,-5.170197521437037,-0.5537103350622306,0.0,0.007627490907907486,62.484405517578125,2.745896726846695,0.0,0.0,0.0,1,1789167970.8302898,38.99029447,-76.940928495,-8.942999999999998,0,1,13.490929,6.400899999999999,53.333809,1,1,1789167971.7757854,-0.9021193734218652,0.42986183768859715,-0.014226385460447489,-0.03459836054864486,177.11851629698762,-3.1765480939889525,-50.87588803153497,-0.030133109535682098,-0.016507498598287568,-0.08487064913550386,-1.866597791786194,1.5231689031219484,-9.52196310754776
2026-09-11T19:06:11.817,4.142737631999978,-11.44175910949707,-1029.7583198547363,-4119.033279418945,-7.837604990005493,-6.303657697439194,-3.4799654483795166,-2.383776332139969,-5.33235578950422,-2.1704190462352932,0.0,0.008459094911813736,69.29690551757812,3.045274168252945,0.0457763709127903,16.479493528604507,493.4032097764832,1,1789167970.8302898,38.99029447,-76.940928495,-8.942999999999998,0,1,13.490929,6.400899999999999,53.333809,1,1,1789167971.8037853,-0.9020297128431696,0.4299033844024697,-0.012850610168517367,-0.036882774375966466,176.81423324838227,-3.1468522055978987,-50.87699567073533,-0.025646391627580277,0.007897440332349142,-0.07688664047225581,0.3968751320457458,1.5619051712608336,-10.059759802417757
2026-09-11T19:06:11.850,4.17614348799998,-11.560262680053711,-1040.423641204834,-4161.694564819336,-7.918779935836793,-6.384832643270493,-3.5585834980010986,-2.437629696130753,-5.45282233386442,-1.6120935200936382,0.0,0.008174899965524673,66.96878051757812,2.9429639875888824,-0.015258789993822575,-5.493164397776127,-657.7486871277757,1,1789167971.8320267,38.990297785,-76.94094333,-8.838000000000001,0,1,13.860729,6.682225,61.95264100000001,1,1,1789167971.8437853,-0.9020669475012211,0.4296734501692749,-0.011875153427639618,-0.03892209111200191,176.5540831662953,-3.145510705586982,-50.84424192795526,-0.028785715353142477,-0.003761533603898179,-0.07822111921833066,1.4271617980384825,1.265057870864868,-10.185677190494538
2026-09-11T19:06:11.885,4.209542943999963,-11.679479598999023,-1051.153163909912,-4204.612655639648,-8.000443525314331,-6.466496232748032,-3.6104538440704346,-2.473160883188248,-5.532303335693104,-1.0638253227092183,0.0,0.008039478212594986,65.85940551757812,2.894212156534195,0.0457763709127903,16.479493528604507,657.8747248575347,1,1789167971.8320267,38.990297785,-76.94094333,-8.838000000000001,0,1,13.860729,6.682225,61.95264100000001,1,1,1789167971.8757854,-0.9022132183300565,0.42918828372749673,-0.010808988701540139,-0.041132609263423235,176.27082960603784,-3.1420303503781306,-50.77911773877943,-0.039986191294890894,-0.022779164732403993,-0.07569929298212406,-0.10561762224197388,2.343495189151764,-9.37456915561676
2026-09-11T19:06:11.919,4.242952607999996,-11.802887916564941,-1062.2599124908447,-4249.039649963379,-8.084978222846985,-6.551030930280686,-3.6885740756988525,-2.526673241853714,-5.652007072865317,-1.6017029882555571,0.0,0.008598331362009048,70.43753051757812,3.0953992903232574,0.0762939527630806,27.465822994709015,328.8368738486508,1,1789167971.8320267,38.990297785,-76.94094333,-8.838000000000001,0,1,13.860729,6.682225,61.95264100000001,1,1,1789167971.9157853,-0.9025358232123437,0.4283572088172767,-0.007360800995120586,-0.043416679760195524,175.86216315725292,-2.893662357113338,-50.67489608776845,-0.07146076089365583,-0.013578661580515884,-0.07863685664615572,0.6320386029243469,2.525996948661804,-8.666529013938904
2026-09-11T19:06:11.952,4.276377919999959,-11.930290222167969,-1073.7261199951172,-4294.904479980469,-8.17224880218506,-6.63830150961876,-3.767387628555298,-2.580660525560379,-5.772773187098193,-1.6151616986170478,0.0,0.012018207460641861,98.45315551757812,4.32655468583107,0.2288818508386612,82.39746630191803,1643.414526909122,1,1789167971.8320267,38.990297785,-76.94094333,-8.838000000000001,0,1,13.860729,6.682225,61.95264100000001,1,1,1789167971.9437854,-0.9025744464140047,0.4280520566189643,-0.0066651850995270885,-0.045676917719092165,175.5925836967277,-2.9311466870926624,-50.633110557319554,-0.02897874876841305,-0.06106907052728159,-0.05503703809946399,-0.7341258311080933,2.90492591091156,-10.037204507045745
2026-09-11T19:06:11.984,4.309781599999951,-12.061140060424805,-1085.5026054382324,-4342.01042175293,-8.261880941390991,-6.727933648824692,-3.9501683712005615,-2.705865334272385,-6.052848367645808,-3.74823398835204,0.0,0.018461231142282486,151.23440551757812,6.646043211221695,0.1373291313648224,49.43848729133606,-986.6870659337445,1,1789167971.8320267,38.990297785,-76.94094333,-8.838000000000001,0,1,13.860729,6.682225,61.95264100000001,1,1,1789167971.9757853,-0.9022898837244634,0.4283755922834938,-0.005417585448425701,-0.04835253284130324,175.25489950646886,-2.9349736862015545,-50.67182604413627,-0.051180907650107715,-0.06257633686930389,-0.04008410426592777,1.1278628351020814,2.7632198160743715,-9.205502506828308
2026-09-11T19:06:12.018,4.343181567999977,-12.195954322814941,-1097.6358890533447,-4390.543556213379,-8.354228711128236,-6.820281418561936,-4.0287861824035645,-2.7597185349464417,-6.1733145466768935,-1.6123728224534395,0.0,0.0220489539206028,180.62503051757812,7.9376234114170074,0.1678467094898224,60.42481541633606,328.9322949348759,1,1789167971.8320267,38.990297785,-76.94094333,-8.838000000000001,0,1,13.860729,6.682225,61.95264100000001,1,1,1789167972.0037854,-0.9021666039117623,0.4286811128764301,-0.002472558677201004,-0.04818515023251901,175.12908213246627,-2.6235420377428387,-50.71958029471709,0.017815622872657318,-0.08002037914421162,-0.03221685812963813,-1.8938602792358399,2.319272763252258,-9.004858444519042
2026-09-11T19:06:12.052,4.376591391999966,-12.335638999938965,-1110.2075099945068,-4440.830039978027,-8.449912714958192,-6.915965422391892,-4.159215927124023,-2.8490629100799563,-6.3731722219039755,-2.6741947258849423,0.0,0.02719879522919655,222.81253051757812,9.791566282510757,0.06103518605232239,21.97266697883606,-1150.9234061667833,1,1789167971.8320267,38.990297785,-76.94094333,-8.838000000000001,0,1,13.860729,6.682225,61.95264100000001,1,1,1789167972.0447853,-0.9018441975449898,0.4293157219550271,0.0019018196308161874,-0.0485946223234517,174.87389765775643,-2.194654478291657,-50.81456831203889,0.03608031896185278,-0.0834393046159433,-0.0017266542289979903,-0.029419950485229492,1.9437761285591124,-6.7174572942924495
2026-09-11T19:06:12.086,4.409993695999958,-12.480109214782715,-1123.2098293304443,-4492.839317321777,-8.54887481212616,-7.014927519559861,-4.290259838104248,-2.93882798910141,-6.573970984926196,-2.687391834451755,0.0,0.02804756537079811,229.76565551757812,10.09712353348732,-0.045776382088661194,-16.47949755191803,-1151.1830001536212,1,1789167971.8320267,38.990297785,-76.94094333,-8.838000000000001,0,1,13.860729,6.682225,61.95264100000001,1,1,1789167972.0767853,-0.901362974728483,0.4300845324728981,0.002653747103912126,-0.05064622732738685,174.62612326592367,-2.222507080700191,-50.91188595697847,-0.3172978909528407,0.028464749303700722,-0.007364067712939675,-2.134711607208252,-0.034813608074188235,-10.362589159412384
2026-09-11T19:06:12.119,4.44340047999998,-12.621538162231445,-1135.93843460083,-4543.75373840332,-8.645753641128541,-7.111806348562241,-4.265773773193359,-2.9220550346374514,-6.536450954360792,0.5020822855605523,0.0,0.0289459265768528,237.12503051757812,10.420533567667007,0.1220703274011612,43.94531786441803,1808.7588262401123,1,1789167971.8320267,38.990297785,-76.94094333,-8.838000000000001,0,1,13.860729,6.682225,61.95264100000001,1,1,1789167972.1167853,-0.9010140236336935,0.43091074448964817,0.002755872134933044,-0.04982032384052936,174.70871149803344,-2.1760476661567627,-51.01843519695496,-0.07506259687099652,0.07538844984234387,-0.018956021005910415,-1.6226083357620238,1.7451914627838137,-15.957185010185242
2026-09-11T19:06:12.151,4.47680700799998,-12.762099266052246,-1148.5889339447021,-4594.355735778809,-8.74203799724579,-7.208090704679489,-4.214821815490723,-2.887152943611145,-6.458377200275461,1.044768586136991,0.0,0.029043201357126236,237.92190551757812,10.455552488565445,0.1068115383386612,38.45215380191803,-164.43385144663728,1,1789167971.8320267,38.990297785,-76.94094333,-8.838000000000001,0,1,13.860729,6.682225,61.95264100000001,1,1,1789167972.1437855,-0.9007689249102476,0.4315921916972132,0.0010292538424510045,-0.04839901464451801,174.9427343088896,-2.288029415579916,-51.10060253227977,0.0497092460248261,-0.021073454454429933,0.027810774432978445,0.8350362612724305,1.53493688331604,-7.711459354686737
2026-09-11T19:06:12.184,4.510207327999979,-12.903351783752441,-1161.3016605377197,-4645.206642150879,-8.838795971870423,-7.304848679304124,-4.269156455993652,-2.924372172355652,-6.541634243816322,-1.1143374897159248,0.0,0.0315704382956028,258.6250305175781,11.365357786417007,0.1220703274011612,43.94531786441803,164.46441418825532,1,1789167971.8320267,38.990297785,-76.94094333,-8.838000000000001,0,1,13.860729,6.682225,61.95264100000001,1,1,1789167972.1767855,-0.9006203496008947,0.43205618626455283,0.0007117888847622814,-0.04700990482734355,175.1034289573975,-2.2545827063857167,-51.160616105119466,0.07282962262599499,-0.024573014137603762,0.015643735151475574,2.034095376548767,1.529935491733551,-11.83966680677414
2026-09-11T19:06:12.219,4.543606335999982,-13.046961784362793,-1174.2265605926514,-4696.9062423706055,-8.937168822288514,-7.403221529722214,-4.27087926864624,-2.9255522990226748,-6.544274111987007,-0.0353341831895937,0.0,0.03934097662568092,322.2812805175781,14.162751585245132,0.2899170219898224,104.37012791633606,1809.1797831813356,1,1789167971.8320267,38.990297785,-76.94094333,-8.838000000000001,0,1,13.860729,6.682225,61.95264100000001,1,1,1789167972.2157853,-0.8999028980147853,0.4339262765263157,0.0014482600682454213,-0.04336661420232077,175.44838938275228,-2.0074382907418458,-51.40623048894538,0.036424148824495656,-0.06562455440791198,0.02550170383258995,-0.24379332302093507,1.0962854215812683,-11.237146220836639
2026-09-11T19:06:12.253,4.577025343999992,-13.190702438354492,-1187.1632194519043,-4748.652877807617,-9.035631170272827,-7.501683877706529,-4.297675609588623,-2.943907792568207,-6.585334181657578,-0.5492530940932391,0.0,0.05512428656220436,451.5781555175781,19.84474316239357,0.3662109971046448,131.83595895767212,821.8625472464042,1,1789167971.8320267,38.990297785,-76.94094333,-8.838000000000001,0,1,13.860729,6.682225,61.95264100000001,1,1,1789167972.2437854,-0.8992837779084264,0.43522054898143026,0.003269234890919522,-0.04314015111562087,175.3840431436545,-1.814919315248611,-51.57742402218474,-0.02447283223853929,-0.050427449012021765,0.03577453727690337,-1.2358340533828736,1.3826396063041688,-6.232910709800721
2026-09-11T19:06:12.285,4.610432000000003,-13.331690788269043,-1199.8521709442139,-4799.4086837768555,-9.132208189964295,-7.598260897397996,-4.220971584320068,-2.891365535259247,-6.467800499416705,1.5728080448681376,0.0,0.053495410829782486,438.2344055175781,19.258347898721695,0.1678466945886612,60.42481005191803,-2137.6323600222217,1,1789167971.8320267,38.990297785,-76.94094333,-8.838000000000001,0,1,13.860729,6.682225,61.95264100000001,1,1,1789167972.2757854,-0.8982990425400555,0.4374085153529157,0.0037142150378194215,-0.04145872013256376,175.53971924899946,-1.6959645326054384,-51.85960523808642,-0.0329025979927467,-0.009913470151327791,0.05718117508553902,-0.8334671972465515,1.8394333708381652,-10.596771965274812
2026-09-11T19:06:12.318,4.643830527999967,-13.475793838500977,-1212.821445465088,-4851.285781860352,-9.23091877937317,-7.69697148680687,-4.300236701965332,-2.945662140846253,-6.589258546989642,-1.6257185222972894,0.0,0.053922656923532486,441.7344055175781,19.412156492471695,0.0,0.0,-1809.2057845179147,1,1789167971.8320267,38.990297785,-76.94094333,-8.838000000000001,0,1,13.860729,6.682225,61.95264100000001,1,1,1789167972.3157854,-0.897200937913521,0.43978556659118545,0.005043296974495189,-0.03992114202769558,175.6357807476226,-1.4935138683597624,-52.16897655811426,-0.07752316205045813,0.08520156356168199,0.06619039015140855,-0.9004466178512573,1.8509071515274047,-10.68424728471756
2026-09-11T19:06:12.352,4.677240703999985,-13.617984771728516,-1225.6186294555664,-4902.474517822266,-9.328319568634035,-7.794372276067734,-4.2479376792907715,-2.909837310314179,-6.509120683415747,1.0722730263993439,0.0,0.05329132452607155,436.5625305175781,19.184876829385757,-0.0457763709127903,-16.479493528604507,-493.24773172687276,1,1789167971.8320267,38.990297785,-76.94094333,-8.838000000000001,0,1,13.860729,6.682225,61.95264100000001,1,1,1789167972.3437853,-0.8965724018972324,0.441215672402015,0.0033344892268019812,-0.038412755233933484,175.87974250422073,-1.599756885453366,-52.34732340742885,0.019805123687005655,0.14296148982718235,0.0499858807112672,2.771163202705383,1.541997671432495,-8.004678194522858
2026-09-11T19:06:12.386,4.710642143999962,-13.760724067687988,-1238.465166091919,-4953.860664367676,-9.426095986366272,-7.892148693799973,-4.248828411102295,-2.9104474616050724,-6.510485552981991,-0.018267215152819875,0.0,0.05277443304657936,432.3281555175781,18.99879589676857,0.015258795581758022,5.493166409432888,657.8357082225285,1,1789167971.8320267,38.990297785,-76.94094333,-8.838000000000001,0,1,13.860729,6.682225,61.95264100000001,1,1,1789167972.3757854,-0.8959988711539836,0.4424632513934465,0.0007703388097414365,-0.03757260485041012,176.09822036928233,-1.8262425350170701,-52.500062473288445,0.026481008075883966,0.11981493328723353,0.06215309452569527,0.6542016322898865,0.3920698734664917,-8.335358437976836
2026-09-11T19:06:12.420,4.744052223999972,-13.896330833435059,-1250.6697750091553,-5002.679100036621,-9.518986620903016,-7.9850393283367165,-4.093515396118164,-2.8040580463409426,-6.272499208887212,3.184350808621159,0.0,0.05339241400361061,437.3906555175781,19.22126904129982,0.0762939527630806,27.465822994709015,657.6654885372761,1,1789167971.8320267,38.990297785,-76.94094333,-8.838000000000001,0,1,13.860729,6.682225,61.95264100000001,1,1,1789167972.4167855,-0.8953516018483508,0.4440420897308675,-0.0019545605280908577,-0.03418056916112874,176.5885677153839,-1.9401342857614434,-52.6996692568865,0.09019495055163776,0.12125099019577446,0.060702900450213176,-1.0660809390830994,0.12993811464309693,-8.548751145496368
2026-09-11T19:06:12.452,4.777462015999959,-14.028594017028809,-1262.5734615325928,-5050.293846130371,-9.609586901664734,-8.075639609098435,-3.9915931224823,-2.7342412889003755,-6.116323570374849,2.0897094313127034,0.0,0.05567169561982155,456.0625305175781,20.041810423135757,0.1220703199505806,43.945315182209015,493.25336079634275,1,1789167971.8320267,38.990297785,-76.94094333,-8.838000000000001,0,1,13.860729,6.682225,61.95264100000001,1,1,1789167972.4437854,-0.8946959162112597,0.4455437237603598,-0.0033824267445094727,-0.03160010952457096,176.92963734782248,-1.9605254744087457,-52.89253801455379,0.056673633339059074,0.07609286472844878,0.08841296938535155,-1.4485402953910829,-1.172090827331543,-9.28219051109314
2026-09-11T19:06:12.485,4.810861087999967,-14.159085273742676,-1274.3176746368408,-5097.270698547363,-9.698973412513734,-8.165026119947434,-3.9148666858673096,-2.6816836798191073,-5.998755547197352,1.5736248324879933,0.0,0.06029129400849342,493.9062805175781,21.704865843057632,0.1068115383386612,38.45215380191803,-164.47047930821364,1,1789167971.8320267,38.990297785,-76.94094333,-8.838000000000001,0,1,13.860729,6.682225,61.95264100000001,1,1,1789167972.4757853,-0.89359103162203,0.4477774115976409,-0.005437398855002449,-0.030998267069058255,177.1015694344542,-2.1478496729622285,-53.17644572723119,-0.010654886017574984,0.10831007192393731,0.09809972126684528,1.9227898972129822,0.3915795409584045,-11.012770065135955
2026-09-11T19:06:12.519,4.84425983999995,-14.282681465148926,-1285.4413318634033,-5141.765327453613,-9.783636803627015,-8.249689511060716,-3.734294891357422,-2.557992000579834,-5.72206514088187,3.703482071406103,0.0,0.06329537183046341,518.5156860351562,22.786333858966827,0.3204346001148224,115.35645604133606,2302.610056790707,1,1789167971.8320267,38.990297785,-76.94094333,-8.838000000000001,0,1,13.860729,6.682225,61.95264100000001,1,1,1789167972.5157855,-0.8924282128742299,0.4501028253049398,-0.00893091897695538,-0.029992835892031562,177.39012038876143,-2.4610448301482517,-53.47279823925245,0.0340117547323891,0.047201207889710245,0.14374584079302857,3.6785725421714783,-1.2978120824050905,-11.630196759319306
2026-09-11T19:06:12.553,4.877664639999978,-14.400550842285156,-1296.049575805664,-5184.198303222656,-9.864377326965332,-8.330430034399033,-3.527181625366211,-2.4161194133758546,-5.404705201717635,4.247071893975134,0.0,0.06670380383729935,546.4375610351562,24.013369381427765,0.1983642727136612,71.41113817691803,-1315.5390202719732,1,1789167971.8320267,38.990297785,-76.94094333,-8.838000000000001,0,1,13.860729,6.682225,61.95264100000001,1,1,1789167972.5447853,-0.8913149511626115,0.45236905993815407,-0.008608882973063803,-0.029082272583458666,177.4728711223073,-2.3875352609611737,-53.76564960183362,0.0255778001879769,-0.020831900885953922,0.09035115751969125,1.546312597503662,0.47042500825881955,-9.633366653385163
2026-09-11T19:06:12.587,4.911082464000003,-14.515976905822754,-1306.4379215240479,-5225.751686096191,-9.943444180488587,-8.409496887922288,-3.4507038593292236,-2.3637321436405183,-5.287518216805019,1.5676445520598874,0.0,0.06584740430116653,539.4219360351562,23.705065548419952,-0.0457763709127903,-16.479493528604507,-2630.052504479504,1,1789167971.8320267,38.990297785,-76.94094333,-8.838000000000001,0,1,13.860729,6.682225,61.95264100000001,1,1,1789167972.5767853,-0.8904940416730207,0.4541024968279613,-0.007583836602448104,-0.027454863719331965,177.59056500029854,-2.2030709058708413,-53.99177675932067,0.03745459121487311,-0.001055400598680971,0.11892813149429521,-1.653107017765045,0.9822340802001953,-9.404087172603607
2026-09-11T19:06:12.619,4.944484192000004,-14.629387855529785,-1316.6449069976807,-5266.579627990723,-10.021130681037903,-8.487183388471603,-3.4260432720184326,-2.3468396413326267,-5.249730765328883,0.5057373770569904,0.0,0.060735709965229034,497.54693603515625,21.864855587482452,-0.1068115383386612,-38.45215380191803,-657.8300461973927,1,1789167971.8320267,38.990297785,-76.94094333,-8.838000000000001,0,1,13.860729,6.682225,61.95264100000001,1,1,1789167972.6157854,-0.8894282109252164,0.4561872912705353,-0.00718181968462091,-0.027550578208777887,177.56496661734246,-2.172711025593016,-54.26034851936276,-0.01524789447712326,0.04578539680049245,0.091784421901429,-0.7935541310882569,1.5543540506362916,-10.182342929439546
2026-09-11T19:06:12.652,4.9778928959999575,-14.746729850769043,-1327.2056865692139,-5308.8227462768555,-10.101509947776796,-8.567562655210496,-3.505821466445923,-2.4014877045154575,-5.371975001153039,-1.6357432836337347,0.0,0.057348258793354034,469.79693603515625,20.645373165607452,-0.061035171151161194,-21.97266161441803,493.26942426509964,1,1789167971.8320267,38.990297785,-76.94094333,-8.838000000000001,0,1,13.860729,6.682225,61.95264100000001,1,1,1789167972.6437855,-0.8887853590665495,0.45734676631883925,-0.005994214659288092,-0.02930171048358933,177.3270005223273,-2.146643107259113,-54.40835177048583,-0.02431802153388739,0.028875948875470587,0.059224606573773986,-2.660838388385773,2.2128706089973447,-9.064188677997588
2026-09-11T19:06:12.687,5.011301567999965,-14.862284660339355,-1337.605619430542,-5350.422477722168,-10.18066499233246,-8.64671769976616,-3.4298009872436523,-2.3494136762619022,-5.255488717479196,1.5586979408682826,0.0,0.05402375012636185,442.56256103515625,19.448550045490265,-0.1068115383386612,-38.45215380191803,-493.2698967350872,1,1789167971.8320267,38.990297785,-76.94094333,-8.838000000000001,0,1,13.860729,6.682225,61.95264100000001,1,1,1789167972.6767855,-0.8882006685032291,0.4585661232738301,-0.007553440774797173,-0.027561360425217618,177.58919691011306,-2.217634167681606,-54.566735556992825,0.19830902200057612,0.04942842254818021,0.037662110862935236,-1.2733935235023497,1.0037106440544128,-11.800342139625549
2026-09-11T19:06:12.720,5.044710303999977,-14.975614547729492,-1347.8053092956543,-5391.221237182617,-10.258295965194703,-8.724348672628404,-3.4573118686676025,-2.368258630037308,-5.297643678501489,-0.5640726358338952,0.0,0.0502471998333931,411.62506103515625,18.088991940021515,-0.1831054836511612,-65.91797411441803,-822.1149196572311,1,1789167971.8320267,38.990297785,-76.94094333,-8.838000000000001,0,1,13.860729,6.682225,61.95264100000001,1,1,1789167972.7157853,-0.887549318781722,0.4596823632970115,-0.008093185324877579,-0.02971248820063246,177.40123733864382,-2.3889415469953197,-54.70717751505114,-0.016249189868992406,0.009120741605071968,0.019564093717305237,1.2512304941368104,1.9853563252449036,-12.58918907863617
2026-09-11T19:06:12.752,5.078120319999982,-15.090380668640137,-1358.1342601776123,-5432.537040710449,-10.336910758018494,-8.802963465452194,-3.484622001647949,-2.386966071128845,-5.339491032410618,-0.5599351132167792,0.0,0.04100991040468216,335.95318603515625,14.763567745685577,-0.3509521782398224,-126.34278416633606,-1808.5836909479276,1,1789167971.8320267,38.990297785,-76.94094333,-8.838000000000001,0,1,13.860729,6.682225,61.95264100000001,1,1,1789167972.7437854,-0.8872065236611261,0.46016391441137483,-0.007612365059961915,-0.0324932015186962,177.09395644686967,-2.4880992868375054,-54.76535318799436,0.030932121267245104,0.10361216917634417,-0.004787612671145645,0.3527452063179016,2.6784903586769104,-9.081056116275787
2026-09-11T19:06:12.786,5.1115199999999845,-15.2100191116333,-1368.901720046997,-5475.606880187988,-10.418863091468811,-8.884915798902512,-3.511608839035034,-2.4054520547389986,-5.380843000042493,-0.5534778659601577,0.0,0.029403693974018097,240.87506103515625,10.585329830646515,-0.4577637016773224,-164.79493260383606,-1151.2729594264795,1,1789167971.8320267,38.990297785,-76.94094333,-8.838000000000001,0,1,13.860729,6.682225,61.95264100000001,1,1,1789167972.7757854,-0.8866977030641421,0.46105467934413225,-0.007645405721952697,-0.03372408348644268,176.9728639551958,-2.5594296973751294,-54.87836323962044,-0.023134513768110036,0.04634529842453223,-0.003507064598957406,-0.14759008493423462,0.540738689918518,-7.775987112751007
2026-09-11T19:06:12.820,5.144919872000003,-15.32862377166748,-1379.5761394500732,-5518.304557800293,-10.500107283592225,-8.966159991025926,-3.5385794639587402,-2.4239269328117374,-5.422170125294683,-0.5531421818840744,0.0,0.021003730595111847,172.06256103515625,7.561343014240265,0.0762939527630806,27.465822994709015,5756.332108052408,1,1789167971.8320267,38.990297785,-76.94094333,-8.838000000000001,0,1,13.860729,6.682225,61.95264100000001,1,1,1789167972.8167853,-0.8866055544046074,0.4610211367083719,-0.009220325395225493,-0.03612600180791296,176.81121166747076,-2.8464381270529215,-54.868218399979995,-0.046915672024083976,0.015329750419041796,-0.020623159507415396,1.748035391330719,0.5162220645141602,-9.721920704345703
2026-09-11T19:06:12.854,5.178337759999977,-15.447303771972656,-1390.257339477539,-5561.029357910156,-10.58140308380127,-9.04745579123497,-3.4867210388183594,-2.388403911590576,-5.342707389921648,1.0629942030205157,0.0,0.022672660648822784,185.73443603515625,8.162157833576202,0.0,0.0,-821.8898511698394,1,1789167972.8392458,38.99030131,-76.94095877833334,-8.724999999999998,0,1,9.771875999999999,6.195120999999999,49.632025,1,1,1789167972.8447855,-0.8865166545099342,0.4612689576262804,-0.010253095914195605,-0.03484313463299711,176.99715505371373,-2.884524939206008,-54.90175763877731,0.006303431126502721,-0.044846933261695095,-0.033769852098062686,1.918867237148285,1.1454167388916017,-10.987468907718657
2026-09-11T19:06:12.887,5.211744543999998,-15.563068389892578,-1400.676155090332,-5602.704620361328,-10.660701847076417,-9.126754554510118,-3.4608895778656006,-2.3707093608379366,-5.30312580717147,0.5296693854945194,0.0,0.023750312626361847,194.56256103515625,8.550112545490265,0.015258789993822575,5.493164397776127,164.4326014073241,1,1789167972.8392458,38.99030131,-76.94095877833334,-8.724999999999998,0,1,9.771875999999999,6.195120999999999,49.632025,1,1,1789167972.8757854,-0.8863271218767067,0.46158759785146464,-0.01049893716887792,-0.0353679919389292,176.95773238352814,-2.938374848772853,-54.94177839154724,-0.03658995510343512,-0.07381154486316699,-0.010152405725925816,3.602865202922821,0.826308342628479,-7.84728145942688
2026-09-11T19:06:12.920,5.245143519999999,-15.678142547607422,-1411.032829284668,-5644.131317138672,-10.739527645111085,-9.205580352544786,-3.4357621669769287,-2.3534970843791965,-5.26462304129204,0.5153534185820453,0.0,0.023834235966205597,195.25006103515625,8.580324947834015,0.0,0.0,-164.47104239890427,1,1789167972.8392458,38.99030131,-76.94095877833334,-8.724999999999998,0,1,9.771875999999999,6.195120999999999,49.632025,1,1,1789167972.9167855,-0.8862090165700235,0.46202934897386294,-0.006233964255498421,-0.03352010331788031,176.92182070103567,-2.408491832026352,-55.006280056500806,0.002998999253701857,-0.07977673118063322,-0.017430777772592568,-1.7962841101264952,1.1461032044029236,-10.192051513099669
2026-09-11T19:06:12.953,5.278549215999988,-15.795141220092773,-1421.5627098083496,-5686.250839233398,-10.819671735763551,-9.285724443197251,-3.488870859146118,-2.3898765385150913,-5.346001562533752,-1.0890194934393052,0.0,0.023956306278705597,196.25006103515625,8.624270260334015,0.0,0.0,0.0,1,1789167972.8392458,38.99030131,-76.94095877833334,-8.724999999999998,0,1,9.771875999999999,6.195120999999999,49.632025,1,1,1789167972.9437854,-0.8859936910643326,0.4625732231288048,-0.005745339742776496,-0.03175190875630779,177.07730067653986,-2.26697384280576,-55.07986780480908,-0.06714648151565104,-0.09151791012464947,-0.012802688195079204,0.5211253895950317,0.2547767712020874,-9.215799489498139
2026-09-11T19:06:12.987,5.311948031999975,-15.908666610717773,-1431.7799949645996,-5727.119979858398,-10.897436628341676,-9.363489335775377,-3.4377589225769043,-2.3548648619651797,-5.267682672613585,1.048290949892491,0.0,0.023765571415424347,194.68756103515625,8.555605709552765,-0.0305175818502903,-10.986329466104507,-328.94368070139313,1,1789167972.8392458,38.99030131,-76.94095877833334,-8.724999999999998,0,1,9.771875999999999,6.195120999999999,49.632025,1,1,1789167972.9767854,-0.885782780471166,0.46306939616922194,-0.005703252983770647,-0.03038211739898493,177.21562174552855,-2.1916249423410794,-55.1460545917604,-0.020463461880857913,-0.03842359801558036,-0.02285735548289334,0.23790933292388916,0.508474810886383,-11.437594150142669
2026-09-11T19:06:13.021,5.3453576,-16.022523880004883,-1442.0271492004395,-5768.108596801758,-10.975428857803346,-9.441481565237046,-3.3863189220428467,-2.31962846159935,-5.188861089833902,1.0546799158194355,0.0,0.02358437329530716,193.20318603515625,8.490374386310577,-0.015258789993822575,-5.493164397776127,164.4189194042957,1,1789167972.8392458,38.99030131,-76.94095877833334,-8.724999999999998,0,1,9.771875999999999,6.195120999999999,49.632025,1,1,1789167973.0157855,-0.8854332410820247,0.46363151958191484,-0.008292927901679943,-0.03138498022881398,177.25248192971432,-2.5096585736590495,-55.214811301226106,-0.01595562548880696,-0.009694780396052902,-0.009824283826550881,0.3790270287513733,0.624095216293335,-12.714910333709716
2026-09-11T19:06:13.054,5.37877567999999,-16.135086059570312,-1452.1577453613281,-5808.6309814453125,-11.052533950805666,-9.518586658239366,-3.3347198963165283,-2.284283128976822,-5.109795832535834,1.0576709560375346,0.0,0.023527152836322784,192.73443603515625,8.469775021076202,0.0,0.0,164.3770197981986,1,1789167972.8392458,38.99030131,-76.94095877833334,-8.724999999999998,0,1,9.771875999999999,6.195120999999999,49.632025,1,1,1789167973.0447853,-0.8853553354602948,0.46377999983071494,-0.008538517631258857,-0.031323081675842794,177.2722302042125,-2.531766440183475,-55.23394203503098,0.019475954590079524,0.050118176668568375,-0.029875149872237335,-1.3805802097702025,0.8434699804115295,-8.798330392112732
2026-09-11T19:06:13.086,5.41217590399998,-16.248493194580078,-1462.364387512207,-5849.457550048828,-11.130217838287354,-9.596270545721055,-3.413369655609131,-2.338158214092255,-5.230310965668067,-1.6130156826328015,0.0,0.023956306278705597,196.25006103515625,8.624270260334015,0.0,0.0,0.0,1,1789167972.8392458,38.99030131,-76.94095877833334,-8.724999999999998,0,1,9.771875999999999,6.195120999999999,49.632025,1,1,1789167973.0768368,-0.8851223813708937,0.4640059850814675,-0.008633731912089672,-0.034384218446335706,176.9667637607779,-2.704952098182916,-55.257948474028154,-0.018635229489393855,0.05574058032094291,-0.013959492423301046,0.0889463169670105,2.329863945426941,-8.802449185180663
2026-09-11T19:06:13.120,5.445576512000002,-16.36724090576172,-1473.0516815185547,-5892.206726074219,-11.211560020446779,-9.67761272788048,-3.544053554534912,-2.427676684856415,-5.430558081729627,-2.680144947184811,0.0,0.025711067020893097,210.62506103515625,9.255984127521515,0.0762939527630806,27.465822994709015,822.3150606926304,1,1789167972.8392458,38.99030131,-76.94095877833334,-8.724999999999998,0,1,9.771875999999999,6.195120999999999,49.632025,1,1,1789167973.1168368,-0.8848017234101142,0.46443494126117296,-0.006353851764196345,-0.03722531603601387,176.55816656247265,-2.6262851172025035,-55.31129785594727,-0.05034664026765443,0.025875029759591533,0.006284232504730783,0.8418028498840332,2.106958787250519,-10.889500472602844
2026-09-11T19:06:13.155,5.478996671999994,-16.48874282836914,-1483.9868545532227,-5935.947418212891,-11.294788837432861,-9.760841544866564,-3.623147964477539,-2.4818563556671145,-5.5517545536576405,-1.621167307718252,0.0,0.03412628918886185,279.56256103515625,12.285464107990265,0.3967285454273224,142.82227635383606,3451.702605827035,1,1789167972.8392458,38.99030131,-76.94095877833334,-8.724999999999998,0,1,9.771875999999999,6.195120999999999,49.632025,1,1,1789167973.1438367,-0.8842060018507732,0.4653323456455774,-0.005444609934974736,-0.04019839063583465,176.21036614053148,-2.6961618363036908,-55.42388622793695,-0.048702365579350565,-0.012329354901938344,0.025161713694301452,0.10806928478240967,1.8324706492233276,-10.67581356557846
2026-09-11T19:06:13.188,5.51240383999999,-16.612411499023438,-1495.1170349121094,-5980.4681396484375,-11.379501876831055,-9.845554584264756,-3.7023158073425293,-2.536086328029633,-5.6730635469524655,-1.6233034887160736,0.0,0.056539542973041534,463.17193603515625,20.354235470294952,0.7781983017921448,280.1513886451721,4110.7678535142595,1,1789167972.8392458,38.99030131,-76.94095877833334,-8.724999999999998,0,1,9.771875999999999,6.195120999999999,49.632025,1,1,1789167973.1838367,-0.8832067793489359,0.4671445595194761,-0.0017148356255262578,-0.0414584703313088,175.88875506393373,-2.3935573487954382,-55.66447501340153,-0.17912069767122524,-0.11622514008173158,0.05744000741360978,-0.8483733054924012,0.6573397603416443,-10.229316783714294
2026-09-11T19:06:13.221,5.545815359999949,-16.735523223876953,-1506.1970901489258,-6024.788360595703,-11.463833408355713,-9.929886115789413,-3.7563939094543457,-2.573129827976227,-5.7559274963677165,-1.1087044213085733,0.0,0.058279044926166534,477.42193603515625,20.980456173419952,0.1983642727136612,71.41113817691803,-6247.553253144782,1,1789167972.8392458,38.99030131,-76.94095877833334,-8.724999999999998,0,1,9.771875999999999,6.195120999999999,49.632025,1,1,1789167973.2158368,-0.8821302100004147,0.46921403442508586,-0.00024085532684239698,-0.04104174084843348,175.85751208928878,-2.231641994202697,-55.93721268398422,0.00625107124894289,-0.1057584005575216,0.11304532471752313,0.2414397269821167,2.2738679730033873,-14.269558583850861
2026-09-11T19:06:13.254,5.579240384000002,-16.860877990722656,-1517.479019165039,-6069.916076660156,-11.54970142364502,-10.01575413107872,-3.7580578327178955,-2.5742696154117586,-5.758477128247485,-0.03409982399802814,0.0,0.07227898389101028,592.1094360351562,26.020434200763702,0.4119873642921448,148.31545114517212,2300.800531007321,1,1789167972.8392458,38.99030131,-76.94095877833334,-8.724999999999998,0,1,9.771875999999999,6.195120999999999,49.632025,1,1,1789167973.2438366,-0.8811671702019602,0.4712025128626186,0.002129858430383976,-0.03883392503069851,175.9582373715315,-1.8821475161474617,-56.20470349372176,0.041141075660935535,-0.09334928410876711,0.13603427802601684,0.9193734526634216,1.5034575362968445,-9.324064907283784
