timestamp,time_s,drive_pos_turns,drive_encoder_count,drive_wheel_angle_deg,drive_distance_m,drive_distance_since_start_m,drive_velocity_turns_s,drive_velocity_mps,drive_velocity_mph,drive_acceleration_mps2,drive_iq_A,steer_pos_turns,steer_encoder_count,steer_angle_deg,steer_velocity_turns_s,steer_velocity_deg_s,steer_acceleration_deg_s2,gps_received,gps_ros_stamp_s,gps_latitude_deg,gps_longitude_deg,gps_altitude_m,gps_status,gps_service,gps_cov_x_m2,gps_cov_y_m2,gps_cov_z_m2,gps_covariance_type,imu_received,imu_ros_stamp_s,imu_qx,imu_qy,imu_qz,imu_qw,imu_roll_deg,imu_pitch_deg,imu_yaw_deg,imu_gyro_x_rad_s,imu_gyro_y_rad_s,imu_gyro_z_rad_s,imu_accel_x_mps2,imu_accel_y_mps2,imu_accel_z_mps2
2026-09-11T19:04:27.706,8.063999985097325e-06,-276.23699951171875,-24861.329956054688,-99445.31982421875,-189.22234466552734,-0.0026966857910156253,-0.8072858452796936,-0.5529908040165902,-1.2370051986770525,0.0,0.0,0.022428516298532486,183.73440551757812,8.074265867471695,0.0,0.0,0.0,1,1789167867.20755,38.99037835833333,-76.93980760666666,-9.383000000000003,0,1,11.874916,11.539608999999999,65.593801,1,1,1789167867.6960766,0.8626981679295574,-0.5049681238754155,-0.005310520573529636,0.027034483386337533,177.01829718050874,-1.039422619738061,-60.65687999989313,-0.0010419615634406148,0.03521673004796599,-0.0026776841384097004,0.14768815143585207,0.3260711178779602,-9.743887600708009
2026-09-11T19:04:27.739,0.03342931199998134,-276.23944091796875,-24861.549682617188,-99446.19873046875,-189.22401702880862,-0.004369049072265626,-0.17702928185462952,-0.12126505807042123,-0.2712622093558095,12.917702712544353,0.0,0.022428516298532486,183.73440551757812,8.074265867471695,0.0,0.0,0.0,1,1789167867.20755,38.99037835833333,-76.93980760666666,-9.383000000000003,0,1,11.874916,11.539608999999999,65.593801,1,1,1789167867.7280767,0.8627026950668202,-0.5050629234986692,-0.00401296918802062,0.025286346310182596,177.26646616204673,-1.0668169987963394,-60.6675950409632,0.0016624261125245988,0.03501270105840784,-0.004262094033370153,0.187895417098999,0.17092991231918336,-9.731825421009063
2026-09-11T19:04:27.774,0.0668570879999777,-276.2391662597656,-24861.524963378906,-99446.09985351562,-189.22382888793948,-0.004180908203125,-0.019465094432234764,-0.013333589686080815,-0.029826390672156408,3.2287959684889653,0.0,0.022428516298532486,183.73440551757812,8.074265867471695,0.0,0.0,0.0,1,1789167867.20755,38.99037835833333,-76.93980760666666,-9.383000000000003,0,1,11.874916,11.539608999999999,65.593801,1,1,1789167867.7680767,0.8627127772966297,-0.5051614179080085,-0.002166401800037648,0.02310654559960668,177.589114390864,-1.123476394599926,-60.67856702838572,-0.00028588493147667116,0.023138004426614026,0.00011047934165124105,0.1847572890472412,0.09649743759155273,-9.726431763420106
2026-09-11T19:04:27.807,0.10027696000000219,-276.2391357421875,-24861.522216796875,-99446.0888671875,-189.22380798339844,-0.004160003662109375,0.0,0.0,0.0,0.3989718957053768,0.0,0.022428516298532486,183.73440551757812,8.074265867471695,0.0,0.0,0.0,1,1789167867.20755,38.99037835833333,-76.93980760666666,-9.383000000000003,0,1,11.874916,11.539608999999999,65.593801,1,1,1789167867.7960768,0.8627623325434141,-0.505148175895182,-0.00113500913673843,0.021568256495997237,177.80097523556137,-1.1363554918669658,-60.676218035659936,0.0021451841836262306,0.018056827375282934,-0.0016711527587845705,0.1648497892189026,0.06815621862411499,-9.692206554355622
2026-09-11T19:04:27.841,0.1336961599999995,-276.2391357421875,-24861.522216796875,-99446.0888671875,-189.22380798339844,-0.004160003662109375,0.0,0.0,0.0,0.0,0.0,0.022428516298532486,183.73440551757812,8.074265867471695,0.0,0.0,0.0,1,1789167867.20755,38.99037835833333,-76.93980760666666,-9.383000000000003,0,1,11.874916,11.539608999999999,65.593801,1,1,1789167867.8360767,0.8628930402013751,-0.5049977391711715,-3.3658085307530485e-05,0.01982128833267026,178.03734335625404,-1.1437756379779176,-60.65598701362772,0.0018291050560900574,0.006694210346024251,-0.004386361476112149,0.1859340870666504,0.1471978189277649,-9.710250790653228
2026-09-11T19:04:27.874,0.1671099520000041,-276.2391357421875,-24861.522216796875,-99446.0888671875,-189.22380798339844,-0.004160003662109375,0.0,0.0,0.0,0.0,0.0,0.022397998720407486,183.48440551757812,8.063279539346695,-0.015258789993822575,-5.493164397776127,-164.39811434078987,1,1789167867.20755,38.99037835833333,-76.93980760666666,-9.383000000000003,0,1,11.874916,11.539608999999999,65.593801,1,1,1789167867.8680768,0.8630331815321173,-0.5047889288508082,-0.0005205445365355859,0.019015622987184972,178.0886397603415,-1.0485287475968543,-60.629320330950016,0.00010576695267085638,-0.007329510193750187,-0.0016851153928005252,0.12719225259780884,0.28086246063232423,-9.71054499015808
2026-09-11T19:04:27.907,0.20052819199997884,-276.2391357421875,-24861.522216796875,-99446.0888671875,-189.22380798339844,-0.004160003662109375,0.0,0.0,0.0,0.0,0.0,0.022184375673532486,181.73440551757812,7.986375242471695,0.0,0.0,164.37623279323748,1,1789167867.20755,38.99037835833333,-76.93980760666666,-9.383000000000003,0,1,11.874916,11.539608999999999,65.593801,1,1,1789167867.8960767,0.8631289003915602,-0.5046139902521796,-0.0012986507075360893,0.019275260230900437,178.017753508369,-0.9861850356828723,-60.60690414864538,0.0017493435092739164,-0.004146378703962929,-0.00020053833105414847,0.16955698129653932,0.41590003335952763,-9.716919312763213
2026-09-11T19:04:27.942,0.23395199999998795,-276.2391357421875,-24861.522216796875,-99446.0888671875,-189.22380798339844,-0.004160003662109375,0.0,0.0,0.0,0.0,0.0,0.021444324404001236,175.67190551757812,7.719956785440445,-0.0305175818502903,-10.986329466104507,-328.69771948491075,1,1789167867.20755,38.99037835833333,-76.93980760666666,-9.383000000000003,0,1,11.874916,11.539608999999999,65.593801,1,1,1789167867.9360766,0.8631701669888183,-0.5044917354026157,-0.002306964259121412,0.0204946248284692,177.83865485508835,-0.9566623618767629,-60.59143531029593,-0.0006557201999742696,0.007997796764338816,-0.0018025760514597435,0.15514120555877686,0.533677901802063,-9.73310028553009
2026-09-11T19:04:27.974,0.2673739519999856,-276.2391357421875,-24861.522216796875,-99446.0888671875,-189.22380798339844,-0.004160003662109375,0.0,0.0,0.0,0.0,0.0,0.020610813051462173,168.84378051757812,7.4198926985263824,-0.015258789993822575,-5.493164397776127,164.35799645480813,1,1789167867.20755,38.99037835833333,-76.93980760666666,-9.383000000000003,0,1,11.874916,11.539608999999999,65.593801,1,1,1789167867.9680767,0.8631648317456163,-0.5044255563771692,-0.0032663071082886016,0.02215090402262105,177.6192036176164,-0.9573562577272697,-60.58334768997479,0.0012552407980343217,0.011730881501429487,-0.0016243779348311224,0.13690083625793456,0.685680979309082,-9.668866726970673
2026-09-11T19:04:28.008,0.3007898559999944,-276.2391357421875,-24861.522216796875,-99446.0888671875,-189.22380798339844,-0.004160003662109375,0.0,0.0,0.0,0.0,0.0,0.019901279360055923,163.03128051757812,7.1644605696201324,-0.03051757998764515,-10.986328795552254,-164.3877238148241,1,1789167867.20755,38.99037835833333,-76.93980760666666,-9.383000000000003,0,1,11.874916,11.539608999999999,65.593801,1,1,1789167867.9960766,0.8630888984412424,-0.5044632246875491,-0.00375896230769018,0.024088971079967412,177.39893447728238,-1.0207991010729045,-60.58818555907042,0.0023188444441996662,0.006984807666481307,0.0006724753607934152,0.27537073654174804,0.7855126779556275,-9.693481418876647
2026-09-11T19:04:28.041,0.3342089599999838,-276.2391357421875,-24861.522216796875,-99446.0888671875,-189.22380798339844,-0.004160003662109375,0.0,0.0,0.0,0.0,0.0,0.019742969423532486,161.73440551757812,7.107468992471695,0.0,0.0,328.7439661923835,1,1789167867.20755,38.99037835833333,-76.93980760666666,-9.383000000000003,0,1,11.874916,11.539608999999999,65.593801,1,1,1789167868.0360768,0.8629521210192618,-0.5045595985496256,-0.005361399323190556,0.026542489278423488,177.06356886537898,-1.0045194489920655,-60.60306348115592,-0.0028522170636091334,-0.01482395400181384,-0.0011901400169349334,0.15268954301834106,0.8588664211654664,-9.677790778617858
2026-09-11T19:04:28.075,0.3676266559999988,-276.2391357421875,-24861.522216796875,-99446.0888671875,-189.22380798339844,-0.004160003662109375,0.0,0.0,0.0,0.0,0.0,0.019742969423532486,161.73440551757812,7.107468992471695,0.0,0.0,0.0,1,1789167867.20755,38.99037835833333,-76.93980760666666,-9.383000000000003,0,1,11.874916,11.539608999999999,65.593801,1,1,1789167868.0680766,0.8626924034541765,-0.5049228348181275,-0.0060097959353372045,0.02790394693404352,176.8917488018452,-1.0204613800694213,-60.652098878605784,-0.0014386749024189259,-0.021684668758478347,-0.0024029693141457927,0.16494785572052004,0.720004254875183,-9.712015987682342
2026-09-11T19:04:28.108,0.4010565119999967,-276.2391357421875,-24861.522216796875,-99446.0888671875,-189.22380798339844,-0.004160003662109375,0.0,0.0,0.0,0.0,0.0,0.019742969423532486,161.73440551757812,7.107468992471695,0.0,0.0,0.0,1,1789167867.20755,38.99037835833333,-76.93980760666666,-9.383000000000003,0,1,11.874916,11.539608999999999,65.593801,1,1,1789167868.0960767,0.8624877117981962,-0.5052684185855789,-0.006287272952081183,0.027914913146302543,176.87501279780753,-0.994914244941646,-60.69869115378733,-7.749261878854824e-05,-0.015615809883443665,0.00023771384412162768,0.13425304071426392,0.6195841572189331,-9.719665174808501
2026-09-11T19:04:28.142,0.43447558399998343,-276.2391357421875,-24861.522216796875,-99446.0888671875,-189.22380798339844,-0.004160003662109375,0.0,0.0,0.0,0.0,0.0,0.019742969423532486,161.73440551757812,7.107468992471695,0.0,0.0,0.0,1,1789167867.20755,38.99037835833333,-76.93980760666666,-9.383000000000003,0,1,11.874916,11.539608999999999,65.593801,1,1,1789167868.1360767,0.8622204071278303,-0.5057238258998028,-0.006006389979216772,0.027987581692636657,176.88462093613063,-1.0285322295342405,-60.758396408683474,-0.0025425956543053394,-0.011645185835156566,-0.0019353956075365121,0.1918180771636963,0.6486118416976929,-9.686420630760193
2026-09-11T19:04:28.175,0.46789155199999755,-276.2391357421875,-24861.522216796875,-99446.0888671875,-189.22380798339844,-0.004160003662109375,0.0,0.0,0.0,0.0,0.0,0.019742969423532486,161.73440551757812,7.107468992471695,0.0,0.0,0.0,1,1789167867.20755,38.99037835833333,-76.93980760666666,-9.383000000000003,0,1,11.874916,11.539608999999999,65.593801,1,1,1789167868.1680768,0.8620039173561332,-0.5060460661580003,-0.006351389576589997,0.02874517766755985,176.79008295342234,-1.0395699397440115,-60.8016596658861,-0.00013281955607676848,-0.0057526052145733106,-0.0011377801393751034,0.14700168592453003,0.7197100553703307,-9.699267342472076
2026-09-11T19:04:28.209,0.5013045439999928,-276.2391357421875,-24861.522216796875,-99446.0888671875,-189.22380798339844,-0.004160003662109375,0.0,0.0,0.0,0.0,0.0,0.019742969423532486,161.73440551757812,7.107468992471695,0.0,0.0,0.0,1,1789167868.1959147,38.99037864833333,-76.93980794,-9.419,0,1,14.047504000000002,12.355225,69.872881,1,1,1789167868.1960766,0.8617989286794846,-0.5063423151578269,-0.006805897860960712,0.029559197584017385,176.68358855475987,-1.043042141179639,-60.84177901384952,-0.0012774064795346499,-0.011202919402701203,-0.0018006561892825498,0.17063571281433104,0.7685471731758117,-9.696619546928405
2026-09-11T19:04:28.242,0.5347201599999778,-276.2391357421875,-24861.522216796875,-99446.0888671875,-189.22380798339844,-0.004160003662109375,0.0,0.0,0.0,0.0,0.0,0.019742969423532486,161.73440551757812,7.107468992471695,0.0,0.0,0.0,1,1789167868.1959147,38.99037864833333,-76.93980794,-9.419,0,1,14.047504000000002,12.355225,69.872881,1,1,1789167868.2360766,0.8614461990251135,-0.5068207017164539,-0.007601183954368902,0.03139179031718053,176.4568408819773,-1.0728686614089011,-60.9065664047648,-0.0017055357450488588,-0.02538895556291111,-0.00521068048182907,0.1775984344291687,0.9233941792297362,-9.735748081073762
2026-09-11T19:04:28.275,0.5681359679999787,-276.2399597167969,-24861.59637451172,-99446.38549804688,-189.22437240600587,-0.00472442626953125,-0.026260698214173317,-0.017988578276708724,-0.04023930358963114,-0.5383254020584584,0.0,0.0180969275534153,148.25003051757812,6.5148939192295074,-0.0610351637005806,-21.972658932209015,-657.5528244658467,1,1789167868.1959147,38.99037864833333,-76.93980794,-9.419,0,1,14.047504000000002,12.355225,69.872881,1,1,1789167868.2680767,0.8611910050653662,-0.5070996719844524,-0.008534875676215374,0.03357277714096612,176.18738080055178,-1.1086950938977285,-60.94525531441454,0.00034836771869806816,-0.023302414442151892,-0.01208082001645435,0.270369344959259,1.1397288817977906,-9.709956591148377
2026-09-11T19:04:28.308,0.6015534400000035,-276.2408447265625,-24861.676025390625,-99446.7041015625,-189.22497863769533,-0.005330657958984375,-0.026260698214173317,-0.017988578276708724,-0.04023930358963114,0.0,0.0,0.015010837465524673,122.96878051757812,5.4039014875888824,-0.1068115308880806,-38.452151119709015,-493.1400013588022,1,1789167868.1959147,38.99037864833333,-76.93980794,-9.419,0,1,14.047504000000002,12.355225,69.872881,1,1,1789167868.2960768,0.86097975121659,-0.5072943179677962,-0.009677600744312714,0.03567473891201889,175.91347665526538,-1.119100592983013,-60.973755691640505,-0.003092374368683553,-0.01826766314892385,-0.013974676787793398,0.062370295028686525,1.2311268613052369,-9.598847244815826
2026-09-11T19:04:28.342,0.6349727999999857,-276.2417297363281,-24861.75567626953,-99447.02270507812,-189.2255848693848,-0.005936889648437501,-0.026260698214173317,-0.017988578276708724,-0.04023930358963114,0.0,0.0,0.0077972449362277985,63.875030517578125,2.8070081770420074,-0.3051758110523224,-109.86329197883606,-2136.819521952701,1,1789167868.1959147,38.99037864833333,-76.93980794,-9.419,0,1,14.047504000000002,12.355225,69.872881,1,1,1789167868.3360767,0.8606452349800169,-0.5075934856030647,-0.01152090514473571,0.03880594830910995,175.49723482443167,-1.12103302002477,-61.018644687450525,-0.0018854791909294743,0.001754754029955099,-0.019285015569911346,0.10140076267242432,1.3799918107604983,-9.72123423883438
2026-09-11T19:04:28.375,0.6683897919999993,-276.2722473144531,-24864.50225830078,-99458.00903320312,-189.24648941040041,-0.026841430664062502,-0.8510111570358276,-0.582942642569542,-1.3040055533499046,-16.90619144573526,0.0,-0.0025768280029296875,-21.109375,-0.9276580810546875,-0.07629397511482239,-27.46583104133606,2465.7354239862916,1,1789167868.1959147,38.99037864833333,-76.93980794,-9.419,0,1,14.047504000000002,12.355225,69.872881,1,1,1789167868.3680768,0.8602790409317913,-0.5080644749936213,-0.011778891733904928,0.04064134215861969,175.30147917121957,-1.2050521414328828,-61.08114583708744,0.00222232773656438,0.024235991059043657,-0.020694019875046366,0.22290515817642212,1.1681681672668458,-9.726922095928192
2026-09-11T19:04:28.408,0.7018080320000024,-276.28045654296875,-24865.241088867188,-99460.96435546875,-189.2521127319336,-0.03246475219726563,-0.25225281715393066,-0.1727931797504425,-0.38652733480324425,12.27322153467869,0.0,-0.003875732421875,-31.75,-1.395263671875,-0.1983642727136612,-71.41113817691803,-1315.009621559299,1,1789167868.1959147,38.99037864833333,-76.93980794,-9.419,0,1,14.047504000000002,12.355225,69.872881,1,1,1789167868.3960767,0.8601083798968429,-0.5081744977080007,-0.012221029211863103,0.04269544654236671,175.07292426366226,-1.2818510438439714,-61.096254628479414,0.005499008874258534,0.03925734179925806,-0.03500659240602586,0.07649187126159668,1.4381452462196351,-9.607575163459778
2026-09-11T19:04:28.443,0.7352276160000031,-276.2889404296875,-24866.004638671875,-99464.0185546875,-189.25792419433594,-0.03827621459960938,-0.25225281715393066,-0.1727931797504425,-0.38652733480324425,0.0,0.0,-0.0080718994140625,-66.125,-2.9058837890625,-0.1373291164636612,-49.43848192691803,657.4784488639823,1,1789167868.1959147,38.99037864833333,-76.93980794,-9.419,0,1,14.047504000000002,12.355225,69.872881,1,1,1789167868.4360766,0.8598485569213321,-0.5083256225240622,-0.01323011186362854,0.04572181958215345,174.71533800289288,-1.3598344065051275,-61.118735973225036,0.010785960244399758,0.04751082929901405,-0.03543035834841009,-0.10346015920639039,1.4949257506561278,-9.452630090904236
2026-09-11T19:04:28.476,0.7686459839999884,-276.3173522949219,-24868.56170654297,-99474.24682617188,-189.2773863220215,-0.05773834228515626,-0.7257077693939209,-0.49710982203483584,-1.1120030020464282,-9.704742083291913,0.0,-0.011241912841796875,-92.09375,-4.047088623046875,-0.0762939602136612,-27.46582567691803,657.5023726475707,1,1789167868.1959147,38.99037864833333,-76.93980794,-9.419,0,1,14.047504000000002,12.355225,69.872881,1,1,1789167868.4680767,0.8595444963217646,-0.5085988238561494,-0.012990890244920915,0.048391445377776565,174.46588695757396,-1.5409361871279632,-61.15175187956946,0.0241921832948186,0.04662367844022532,-0.03993575127950825,0.29606276838302614,1.7072397266578674,-9.633758919391632
2026-09-11T19:04:28.509,0.8020619839999767,-276.3347473144531,-24870.12725830078,-99480.50903320312,-189.2893019104004,-0.0696539306640625,-0.5707197189331055,-0.39094300746917726,-0.8745146015326969,3.1771251665578046,0.0,-0.013986587524414062,-114.578125,-5.0351715087890625,-0.0762939602136612,-27.46582567691803,0.0,1,1789167868.1959147,38.99037864833333,-76.93980794,-9.419,0,1,14.047504000000002,12.355225,69.872881,1,1,1789167868.4960766,0.8593020305634295,-0.5088237227057167,-0.012738780288352913,0.0503603311965646,174.28639850777003,-1.6822247662099428,-61.178658010883424,0.03279909996810344,0.04256491526471251,-0.04092849455804262,0.6017360539245605,1.5949535823059082,-9.682105704689025
2026-09-11T19:04:28.543,0.8354790719999983,-276.3606872558594,-24872.461853027344,-99489.84741210938,-189.3070707702637,-0.08742279052734375,-0.7270106077194214,-0.4980022662878037,-1.1139993429845274,-3.203727949561538,0.0,-0.015413284301757812,-126.265625,-5.5487823486328125,0.0,0.0,821.9096073511953,1,1789167868.1959147,38.99037864833333,-76.93980794,-9.419,0,1,14.047504000000002,12.355225,69.872881,1,1,1789167868.5360768,0.8593411944221733,-0.5085714349326442,-0.014180128050265467,0.05183368700084798,174.05633973308028,-1.6246177152344476,-61.15106102379399,0.00970787036544286,0.030904021466287995,-0.0428773292008195,-0.378046363735199,1.6826250347518923,-11.56125600868225
2026-09-11T19:04:28.578,0.8688979840000002,-276.3902587890625,-24875.123291015625,-99500.4931640625,-189.32732727050782,-0.10767929077148439,-0.8067670464515686,-0.5526354268193245,-1.2362102425271204,-1.6347977017180486,0.0,-0.015413284301757812,-126.265625,-5.5487823486328125,0.0,0.0,0.0,1,1789167868.1959147,38.99037864833333,-76.93980794,-9.419,0,1,14.047504000000002,12.355225,69.872881,1,1,1789167868.568075,0.8593514760775637,-0.5086508590999642,-0.011644666468481528,0.05151452070065945,174.23566437279968,-1.8562546279488674,-61.149188097591015,-0.013444969359813118,0.06394467500286745,-0.03187180653651885,0.8520998325538635,0.6528287012672425,-10.831052837638856
2026-09-11T19:04:28.610,0.9023165440000014,-276.418212890625,-24877.63916015625,-99510.556640625,-189.34647583007813,-0.1268278503417969,-0.832800030708313,-0.5704680210351945,-1.2761006197100793,-0.5336134835214105,0.0,-0.015228271484375,-124.75,-5.482177734375,0.0,0.0,0.0,1,1789167868.1959147,38.99037864833333,-76.93980794,-9.419,0,1,14.047504000000002,12.355225,69.872881,1,1,1789167868.608075,0.8598024665840063,-0.508033805585775,-0.007815630071129067,0.05079652315547597,174.52792141307194,-2.1876779234229216,-61.050802808763066,0.010826277350120825,0.09374111052583983,-0.08056422373913305,-0.47866259439468384,0.34705734922409054,-8.725761180915832
2026-09-11T19:04:28.643,0.9357361919999789,-276.4479064941406,-24880.311584472656,-99521.24633789062,-189.36681594848633,-0.14716796875000002,-0.8342151641845703,-0.5714373874664307,-1.2782690306604108,-0.029005883940994587,0.0,-0.015228271484375,-124.75,-5.482177734375,0.0,0.0,0.0,1,1789167868.1959147,38.99037864833333,-76.93980794,-9.419,0,1,14.047504000000002,12.355225,69.872881,1,1,1789167868.636075,0.8601551990569771,-0.5075779746079968,-0.008240704752464587,0.04929223075981296,174.65091959130905,-2.05522385146859,-60.99373134997436,0.0027139869868511826,0.09321576642098954,-0.04122415333333047,-1.0541168258857727,1.2067083024024965,-9.77850507577896
2026-09-11T19:04:28.677,0.969156895999987,-276.47772216796875,-24882.994995117188,-99531.97998046875,-189.3872396850586,-0.16759170532226564,-0.8863121271133423,-0.6071238070726395,-1.358097277811021,-1.0677937725728386,0.0,-0.015413284301757812,-126.265625,-5.5487823486328125,0.0,0.0,0.0,1,1789167868.1959147,38.99037864833333,-76.93980794,-9.419,0,1,14.047504000000002,12.355225,69.872881,1,1,1789167868.668075,0.8601369997510431,-0.5072604291903251,-0.007604129204176551,0.05285239688005971,174.33474590080345,-2.323331537537253,-60.944454551976946,-0.012605640522529044,0.06608933558771808,-0.04425404491479262,1.42382753698349,2.2704356454467773,-9.256889353675842
2026-09-11T19:04:28.709,1.0025701440000034,-276.51495361328125,-24886.345825195312,-99545.38330078125,-189.41274322509767,-0.19309524536132813,-1.0701370239257812,-0.7330438613891602,-1.6397724172091075,-3.76856671690399,0.0,-0.015413284301757812,-126.265625,-5.5487823486328125,0.0,0.0,0.0,1,1789167868.1959147,38.99037864833333,-76.93980794,-9.419,0,1,14.047504000000002,12.355225,69.872881,1,1,1789167868.696075,0.8601891269816212,-0.50709192289783,-0.008243577876351183,0.05352093962342194,174.23102273978344,-2.2980622859456914,-60.92392406466892,0.0023712043217594962,0.02387278804170364,-0.07657544826662521,-0.35882532941818235,1.6604620053863526,-10.809772406787872
2026-09-11T19:04:28.743,1.0359846079999784,-276.5547790527344,-24889.930114746094,-99559.72045898438,-189.44002365112306,-0.22037567138671876,-1.2276852130889893,-0.8409643709659577,-1.8811837217384502,-3.2297543236629016,0.0,-0.015106201171875,-123.75,-5.438232421875,0.0,0.0,0.0,1,1789167868.1959147,38.99037864833333,-76.93980794,-9.419,0,1,14.047504000000002,12.355225,69.872881,1,1,1789167868.736075,0.8602645113784491,-0.506660190135077,-0.006794155714391807,0.05651779934865338,174.01699260249282,-2.612509590890434,-60.85609781512312,-0.01177940165463493,0.0033887312756721902,-0.06224873856870456,0.7809035523796082,1.3513563922882081,-10.446436018295287
2026-09-11T19:04:28.778,1.0694004799999846,-276.59576416015625,-24893.618774414062,-99574.47509765625,-189.46809844970704,-0.24845046997070314,-1.2279024124145508,-0.8411131525039673,-1.8815165365604116,-0.004452421232929417,0.0,-0.014200210571289062,-116.328125,-5.1120758056640625,0.0610351599752903,21.972657591104507,657.5515249489957,1,1789167868.1959147,38.99037864833333,-76.93980794,-9.419,0,1,14.047504000000002,12.355225,69.872881,1,1,1789167868.768075,0.8605627101502611,-0.5058142161075613,-0.006146142812925858,0.059548514766147136,173.7514117453394,-2.8466333883411217,-60.736184912103965,-0.015617729745620859,-0.017382781218162724,-0.08097455064627691,1.4501093594169616,2.492752404613495,-8.481477525386811
2026-09-11T19:04:28.811,1.1028241279999804,-276.6431579589844,-24897.884216308594,-99591.53686523438,-189.5005632019043,-0.28091522216796877,-1.3854668140411377,-0.9490447676181794,-2.1229526834694394,-3.2291991321302023,0.0,-0.013635635375976562,-111.703125,-4.9088287353515625,0.015258789993822575,5.493164397776127,-493.04890936292827,1,1789167868.1959147,38.99037864833333,-76.93980794,-9.419,0,1,14.047504000000002,12.355225,69.872881,1,1,1789167868.808075,0.860802556788341,-0.5051385237955295,-0.006480181706803547,0.061741697817399625,173.51230019874802,-2.9359691511655623,-60.64432414010441,-0.0015369369393062066,-0.06536589661276643,-0.07089108542580487,1.417943546886444,1.8732663138961791,-9.214622691478729
2026-09-11T19:04:28.843,1.1362421119999908,-276.6943359375,-24902.490234375,-99609.9609375,-189.5356201171875,-0.3159721374511719,-1.5430150032043457,-1.056965277194977,-2.3643639879987823,-3.2294141255428213,0.0,-0.013153076171875,-107.75,-4.735107421875,0.0,0.0,-164.3774920047367,1,1789167868.1959147,38.99037864833333,-76.93980794,-9.419,0,1,14.047504000000002,12.355225,69.872881,1,1,1789167868.836075,0.8610714680750885,-0.5044104514227694,-0.007489412857143353,0.06379601913556235,173.2477076803313,-2.9497963541079146,-60.54897110578132,-0.0005120796025351363,-0.04995324305425491,-0.08676939282874849,1.3830318723106383,1.9756477415847777,-9.413011224250793
2026-09-11T19:04:28.877,1.169655616,-276.7513732910156,-24907.623596191406,-99630.49438476562,-189.57469070434573,-0.355042724609375,-1.7264107465744019,-1.1825913614034653,-2.645381534993432,-3.759739900623827,0.0,-0.013153076171875,-107.75,-4.735107421875,0.0,0.0,0.0,1,1789167868.1959147,38.99037864833333,-76.93980794,-9.419,0,1,14.047504000000002,12.355225,69.872881,1,1,1789167868.868075,0.8615965695075767,-0.5033462213884949,-0.009741488920318783,0.06479997083575854,173.01483485467256,-2.77690561879105,-60.41757919304851,-0.008165173839605072,-0.014982080832044524,-0.11109526834426986,-0.014023509731292726,2.218754599094391,-9.480873243370056
2026-09-11T19:04:28.910,1.2030726079999852,-276.8123779296875,-24913.114013671875,-99652.4560546875,-189.61647888183595,-0.3968309020996094,-1.8579260110855103,-1.2726793175935747,-2.846902553672095,-2.6958726922563634,0.0,-0.013153076171875,-107.75,-4.735107421875,0.0,0.0,0.0,1,1789167868.1959147,38.99037864833333,-76.93980794,-9.419,0,1,14.047504000000002,12.355225,69.872881,1,1,1789167868.908075,0.8621800286276852,-0.5021278933029338,-0.012035267726431573,0.06609333804154803,172.75071526898665,-2.614825970971096,-60.266803599242806,-0.03168470724070506,-0.014836520372428197,-0.11563958211768749,2.1236300925254823,2.954841760234833,-8.86442721420288
2026-09-11T19:04:28.944,1.2364895359999934,-276.87872314453125,-24919.085083007812,-99676.34033203125,-189.66192535400393,-0.4422773742675782,-1.988800287246704,-1.3623281967639924,-3.047441385030402,-2.682738496201552,0.0,-0.01331329345703125,-109.0625,-4.79278564453125,-0.0457763709127903,-16.479493528604507,-493.14806940363945,1,1789167868.1959147,38.99037864833333,-76.93980794,-9.419,0,1,14.047504000000002,12.355225,69.872881,1,1,1789167868.936075,0.862658426999384,-0.5012917668727094,-0.011290310990872039,0.06632896554533986,172.76742815005838,-2.6950965861740097,-60.1514756986045,0.002495820830351891,-0.005588195199035445,-0.11282803122564983,-2.0873454869270325,0.6555745633125306,-9.077035389709472
2026-09-11T19:04:28.977,1.2699063039999885,-276.9490966796875,-24925.418701171875,-99701.6748046875,-189.71013122558594,-0.4904832458496094,-2.119584560394287,-1.4519154238700869,-3.2478423046485445,-2.680906397234698,0.0,-0.013582229614257812,-111.265625,-4.8896026611328125,0.0,0.0,493.15043060438853,1,1789167868.1959147,38.99037864833333,-76.93980794,-9.419,0,1,14.047504000000002,12.355225,69.872881,1,1,1789167868.968075,0.8628063386232515,-0.5007291887604954,-0.012391284216203804,0.06842483197106414,172.49403861078184,-2.7020427650867602,-60.08015119352382,-0.011066609188120446,-0.021686763153580743,-0.1308127765028254,0.14386355787277222,2.032232113018036,-8.908459073429109
2026-09-11T19:04:29.010,1.3033231679999915,-277.02301025390625,-24932.070922851562,-99728.28369140625,-189.7607620239258,-0.5411140441894532,-2.2243521213531494,-1.5236812031269074,-3.408377780795691,-2.147591684749774,0.0,-0.013256072998046875,-108.59375,-4.772186279296875,0.030517585575580597,10.986330807209015,328.7660627642388,1,1789167868.1959147,38.99037864833333,-76.93980794,-9.419,0,1,14.047504000000002,12.355225,69.872881,1,1,1789167869.008075,0.8636433222633528,-0.49940112045933466,-0.012371434795940951,0.06756981866905865,172.57625575139204,-2.6434117028278483,-59.90571123614217,-0.016958666209928103,-0.08710990656581259,-0.1466636822365127,0.9078016054725647,0.9795862846565248,-11.567139998779297
2026-09-11T19:04:29.044,1.3367426559999842,-277.0989074707031,-24938.90167236328,-99755.60668945312,-189.81275161743164,-0.5931036376953125,-2.251396894454956,-1.542206872701645,-3.4498185234020293,-0.5543373248190274,0.0,-0.010168075561523438,-83.296875,-3.6605072021484375,0.061035171151161194,21.97266161441803,328.7402490191174,1,1789167868.1959147,38.99037864833333,-76.93980794,-9.419,0,1,14.047504000000002,12.355225,69.872881,1,1,1789167869.0360749,0.863963781424472,-0.4988835180467716,-0.011265803405237498,0.0674900102358699,172.64566080105735,-2.743959052882058,-59.83096115895253,-0.015420158474295101,-0.06369683824908426,-0.1331497723712458,0.42041109243392943,1.897782939300537,-10.276682903995514
2026-09-11T19:04:29.077,1.3701598079999826,-277.1759948730469,-24945.83953857422,-99783.35815429688,-189.86555648803713,-0.6459085083007813,-2.3051624298095703,-1.5790362644195557,-3.532203526350112,-1.1021104287376897,0.0,-0.009002685546875,-73.75,-3.240966796875,0.0,0.0,-657.5264587005825,1,1789167868.1959147,38.99037864833333,-76.93980794,-9.419,0,1,14.047504000000002,12.355225,69.872881,1,1,1789167869.068075,0.8648889469435284,-0.4973481595565009,-0.010749134139030518,0.06705500545027962,172.71359637115324,-2.757320767772254,-59.62589220860792,-0.008115257422998033,-0.060371636958184656,-0.10908848877032677,3.6922037858963015,1.9746670765686036,-7.692434453372956
2026-09-11T19:04:29.112,1.4035832959999937,-277.2555847167969,-24953.00262451172,-99812.01049804688,-189.92007553100586,-0.7004275512695313,-2.33141827583313,-1.597021518945694,-3.5724353949214662,-0.5381022628796959,0.0,-0.009187698364257812,-75.265625,-3.3075714111328125,0.0,0.0,0.0,1,1789167868.1959147,38.99037864833333,-76.93980794,-9.419,0,1,14.047504000000002,12.355225,69.872881,1,1,1789167869.108075,0.8659143161330849,-0.49562843213972163,-0.00923579729464995,0.06677989531906667,172.82132627193783,-2.877527044641417,-59.39101942852388,-0.04139310120492351,0.0374586054721527,-0.10958695480469637,2.1616798951530454,1.3596920449256897,-8.7643993825531
2026-09-11T19:04:29.144,1.43700454399999,-277.3334045410156,-24960.006408691406,-99840.02563476562,-189.9733821105957,-0.753734130859375,-2.3572604656219482,-1.6147234189510347,-3.612033417481731,-0.5296600535486483,0.0,-0.008131027221679688,-66.609375,-2.9271697998046875,0.030517585575580597,10.986330807209015,328.72293719283766,1,1789167868.1959147,38.99037864833333,-76.93980794,-9.419,0,1,14.047504000000002,12.355225,69.872881,1,1,1789167869.136075,0.8664955577007456,-0.49483611210251965,-0.008353027988142378,0.06521424359421431,173.02508678487095,-2.8697130055912337,-59.28450542603589,-0.028701066884420753,0.05687521886766442,-0.10540916017419753,0.5534873351287841,0.9733100285530091,-8.015465509700775
2026-09-11T19:04:29.180,1.4704314239999974,-277.4106140136719,-24966.95526123047,-99867.82104492188,-190.02627059936526,-0.8066226196289064,-2.330937147140503,-1.5966919457912447,-3.571698160771392,0.5394303374944321,0.0,-0.0047550201416015625,-38.953125,-1.7118072509765625,0.1831054836511612,65.91797411441803,1643.337437032613,1,1789167869.1573677,38.99037563666667,-76.93981126166666,-9.419,0,1,35.212356,9.253763999999999,47.444544,1,1,1789167869.176075,0.866823221514353,-0.4941781770410809,-0.003990530837376747,0.06625335948817196,173.1651321116472,-3.357377245513414,-59.17460703456028,-0.06806208124124727,0.07933324301770146,-0.0853872665940942,1.3845028698349,0.9699757674980163,-8.580916958026885
2026-09-11T19:04:29.213,1.5038486720000037,-277.4891662597656,-24974.024963378906,-99896.09985351562,-190.08007888793946,-0.8604309082031251,-2.3832461833953857,-1.6325236356258395,-3.6518513681680336,-1.0722513665574116,0.0,0.003240585559979081,26.546876907348633,1.1666108015924692,0.3662109673023224,131.83594822883606,1972.5733882815703,1,1789167869.1573677,38.99037563666667,-76.93981126166666,-9.419,0,1,35.212356,9.253763999999999,47.444544,1,1,1789167869.208075,0.8670703103977503,-0.4936054502170362,-0.002288545419786396,0.06736095978122117,173.14794082979964,-3.5850906813388437,-59.08925626064078,-0.010421011897807744,0.10663926823100314,-0.06366577138839875,1.414315086326599,2.0200718668174744,-11.27568635597229
2026-09-11T19:04:29.247,1.5372651200000007,-277.57098388671875,-24981.388549804688,-99925.55419921875,-190.13612396240237,-0.9164759826660157,-2.4100100994110107,-1.6508569180965424,-3.692861753079234,-0.5486304968949612,0.0,0.015913011506199837,130.35939025878906,5.728684142231941,0.18310552835464478,65.91799020767212,-1972.6201306964126,1,1789167869.1573677,38.99037563666667,-76.93981126166666,-9.419,0,1,35.212356,9.253763999999999,47.444544,1,1,1789167869.236075,0.8672815747121296,-0.4934903267336476,-0.0024115260013267944,0.06545343480300554,173.3314599386027,-3.463824858119611,-59.078599238113085,0.001845860216909203,0.06868952710733923,-0.04891093242496389,-3.3010165109443665,0.3490186792564392,-12.38717208530426
2026-09-11T19:04:29.280,1.5706842879999954,-277.65496826171875,-24988.947143554688,-99955.78857421875,-190.19365325927737,-0.9740052795410157,-2.5143532752990723,-1.7223319935798647,-3.852746943405205,-2.1387449108048893,0.0,0.02828979678452015,231.75001525878906,10.184326842427254,0.2746582627296448,98.87697458267212,986.2299496805323,1,1789167869.1573677,38.99037563666667,-76.93981126166666,-9.419,0,1,35.212356,9.253763999999999,47.444544,1,1,1789167869.276075,0.867543171541343,-0.49330569461019236,-0.004609310286027849,0.06322255480309642,173.43020356350124,-3.1171984741207606,-59.06822513309646,0.045108034517793445,0.022329567917090253,-0.01726497149365311,-0.9438900780677796,1.5398402083969116,-11.83358668367386
2026-09-11T19:04:29.313,1.6041013759999885,-277.74444580078125,-24997.000122070312,-99988.00048828125,-190.25494537353518,-1.0352973937988281,-2.671360492706299,-1.829881937503815,-4.093329316177105,-3.218411607976507,0.0,0.03627777472138405,297.1875305175781,13.059998899698257,0.3204346299171448,115.35646677017212,493.1456680936233,1,1789167869.1573677,38.99037563666667,-76.93981126166666,-9.419,0,1,35.212356,9.253763999999999,47.444544,1,1,1789167869.308075,0.8672460308050285,-0.493449228249897,-0.0060265057221821116,0.06599895772877742,173.07311514432544,-3.1345735959178067,-59.08862014472393,-0.023942077613007814,0.026139272608343478,-0.015359944615101297,0.16641885324478148,2.8843319455718994,-8.910812669467926
2026-09-11T19:04:29.345,1.6375171519999867,-277.83990478515625,-25005.591430664062,-100022.36572265625,-190.32033477783204,-1.1006867980957031,-2.906048059463501,-1.9906429207324983,-4.452941393907695,-4.81093071813421,0.0,0.04160690680146217,340.8437805175781,14.978486448526382,0.1678467094898224,60.42481541633606,-1643.8837557996249,1,1789167869.1573677,38.99037563666667,-76.93981126166666,-9.419,0,1,35.212356,9.253763999999999,47.444544,1,1,1789167869.336075,0.866852079417915,-0.4937569705846522,-0.005208784497066934,0.06887956861048777,172.83207428961668,-3.381786404997423,-59.11960616192103,-0.007784517529745109,0.00491868689797042,0.02903041051427208,0.6867597108268737,3.6276760278320315,-8.5185466629982
2026-09-11T19:04:29.378,1.67094214399998,-277.944580078125,-25015.01220703125,-100060.048828125,-190.39203735351563,-1.172389373779297,-3.0629076957702637,-2.098091771602631,-4.693297627958636,-3.2146260759061316,0.0,0.04841804876923561,396.6406555175781,17.43049755692482,0.2136230766773224,76.90430760383606,493.029054053424,1,1789167869.1573677,38.99037563666667,-76.93981126166666,-9.419,0,1,35.212356,9.253763999999999,47.444544,1,1,1789167869.368075,0.8664710555315053,-0.4944771676635971,-0.00656402986280309,0.0683897221625153,172.80739079601574,-3.2251191819673406,-59.222271747847834,0.061793905765634836,-0.02088164276963576,0.02721806061900117,-2.185117789039612,1.1523794605064392,-10.478601830825804
2026-09-11T19:04:29.413,1.7043578560000014,-278.04791259765625,-25024.312133789062,-100097.24853515625,-190.46282012939454,-1.2431721496582033,-3.1420176029205322,-2.152282058000565,-4.814517846278996,-1.6217007854837675,0.0,0.059812549501657486,489.9844055175781,21.532517820596695,0.3662109971046448,131.83595895767212,1643.8869042742813,1,1789167869.1573677,38.99037563666667,-76.93981126166666,-9.419,0,1,35.212356,9.253763999999999,47.444544,1,1,1789167869.408075,0.8656395062261673,-0.4957151447328971,-0.006641566533000864,0.06993304038112344,172.65334230956603,-3.3155704437661253,-59.3829678258949,-0.005443158338194715,0.008201825753896953,0.06886004577525909,1.3739116876602173,1.240247045955658,-10.312771376590728
2026-09-11T19:04:29.445,1.7377788799999792,-278.1558532714844,-25034.026794433594,-100136.10717773438,-190.5367594909668,-1.3171115112304688,-3.1941096782684326,-2.1879651296138767,-4.894338604182789,-1.0676833723986332,0.0,0.06441880017518997,527.7188110351562,23.19076806306839,-0.0915527418255806,-32.958987057209015,-4930.876624695613,1,1789167869.1573677,38.99037563666667,-76.93981126166666,-9.419,0,1,35.212356,9.253763999999999,47.444544,1,1,1789167869.436075,0.8652271487952814,-0.4966801907390446,-0.006570372294390776,0.06817330359405618,172.8368184221233,-3.230381635429657,-59.51336361030286,0.005519254693581668,-0.04118924674829058,0.05181341497103046,-1.1968035857391357,-0.3443114871788025,-8.649073176651001
2026-09-11T19:04:29.478,1.7712023999999928,-278.2623291015625,-25043.609619140625,-100174.4384765625,-190.60969543457034,-1.3900474548339845,-3.169019937515259,-2.1707786571979524,-4.855893560303216,0.5142029449895541,0.0,0.06498909741640091,532.3906860351562,23.396075069904327,0.0762939527630806,27.465822994709015,1807.8529745488588,1,1789167869.1573677,38.99037563666667,-76.93981126166666,-9.419,0,1,35.212356,9.253763999999999,47.444544,1,1,1789167869.468075,0.8647555120748261,-0.4979078535276833,-0.00689075315448328,0.06510139209436573,173.1296510791614,-3.03301367853417,-59.682741309347925,-0.02449971030902,-0.10955588794401086,0.05481765021248831,1.0541168258857727,0.17740230142593383,-7.721364071350097
2026-09-11T19:04:29.512,1.8046239999999898,-278.36480712890625,-25052.832641601562,-100211.33056640625,-190.6798928833008,-1.4602449035644531,-3.0924901962280273,-2.118355784416199,-4.738626933643961,1.5685327088397414,0.0,0.06843758374452591,560.6406860351562,24.637530148029327,0.030517593026161194,10.98633348941803,-493.07901193517046,1,1789167869.1573677,38.99037563666667,-76.93981126166666,-9.419,0,1,35.212356,9.253763999999999,47.444544,1,1,1789167869.508075,0.8640370803137443,-0.4996658773022883,-0.007547463471253572,0.0609669639869402,173.5101323103536,-2.7445803493701546,-59.92528254106864,-0.019149578019956585,-0.08216695959123944,0.07842375194448721,-0.41050637577056887,-1.880719368019104,-11.69943170946121
2026-09-11T19:04:29.545,1.838042879999989,-278.46112060546875,-25061.500854492188,-100246.00341796875,-190.74586761474612,-1.5262196350097657,-2.912182569503784,-1.9948450601100922,-4.462341311985706,3.6958367337896836,0.0,0.06955910474061966,569.8281860351562,25.041277706623077,0.0457763709127903,16.479493528604507,164.37295442536072,1,1789167869.1573677,38.99037563666667,-76.93981126166666,-9.419,0,1,35.212356,9.253763999999999,47.444544,1,1,1789167869.5360749,0.8636173655039855,-0.5007007414412237,-0.008087847326054595,0.05829579955532779,173.74825551498924,-2.5452216582522422,-60.068852111563444,-0.04287802733252029,-0.029207561433349506,0.07039837897796687,-2.2265999192237853,-0.3128321401596069,-8.413125173759461
2026-09-11T19:04:29.578,1.8714608319999968,-278.5566711425781,-25070.10040283203,-100280.40161132812,-190.81131973266602,-1.5916717529296875,-2.8879032135009766,-1.978213701248169,-4.425138021761289,0.4976773819628227,0.0,0.0702209547162056,575.2500610351562,25.279543697834015,0.0,0.0,-493.13295825551154,1,1789167869.1573677,38.99037563666667,-76.93981126166666,-9.419,0,1,35.212356,9.253763999999999,47.444544,1,1,1789167869.568075,0.8628407215359064,-0.5021488514676168,-0.007712738602679154,0.05738409093465291,173.86464775620428,-2.540237260938829,-60.2602256091199,-0.0586657521472854,-0.07567328757626933,0.05745362098177534,-0.6074239110183716,-1.623981266784668,-12.090618984413148
2026-09-11T19:04:29.612,1.9048769599999957,-278.64453125,-25078.0078125,-100312.03125,-190.87150390625,-1.651855926513672,-2.6820619106292725,-1.8372124087810517,-4.109727113415018,4.219558066904755,0.0,0.07015801221132278,574.7344360351562,25.256884396076202,-0.0610351637005806,-21.972658932209015,-657.5465275991795,1,1789167869.1573677,38.99037563666667,-76.93981126166666,-9.419,0,1,35.212356,9.253763999999999,47.444544,1,1,1789167869.608075,0.8621977931248009,-0.5035012805806354,-0.006962442896019741,0.055253510054140226,174.1233228383201,-2.5008621467576053,-60.439267187888376,-0.06677699531300385,-0.09833534071586451,0.06753551540592058,0.6339018664550782,0.7549159294509888,-7.372149259090424
2026-09-11T19:04:29.645,1.9382911360000037,-278.7334289550781,-25086.00860595703,-100344.03442382812,-190.93239883422854,-1.7127508544921877,-2.656808376312256,-1.8199137377738954,-4.071031088434801,0.517704551719372,0.0,0.07048798352479935,577.4375610351562,25.375674068927765,0.0,0.0,657.5849403619525,1,1789167869.1573677,38.99037563666667,-76.93981126166666,-9.419,0,1,35.212356,9.253763999999999,47.444544,1,1,1789167869.636075,0.861802663778828,-0.5043268897456182,-0.010195494387478646,0.05335362103383655,174.1277060282656,-2.076987009675824,-60.5657977317131,-0.031694481084516224,-0.13508394624830591,0.04200920243087752,-0.4047204521751404,2.7947972295951846,-9.664551800899506
2026-09-11T19:04:29.679,1.971713440000002,-278.8291015625,-25094.619140625,-100378.4765625,-190.9979345703125,-1.778286590576172,-2.8149971961975098,-1.9282730793952942,-4.313424032290829,-3.242126623628466,0.0,0.07020760327577591,575.1406860351562,25.274737179279327,-0.015258789993822575,-5.493164397776127,-164.35624539159235,1,1789167869.1573677,38.99037563666667,-76.93981126166666,-9.419,0,1,35.212356,9.253763999999999,47.444544,1,1,1789167869.668075,0.8612946960360894,-0.505209517692991,-0.01319949744145228,0.05254106089344574,174.0366915999902,-1.739261264092219,-60.69860377929807,-0.02327536183874598,-0.13738638459753685,0.022196399295163087,-1.9555441087532044,1.3225248408126833,-10.725925547904968
2026-09-11T19:04:29.713,2.005132895999992,-278.9208679199219,-25102.87811279297,-100411.51245117188,-191.0607945251465,-1.8411465454101563,-2.737809896469116,-1.8753997790813448,-4.195149827937864,1.5821113399920432,0.0,0.07003594189882278,573.7344360351562,25.212939083576202,0.0,0.0,164.37025180115913,1,1789167869.1573677,38.99037563666667,-76.93981126166666,-9.419,0,1,35.212356,9.253763999999999,47.444544,1,1,1789167869.708075,0.8605595239595059,-0.5067575241571345,-0.013175361717727345,0.049603702244154856,174.33194632052073,-1.5814343948640612,-60.906802082686234,0.08884040051916496,-0.10055871564998009,0.09967767344357335,3.636207813472748,-0.9587961863136291,-11.662166438846588
2026-09-11T19:04:29.745,2.038551391999988,-279.01495361328125,-25111.345825195312,-100445.38330078125,-191.12524322509768,-1.9055952453613283,-2.816826105117798,-1.9295258820056918,-4.316226471916807,-1.619645088885914,0.0,0.06881523877382278,563.7344360351562,24.773485958576202,0.0,0.0,0.0,1,1789167869.1573677,38.99037563666667,-76.93981126166666,-9.419,0,1,35.212356,9.253763999999999,47.444544,1,1,1789167869.736075,0.8602380408848948,-0.5072184591599238,-0.015582919691477714,0.04977067726924912,174.17642757564832,-1.3568434277373032,-60.980370576185585,0.013562080952621939,0.01693143907359699,-0.00610987411245655,0.7286341070175172,2.2774964335632326,-9.207856102867126
2026-09-11T19:04:29.779,2.071971775999998,-279.1064147949219,-25119.57733154297,-100478.30932617188,-191.18789413452149,-1.9682461547851564,-2.73923659324646,-1.8763770663738253,-4.197335957350178,1.5903113390872627,0.0,0.0685272291302681,561.3750610351562,24.669802486896515,-0.0610351599752903,-21.972657591104507,-657.4627506104634,1,1789167869.1573677,38.99037563666667,-76.93981126166666,-9.419,0,1,35.212356,9.253763999999999,47.444544,1,1,1789167869.768075,0.8597746077162925,-0.50809595462223,-0.01544014336092817,0.048864371435779964,174.27571674169687,-1.3239650245265262,-61.09693342996036,0.0640244365496836,-0.02056800710305238,0.006206565353017035,-0.9198637851715087,0.03863820163726807,-10.397991166496277
2026-09-11T19:04:29.812,2.1053859200000034,-279.1972961425781,-25127.75665283203,-100511.02661132812,-191.25014785766604,-2.0304998779296874,-2.739262819290161,-1.8763950312137605,-4.197376143552609,-0.0005376417823305922,0.0,0.06783867627382278,555.7344360351562,24.421923458576202,0.0,0.0,657.585529980987,1,1789167869.1573677,38.99037563666667,-76.93981126166666,-9.419,0,1,35.212356,9.253763999999999,47.444544,1,1,1789167869.808075,0.859206454128578,-0.5092654044974495,-0.012593547480497385,0.04748072796094684,174.5802123537921,-1.53110652781864,-61.23932621260369,-0.04010085942674692,0.020910266169368464,0.04737347188688209,1.7297950220298766,-0.8849521105957031,-9.044575377674104
2026-09-11T19:04:29.845,2.138799616,-279.28509521484375,-25135.658569335938,-100542.63427734375,-191.310290222168,-2.090642242431641,-2.634385347366333,-1.8045539629459382,-4.03667225068436,2.150048539013149,0.0,0.0683593824505806,560.0000610351562,24.609377682209015,0.0762939527630806,27.465822994709015,821.992963445641,1,1789167869.1573677,38.99037563666667,-76.93981126166666,-9.419,0,1,35.212356,9.253763999999999,47.444544,1,1,1789167869.836075,0.8588652292764777,-0.5099304347062965,-0.01272769004835793,0.04647015823239503,174.67333736305503,-1.4629405507082414,-61.32933783256316,-0.030690916764619484,-0.016169602855101467,0.05676212153213518,0.8751454604339599,1.0698074661445618,-8.543161354904175
2026-09-11T19:04:29.879,2.172221952000001,-279.37152099609375,-25143.436889648438,-100573.74755859375,-191.36949188232424,-2.149843902587891,-2.582505464553833,-1.7690162432193757,-3.9571766356911544,1.063292515716479,0.0,0.0690002515912056,565.2500610351562,24.840090572834015,0.0,0.0,-821.7804702432587,1,1789167869.1573677,38.99037563666667,-76.93981126166666,-9.419,0,1,35.212356,9.253763999999999,47.444544,1,1,1789167869.868075,0.8583897188065045,-0.5109975445517434,-0.010617023343849405,0.04399862412275284,175.04246539914894,-1.532231113210324,-61.46416029090281,-0.014435618243245098,0.05983826433877519,0.043910913183850535,-0.3462728172111511,-1.079908315811157,-9.112927729301452
2026-09-11T19:04:29.913,2.2056394239999975,-279.4534606933594,-25150.811462402344,-100603.24584960938,-191.42562057495118,-2.205972595214844,-2.4527223110198975,-1.6801147830486298,-3.758309733018584,2.6603287098065134,0.0,0.07161141186952591,586.6406860351562,25.780108273029327,0.1373291164636612,49.43848192691803,1479.420164605009,1,1789167869.1573677,38.99037563666667,-76.93981126166666,-9.419,0,1,35.212356,9.253763999999999,47.444544,1,1,1789167869.908075,0.8576240117573811,-0.5124889498816024,-0.009571706436019374,0.04176736934893729,175.32632603501762,-1.512370517323709,-61.66068392738095,0.003291516436336106,0.021195278436219135,0.0835953370510716,-0.32283492332458497,-0.5392676923942565,-10.113206045799256
2026-09-11T19:04:29.946,2.239058079999978,-279.53497314453125,-25158.147583007812,-100632.59033203125,-191.4814566040039,-2.2618086242675783,-2.4272236824035645,-1.6626482224464418,-3.7192381497101827,0.5226589783322841,0.0,0.07689286023378372,629.9063110351562,27.68142968416214,0.1983642727136612,71.41113817691803,657.4967063311185,1,1789167869.1573677,38.99037563666667,-76.93981126166666,-9.419,0,1,35.212356,9.253763999999999,47.444544,1,1,1789167869.936075,0.8568374273714735,-0.513690347072843,-0.0069985389978392395,0.04362190770143578,175.2971486147406,-1.8809621176595082,-61.80973381636533,-0.04763178061617725,0.05412091477509217,0.10299676608209096,4.540577091388702,1.0937356925392152,-8.263279559288025
2026-09-11T19:04:29.979,2.2724816319999945,-279.6183166503906,-25165.648498535156,-100662.59399414062,-191.5385469055176,-2.3188989257812502,-2.4802589416503906,-1.6989773750305177,-3.8005041495850835,-1.0869327288750792,0.0,0.0836334303021431,685.1250610351562,30.108034908771515,0.2441406548023224,87.89063572883606,493.05045591533695,1,1789167869.1573677,38.99037563666667,-76.93981126166666,-9.419,0,1,35.212356,9.253763999999999,47.444544,1,1,1789167869.968075,0.8559186140982832,-0.5152990152846788,-0.00478080696069583,0.04298133049964236,175.49446674508192,-2.0695444674402563,-62.01799837531612,-0.052449587483382396,0.040839657299116115,0.10702777852249708,-0.08247392786026002,-1.067355803604126,-9.02976733592987
2026-09-11T19:04:30.013,2.305895456000002,-279.6992492675781,-25172.93243408203,-100691.72973632812,-191.59398574829103,-2.3743377685546876,-2.429194211959839,-1.6639980351924897,-3.7222575948292946,1.0468523398585101,0.0,0.08749199658632278,716.7344360351562,31.497118771076202,0.030517607927322388,10.98633885383606,-2301.571256105955,1,1789167869.1573677,38.99037563666667,-76.93981126166666,-9.419,0,1,35.212356,9.253763999999999,47.444544,1,1,1789167870.008075,0.8550289809686592,-0.5168517352117517,-0.00662435232928864,0.04178329173862316,175.506888138784,-1.8259535504657793,-62.23298178208562,-0.004707502058479106,0.0411218770391636,0.09301086476680542,-1.5976013778495788,0.6372361275100707,-10.523712421569824
2026-09-11T19:04:30.046,2.3393134719999864,-279.781982421875,-25180.37841796875,-100721.513671875,-191.6506579589844,-2.431009979248047,-2.481715440750122,-1.6999750769138338,-3.8027359451365244,-1.0765762312568359,0.0,0.08909035474061966,729.8281860351562,32.07252770662308,0.0457763709127903,16.479493528604507,164.3770436512741,1,1789167869.1573677,38.99037563666667,-76.93981126166666,-9.419,0,1,35.212356,9.253763999999999,47.444544,1,1,1789167870.0360749,0.8542838655539409,-0.5180360702260026,-0.0064436852048337925,0.04238143367085587,175.46141069695267,-1.8854143746648278,-62.39036104654855,-0.01835650040785036,0.06212569285643896,0.10869072823379727,-1.4871784970283508,1.3134046561622619,-9.11420259382248
2026-09-11T19:04:30.080,2.3727330239999844,-279.868408203125,-25188.15673828125,-100752.626953125,-191.70985961914064,-2.490211639404297,-2.5863711833953857,-1.7716642606258395,-3.963100081929665,-2.145127011637079,0.0,0.09155464917421341,750.0156860351562,32.95967370271683,0.1220703199505806,43.945315182209015,821.8488881480558,1,1789167869.1573677,38.99037563666667,-76.93981126166666,-9.419,0,1,35.212356,9.253763999999999,47.444544,1,1,1789167870.076075,0.8529003527492491,-0.5200241367070169,-0.005631646939082187,0.04587123363374739,175.17196138560666,-2.1836026099085033,-62.65031469584391,-0.03316422284762065,0.0433990081142406,0.11798722449454506,0.2262394192314148,0.8841675785827637,-8.913264332008362
2026-09-11T19:04:30.113,2.4061493119999966,-279.9580078125,-25196.220703125,-100784.8828125,-191.77123535156252,-2.551587371826172,-2.690852403640747,-1.843233896493912,-4.123196797812074,-2.1417590089014777,0.0,0.09726334363222122,796.7813110351562,35.01480370759964,0.1831054836511612,65.91797411441803,657.5433792107912,1,1789167869.1573677,38.99037563666667,-76.93981126166666,-9.419,0,1,35.212356,9.253763999999999,47.444544,1,1,1789167870.108075,0.8516968409923715,-0.5216812311829994,-0.006255225987968826,0.04921439040407119,174.81149049816625,-2.332200326325673,-62.87090895857995,-0.02957338244456752,-0.005596398246519817,0.10949724488114385,-0.053053977375030516,2.7441949147605897,-8.752337202854157
2026-09-11T19:04:30.146,2.439563263999986,-280.0532531738281,-25204.79278564453,-100819.17114257812,-191.83647842407228,-2.6168304443359376,-2.874089241027832,-1.968751130104065,-4.403970852952896,-3.75643185248464,0.0,0.10052300244569778,823.4844360351562,36.1882808804512,0.061035171151161194,21.97266161441803,-1315.178536798458,1,1789167869.1573677,38.99037563666667,-76.93981126166666,-9.419,0,1,35.212356,9.253763999999999,47.444544,1,1,1789167870.136075,0.850681431793431,-0.5231387233074001,-0.007164835749922965,0.05114335642933717,174.5722433172876,-2.3681446886647706,-63.06779456731034,-0.020062559751674817,-0.006124360345248102,0.13665299724584884,4.012194780673981,3.759673539009094,-10.39750083398819
2026-09-11T19:04:30.180,2.472987551999978,-280.1552734375,-25213.974609375,-100855.8984375,-191.90636230468752,-2.686714324951172,-3.056345224380493,-2.093596478700638,-4.683241944122753,-3.7351685276468123,0.0,0.10195542126893997,835.2188110351562,36.70395165681839,0.03051757998764515,10.986328795552254,-328.6930994272313,1,1789167869.1573677,38.99037563666667,-76.93981126166666,-9.419,0,1,35.212356,9.253763999999999,47.444544,1,1,1789167870.176075,0.8489425451624526,-0.5255969672505137,-0.01019326566554028,0.054226196300600306,174.09576700373285,-2.2749682859935825,-63.40758797852072,-0.05352959722451649,-0.044597700244510305,0.15609352165211288,-0.7924753995704652,2.167563885250092,-9.385846803302766
2026-09-11T19:04:30.213,2.506405983999997,-280.2640075683594,-25223.760681152344,-100895.04272460938,-191.9808451843262,-2.761197204589844,-3.2393381595611572,-2.218946639299393,-4.963642267580956,-3.750928846652153,0.0,0.1024475172162056,839.2500610351562,36.881106197834015,0.0,0.0,-328.7505767938482,1,1789167870.1915226,38.990371495,-76.93982128833333,-9.280000000000001,0,1,37.36876900000001,32.251041,129.80044900000001,1,1,1789167870.208075,0.8476364028234329,-0.5276894535367336,-0.013359308068581547,0.05364604479906584,173.96681439795054,-1.9466681551814828,-63.705419253111835,-0.019293567683246117,0.028086885520643947,0.14874010044761035,-0.5475052785301209,1.7618627680587766,-11.047191407203675
2026-09-11T19:04:30.247,2.5398207679999985,-280.37506103515625,-25233.755493164062,-100935.02197265625,-192.05691680908205,-2.837268829345703,-3.3444762229919434,-2.290966212749481,-5.1247454651697355,-2.1553206344259266,0.0,0.10226250439882278,837.7344360351562,36.8145015835762,0.0,0.0,0.0,1,1789167870.1915226,38.990371495,-76.93982128833333,-9.280000000000001,0,1,37.36876900000001,32.251041,129.80044900000001,1,1,1789167870.236075,0.84637273822228,-0.5294899792215618,-0.014732754246905911,0.055466168520729275,173.7103712325582,-1.9368950606557198,-63.95368836485432,-0.04364213247904341,0.03793665115427395,0.14813813638859752,-1.5048304673194886,1.91523877658844,-6.615664265613557
2026-09-11T19:04:30.280,2.5732471679999946,-280.4897155761719,-25244.07440185547,-100976.29760742188,-192.13545516967775,-2.9158071899414066,-3.4503984451293945,-2.3635229349136355,-5.28705023021124,-2.17064123459788,0.0,0.10210228711366653,836.4219360351562,36.75682336091995,-0.015258789993822575,-5.493164397776127,-164.3361055266721,1,1789167870.1915226,38.990371495,-76.93982128833333,-9.280000000000001,0,1,37.36876900000001,32.251041,129.80044900000001,1,1,1789167870.276075,0.8447351845038059,-0.5319342459537089,-0.01639048092082995,0.05656658181438967,173.5079953447009,-1.8617627606178904,-64.29208193745754,-0.004541172180764046,0.05278242177173771,0.12114068538704842,-2.2366027023887636,-0.028635418472290036,-5.989999985294341
2026-09-11T19:04:30.314,2.6066638399999817,-280.6055603027344,-25254.500427246094,-101018.00170898438,-192.21480880737306,-2.995160827636719,-3.47733736038208,-2.381976091861725,-5.328328766691398,-0.5522140848764596,0.0,0.10049057751893997,823.2188110351562,36.17660790681839,0.0762939527630806,27.465822994709015,986.3037047045817,1,1789167870.1915226,38.990371495,-76.93982128833333,-9.280000000000001,0,1,37.36876900000001,32.251041,129.80044900000001,1,1,1789167870.308075,0.8432855299538745,-0.5340451773021792,-0.015412106263849085,0.05854682357915533,173.38011597911824,-2.0940358956918006,-64.57030924471552,-0.22551416718311254,0.0804584567864622,0.14962829850395026,1.129137699623108,0.12611352108001708,-4.930979834327698
2026-09-11T19:04:30.347,2.64008214399999,-280.720458984375,-25264.84130859375,-101059.365234375,-192.2935144042969,-3.073866424560547,-3.427067518234253,-2.3475412499904635,-5.251300219198418,1.0304185954874598,0.0,0.1014709547162056,831.2500610351562,36.529543697834015,-0.03051757998764515,-10.986328795552254,-1150.6314560502994,1,1789167870.1915226,38.990371495,-76.93982128833333,-9.280000000000001,0,1,37.36876900000001,32.251041,129.80044900000001,1,1,1789167870.336075,0.842418466514322,-0.5354845033113339,-0.014000472155778388,0.05823624960870578,173.50031164482434,-2.222528100529651,-64.7580627413452,0.04206295857183894,0.07176706617738084,0.13049355578263563,-1.7995203046798707,2.8774672904586795,-11.8816392694664
2026-09-11T19:04:30.381,2.673504511999994,-280.8366394042969,-25275.29754638672,-101101.19018554688,-192.37309799194338,-3.1534500122070317,-3.45389461517334,-2.365917811393738,-5.292407416324569,-0.5498282289056383,0.0,0.10132599622011185,830.0625610351562,36.477358639240265,-0.0610351599752903,-21.972657591104507,-328.7118613364276,1,1789167870.1915226,38.990371495,-76.93982128833333,-9.280000000000001,0,1,37.36876900000001,32.251041,129.80044900000001,1,1,1789167870.376075,0.8406622181076373,-0.5380477315229055,-0.012076130768851294,0.060380797568895986,173.41776100111807,-2.5603466677315354,-65.09354351314289,-0.033043096997532245,-0.04875978691174118,0.1622311464996761,-7.693513184890747,-1.3904849264335633,-9.887849225082398
2026-09-11T19:04:30.414,2.7069064319999825,-280.95245361328125,-25285.720825195312,-101142.88330078125,-192.45243072509768,-3.2327827453613285,-3.480431318283081,-2.3840954530239107,-5.333069642591061,-0.5442094834721727,0.0,0.1008911207318306,826.5000610351562,36.320803463459015,-0.030517593026161194,-10.98633348941803,328.91295176116256,1,1789167870.1915226,38.990371495,-76.93982128833333,-9.280000000000001,0,1,37.36876900000001,32.251041,129.80044900000001,1,1,1789167870.408075,0.8389275300586098,-0.5404769798961344,-0.012164013206272755,0.06274767162876696,173.1907886543182,-2.7178642921845517,-65.42139654267315,-0.12456257791850851,0.02030865117620602,0.14399769180409136,-6.263311325302125,-1.541311205921173,-15.829600491580964
2026-09-11T19:04:30.448,2.7403203840000003,-281.06756591796875,-25296.080932617188,-101184.32373046875,-192.5312826538086,-3.3116346740722657,-3.454590320587158,-2.3663943696022036,-5.293473446676362,0.5297512674255835,0.0,0.1018371656537056,834.2500610351562,36.661379635334015,-0.0457763709127903,-16.479493528604507,-164.39719669147618,1,1789167870.1915226,38.990371495,-76.93982128833333,-9.280000000000001,0,1,37.36876900000001,32.251041,129.80044900000001,1,1,1789167870.436075,0.8375707823483793,-0.5426066146914987,-0.012875607622697191,0.0623495387128192,173.19197280173523,-2.641932273591431,-65.71588315583895,-0.0694691656842051,0.05407309275358752,0.18157113994102528,0.7951231951141358,0.6603798218917847,-7.933678047351838
2026-09-11T19:04:30.481,2.7737401599999885,-281.18121337890625,-25306.309204101562,-101225.23681640625,-192.6091311645508,-3.3894831848144533,-3.42783784866333,-2.3480689263343812,-5.252480597562586,0.5483412955200202,0.0,0.1020813062787056,836.2500610351562,36.749270260334015,0.0,0.0,493.106043817001,1,1789167870.1915226,38.990371495,-76.93982128833333,-9.280000000000001,0,1,37.36876900000001,32.251041,129.80044900000001,1,1,1789167870.476075,0.8356076357668385,-0.5457365365380203,-0.01109525583886818,0.061712292402005764,173.3743267881867,-2.7979907976752303,-66.13522867451023,-0.029325894756634722,-0.0012686798332746782,0.15138095813880295,0.28252959115982057,0.4051127181816101,-7.872680683345795
2026-09-11T19:04:30.514,2.807294208000002,-281.2958068847656,-25316.622619628906,-101266.49047851562,-192.68762771606447,-3.4679797363281253,-3.4538707733154297,-2.3659014797210696,-5.292370883413267,-0.531457587075074,0.0,0.10165215283632278,832.7344360351562,36.5947750210762,0.0,0.0,0.0,1,1789167870.1915226,38.990371495,-76.93982128833333,-9.280000000000001,0,1,37.36876900000001,32.251041,129.80044900000001,1,1,1789167870.508075,0.8342010261652962,-0.548033416363962,-0.011437651466812868,0.06030922501686485,173.4954703499881,-2.695060750468652,-66.45313881658176,-0.11319943729047423,0.0013472196496144228,0.14364932408539327,0.2512463771438599,0.681366053237915,-8.810882904319763
2026-09-11T19:04:30.547,2.8407106880000015,-281.40887451171875,-25326.798706054688,-101307.19482421875,-192.76507904052735,-3.545431060791016,-3.401963949203491,-2.330345305204392,-5.212833986230291,1.064031116283884,0.0,0.1018371656537056,834.2500610351562,36.661379635334015,0.0,0.0,0.0,1,1789167870.1915226,38.990371495,-76.93982128833333,-9.280000000000001,0,1,37.36876900000001,32.251041,129.80044900000001,1,1,1789167870.5360749,0.8328698461265731,-0.5497912511152575,-0.012493708401986126,0.06246044236622703,173.22816279955956,-2.7437484362927567,-66.69656995496194,-0.0020638518404832947,-0.019874238725384633,0.1521199305440974,-0.10326402620315552,1.7729442827415467,-9.399968379535675
2026-09-11T19:04:30.581,2.8741338879999887,-281.5270080566406,-25337.430725097656,-101349.72290039062,-192.84600051879883,-3.6263525390625,-3.5070912837982178,-2.402357529401779,-5.373920744008984,-2.1545580374534703,0.0,0.10140801221132278,830.7344360351562,36.5068843960762,0.0,0.0,0.0,1,1789167870.1915226,38.990371495,-76.93982128833333,-9.280000000000001,0,1,37.36876900000001,32.251041,129.80044900000001,1,1,1789167870.576075,0.831152878396435,-0.55229899220666,-0.015264796857101819,0.06259154829320054,173.04881273081745,-2.50827861023848,-67.05551065840909,0.03209049629179374,-0.052991512216126635,0.1441104400737702,0.6523383687591552,3.127340736579895,-9.211680696430207
2026-09-11T19:04:30.614,2.907550719999989,-281.6500549316406,-25348.504943847656,-101394.01977539062,-192.93028762817383,-3.7106396484375,-3.6640782356262207,-2.5098935914039613,-5.614472063806278,-3.218020846565618,0.0,0.1014709547162056,831.2500610351562,36.529543697834015,0.0,0.0,0.0,1,1789167870.1915226,38.990371495,-76.93982128833333,-9.280000000000001,0,1,37.36876900000001,32.251041,129.80044900000001,1,1,1789167870.608075,0.8293640345845852,-0.5547326251069682,-0.01725865715981614,0.06425847440261113,172.7701660833224,-2.4452738564815726,-67.39985636332145,-0.060957893053929554,-0.11251928248097204,0.16109162103104901,1.3263494343757631,2.030270782985687,-10.089277819404602
2026-09-11T19:04:30.647,2.9409638719999975,-281.776611328125,-25359.89501953125,-101439.580078125,-193.01697875976564,-3.7973307800292972,-3.7687764167785645,-2.581611845493317,-5.774901229181536,-2.1464079201308897,0.0,0.1015930250287056,832.2500610351562,36.573489010334015,0.0,0.0,0.0,1,1789167870.1915226,38.990371495,-76.93982128833333,-9.280000000000001,0,1,37.36876900000001,32.251041,129.80044900000001,1,1,1789167870.636075,0.8278661822193681,-0.5569768975871362,-0.021182189353116783,0.06297328597068466,172.64933728157803,-2.010193301148202,-67.73510165480216,-0.022356795053421363,-0.11463025821125918,0.18474990810768258,-0.15278760951995848,2.4553890674972534,-11.0225767152977
2026-09-11T19:04:30.682,2.974390879999987,-281.9025573730469,-25371.23016357422,-101484.92065429688,-193.10325180053712,-3.8836038208007815,-3.744072675704956,-2.564689782857895,-5.737047653135943,0.5062392253421867,0.0,0.10253716260194778,839.9844360351562,36.9133785367012,0.0457763709127903,16.479493528604507,492.99935933870023,1,1789167870.1915226,38.990371495,-76.93982128833333,-9.280000000000001,0,1,37.36876900000001,32.251041,129.80044900000001,1,1,1789167870.676075,0.8259758536179664,-0.560111878186805,-0.024433892415453372,0.05866479400416945,172.85835003132243,-1.4528377821114526,-68.19340201523656,-0.006750584480863668,-0.08800229341235728,0.17930221191343268,-1.6199605402183532,-0.5263229141807556,-10.527046682624817
2026-09-11T19:04:30.715,3.007807007999986,-282.0264587402344,-25382.381286621094,-101529.52514648438,-193.18812423706055,-3.968476257324219,-3.7189829349517822,-2.547503310441971,-5.698602609256372,0.5143166921052136,0.0,0.10563469678163528,865.3594360351562,38.0284908413887,0.1068115383386612,38.45215380191803,657.5465677326297,1,1789167870.1915226,38.990371495,-76.93982128833333,-9.280000000000001,0,1,37.36876900000001,32.251041,129.80044900000001,1,1,1789167870.708075,0.824137278142366,-0.5629539651846444,-0.022594284928607506,0.05805237417663049,173.0401808060679,-1.6113722215956992,-68.57462358057926,-0.01977283509584376,0.023494924258646868,0.19155407419658244,0.7632515820884704,1.0693171336364746,-10.618248529129028
2026-09-11T19:04:30.748,3.0412205119999953,-282.14898681640625,-25393.408813476562,-101573.63525390625,-193.2720559692383,-4.052407989501954,-3.6687657833099365,-2.5131045615673067,-5.621654799497369,1.0294864278423168,0.0,0.11104775220155716,909.7031860351562,39.97719079256058,0.1831054985523224,65.91797947883606,821.997767037856,1,1789167870.1915226,38.990371495,-76.93982128833333,-9.280000000000001,0,1,37.36876900000001,32.251041,129.80044900000001,1,1,1789167870.736075,0.8225423991040973,-0.5655386888664333,-0.02211266394794094,0.055686831158154496,173.30050398356744,-1.524758072104607,-68.93165397585435,0.0001848303677861995,-0.011894767918191756,0.21519159185511727,-1.679683039703369,0.6057567804908752,-9.537751814308166
2026-09-11T19:04:30.782,3.0746470720000048,-282.27093505859375,-25404.384155273438,-101617.53662109375,-193.35559051513673,-4.135942535400391,-3.618342399597168,-2.4785645437240604,-5.5443909800556055,1.033310572288518,0.0,0.11852265149354935,970.9375610351562,42.668154537677765,0.2288818657398224,82.39747166633606,493.005926649208,1,1789167870.1915226,38.990371495,-76.93982128833333,-9.280000000000001,0,1,37.36876900000001,32.251041,129.80044900000001,1,1,1789167870.776075,0.8198853304345999,-0.5695010666050572,-0.021529693793462864,0.054708795993048204,173.43825142601025,-1.5477286132095422,-69.47978094583668,0.012860109527469818,-0.015168481996157519,0.279335234392712,2.6532872677612307,-2.3980201640510557,-8.719386858310699
2026-09-11T19:04:30.815,3.108063295999983,-282.38751220703125,-25414.876098632812,-101659.50439453125,-193.43544586181642,-4.2157978820800786,-3.568199872970581,-2.444216912984848,-5.467557518308977,1.027872890103755,0.0,0.128755584359169,1054.7657470703125,46.35201036930084,0.18310552835464478,65.91799020767212,-493.1580976556347,1,1789167870.1915226,38.990371495,-76.93982128833333,-9.280000000000001,0,1,37.36876900000001,32.251041,129.80044900000001,1,1,1789167870.808075,0.8176098292884083,-0.5729209191753634,-0.021843190403745445,0.052902386101404866,173.59414670959745,-1.4267752929636988,-69.96005222673338,0.006139544709740453,-0.07517394887727377,0.23677084272677515,-5.764839297580719,-3.096842054576874,-8.022330164813996
2026-09-11T19:04:30.848,3.141475263999979,-282.5087890625,-25425.791015625,-101703.1640625,-193.51852050781253,-4.298872528076172,-3.64756441116333,-2.4985816216468812,-5.589167908122044,-1.6271028591323915,0.0,0.1342945247888565,1100.1407470703125,48.34602892398834,0.09155279397964478,32.95900583267212,-986.4424739962683,1,1789167870.1915226,38.990371495,-76.93982128833333,-9.280000000000001,0,1,37.36876900000001,32.251041,129.80044900000001,1,1,1789167870.836075,0.8155026349466594,-0.5759703677926551,-0.024782978368991897,0.05098423092497425,173.58536299815694,-1.0491239584248013,-70.40653649920935,0.08629483780513124,-0.14414988451486527,0.27512131144669694,-6.895055728721618,-0.0811990633392334,-9.744868265724183
2026-09-11T19:04:30.882,3.174900159999993,-282.6343994140625,-25437.095947265625,-101748.3837890625,-193.60456359863284,-4.384915618896485,-3.7787885665893555,-2.588470168113709,-5.790242859953708,-2.6892692939655,0.0,0.13641168177127838,1117.4844970703125,49.10820543766022,0.0152588477358222,5.493185184895992,-821.7174601759341,1,1789167870.1915226,38.990371495,-76.93982128833333,-9.280000000000001,0,1,37.36876900000001,32.251041,129.80044900000001,1,1,1789167870.876075,0.8118959554272676,-0.5809093777203881,-0.026257810415821384,0.051766589896597735,173.42045248076815,-1.0030811765447816,-71.1095779910981,0.053228527928547466,-0.07188190884216206,0.3057244381499411,-1.307226466560364,2.2536662736701962,-10.709156176128388
2026-09-11T19:04:30.916,3.2083142719999955,-282.76422119140625,-25448.779907226562,-101795.11962890625,-193.69349151611328,-4.473843536376953,-3.8574066162109375,-2.6423235321044922,-5.9107094043139075,-1.6116952020385624,0.0,0.13656426966190338,1118.7344970703125,49.16313707828522,0.0,0.0,-164.39716204026476,1,1789167870.1915226,38.990371495,-76.93982128833333,-9.280000000000001,0,1,37.36876900000001,32.251041,129.80044900000001,1,1,1789167870.908075,0.8092048365079864,-0.584943433174178,-0.026435942965572803,0.04826855578955932,173.7391237028908,-0.7840922162525098,-71.6805899843123,0.08486611127944868,-0.07393790670101137,0.3111449072078599,1.0326402620315551,-0.6735207331085206,-11.095145926494597
2026-09-11T19:04:30.949,3.241729855999978,-282.892822265625,-25460.35400390625,-101841.416015625,-193.78158325195315,-4.561935272216798,-3.9355530738830566,-2.695853855609894,-6.030453327688554,-1.6019568446096935,0.0,0.1363525539636612,1117.0001220703125,49.08691942691803,0.0457763709127903,16.479493528604507,493.1679041914459,1,1789167870.1915226,38.990371495,-76.93982128833333,-9.280000000000001,0,1,37.36876900000001,32.251041,129.80044900000001,1,1,1789167870.936075,0.8066999904880163,-0.5883163866008668,-0.028794628308128473,0.04785210532599869,173.62180797180056,-0.5642065393969333,-72.17418637659037,0.06242519135608119,-0.08838486958439444,0.2857819570508035,-4.3130628076362605,2.860992118186951,-10.36847314950943
2026-09-11T19:04:30.982,3.275153663999987,-283.0250549316406,-25472.254943847656,-101889.01977539062,-193.87216262817384,-4.6525146484375,-3.9355907440185547,-2.6958796596527104,-6.030511049688411,-0.0007720258211231246,0.0,0.13645555078983307,1117.8438720703125,49.123998284339905,0.0915527418255806,32.958987057209015,493.0465591652519,1,1789167870.1915226,38.990371495,-76.93982128833333,-9.280000000000001,0,1,37.36876900000001,32.251041,129.80044900000001,1,1,1789167870.976075,0.8029444679077544,-0.5935886974182542,-0.029802349491563688,0.04521570212233675,173.8003144114279,-0.33345163888798535,-72.93037791721947,0.05100829458708547,-0.1745467133005237,0.30478754540747055,-0.32754211540222167,1.6318265869140625,-6.766882811107636
2026-09-11T19:04:31.015,3.308570943999996,-283.1551818847656,-25483.966369628906,-101935.86547851562,-193.96129959106446,-4.741651611328125,-3.91007661819458,-2.6784024834632874,-5.991415719987662,0.5229981670985285,0.0,0.13704492151737213,1122.6719970703125,49.33617174625397,0.0457763709127903,16.479493528604507,-493.1428748420002,1,1789167870.1915226,38.990371495,-76.93982128833333,-9.280000000000001,0,1,37.36876900000001,32.251041,129.80044900000001,1,1,1789167871.008075,0.7999740250272448,-0.5978781521090009,-0.030990944474837866,0.040284437106567664,174.173828606394,0.08098941898326549,-73.55093629255846,0.20817973158523004,-0.10799887971830671,0.3026715082223526,-3.635815547466278,-0.03726527061462402,-12.648225112609863
2026-09-11T19:04:31.049,3.341993823999985,-283.2828063964844,-25495.452575683594,-101981.81030273438,-194.0487223815918,-4.829074401855469,-3.8066699504852295,-2.6075689160823825,-5.832965542417635,2.119313697111913,0.0,0.1371154934167862,1123.2501220703125,49.36157763004303,0.0,0.0,-493.0602488059033,1,1789167870.1915226,38.990371495,-76.93982128833333,-9.280000000000001,0,1,37.36876900000001,32.251041,129.80044900000001,1,1,1789167871.0360749,0.7973631381448074,-0.6014509096472229,-0.030811574026844285,0.038980458160227306,174.3053572656612,0.12870720886993606,-74.06089265247843,0.03484933824042118,-0.07237199729612206,0.3132417457712059,-2.3273142163848877,-1.4335361206436157,-6.84004042131424
2026-09-11T19:04:31.083,3.3754203199999893,-283.40570068359375,-25506.513061523438,-102026.05224609375,-194.13290496826173,-4.913256988525391,-3.6520886421203613,-2.5016807198524478,-5.596100393370716,3.167792287588912,0.0,0.13591577112674713,1113.4219970703125,48.92967760562897,-0.0762939527630806,-27.465822994709015,-821.6781978794791,1,1789167870.1915226,38.990371495,-76.93982128833333,-9.280000000000001,0,1,37.36876900000001,32.251041,129.80044900000001,1,1,1789167871.076075,0.7941555319266563,-0.6058220067590776,-0.029571710935778296,0.03771208226847958,174.5067213698886,0.0730783193383652,-74.6799461152343,-0.04060979743662846,-0.05393905146703436,0.23669998235914416,1.261821676311493,-0.4150174348449707,-7.338414382534028
2026-09-11T19:04:31.116,3.4088422079999816,-283.5265197753906,-25517.386779785156,-102069.54711914062,-194.2156660461426,-4.996018066406251,-3.6016342639923096,-2.4671194708347324,-5.518789081144259,1.034090264970169,0.0,0.12626077234745026,1034.3282470703125,45.45387804508209,-0.3662109673023224,-131.83594822883606,-3122.807581491235,1,1789167870.1915226,38.990371495,-76.93982128833333,-9.280000000000001,0,1,37.36876900000001,32.251041,129.80044900000001,1,1,1789167871.108075,0.7921616658146269,-0.6086444686085193,-0.027153139499418454,0.03597934214759532,174.8331623580153,-0.044570547721516696,-75.07055962447933,-0.007524288938272754,-0.02491876386242384,0.20807029944112998,2.5432566529464724,-1.1505161969757078,-10.630702974834442
2026-09-11T19:04:31.149,3.442256447999995,-283.64007568359375,-25527.606811523438,-102110.42724609375,-194.29345184326172,-5.073803863525391,-3.4467828273773193,-2.361046236753464,-5.281510014212288,3.17449189570753,0.0,0.1156768947839737,947.6251220703125,41.64368212223053,-0.3509521782398224,-126.34278416633606,164.39590014610005,1,1789167870.1915226,38.990371495,-76.93982128833333,-9.280000000000001,0,1,37.36876900000001,32.251041,129.80044900000001,1,1,1789167871.136075,0.790958695070334,-0.6103417378443534,-0.025726167561233027,0.03471987961356122,175.04762793985125,-0.09656128041483669,-75.30683140802127,0.08141908600675989,0.06105336256401364,0.14457801378037946,-0.3570601323890686,2.2003180967903138,-12.40364725757599
2026-09-11T19:04:31.183,3.4756792320000045,-283.7530212402344,-25537.771911621094,-102151.08764648438,-194.37081954956057,-5.1511715698242195,-3.395453929901123,-2.3258859419822695,-5.202858674799272,1.051985818152799,0.0,0.10836602747440338,887.7344970703125,39.01176989078522,0.0,0.0,3780.139445185045,1,1789167871.1582477,38.99036979666667,-76.93983568833333,-9.238000000000003,0,1,19.998784000000004,24.453025000000004,111.57696900000002,1,1,1789167871.176075,0.7893308765718863,-0.6123781492813369,-0.02706261322336299,0.034891038083510774,174.93842706129905,-0.0005905029273006606,-75.60997629298276,0.0809806592986589,-0.08194285931528338,0.14571300139295137,-4.43643046667099,1.5708292229080199,-8.801370453662873
2026-09-11T19:04:31.216,3.509092991999978,-283.8680419921875,-25548.123779296875,-102192.4951171875,-194.44960876464845,-5.22996078491211,-3.4743313789367676,-2.379916994571686,-5.323722697234438,-1.6170300076812467,0.0,0.10824395716190338,886.7344970703125,38.96782457828522,0.0,0.0,0.0,1,1789167871.1582477,38.99036979666667,-76.93983568833333,-9.238000000000003,0,1,19.998784000000004,24.453025000000004,111.57696900000002,1,1,1789167871.208075,0.7881203429008794,-0.6138197369360199,-0.02781401639190024,0.03630476753467348,174.7575349251272,-0.04168734960498558,-75.82386982168647,0.03558290012503439,-0.015994197265276035,0.13331470598555928,-1.1222730445098876,1.8029526322364808,-12.289890115699768
2026-09-11T19:04:31.249,3.5425072959999966,-283.9860534667969,-25558.74481201172,-102234.97924804688,-194.53044662475588,-5.310798645019531,-3.5535693168640137,-2.4341949820518494,-5.44513909728849,-1.6243937769924282,0.0,0.1081848293542862,886.2501220703125,38.94653856754303,0.0,0.0,0.0,1,1789167871.1582477,38.99036979666667,-76.93983568833333,-9.238000000000003,0,1,19.998784000000004,24.453025000000004,111.57696900000002,1,1,1789167871.236075,0.786953965346995,-0.6152557316407063,-0.030472331356310133,0.0351465237201475,174.67442855503174,0.2700041320412944,-76.05051602481096,0.032806604883887015,-0.055493616231785704,0.1500497955183069,-3.7203488718605042,1.1669913692474365,-8.265535088825226
2026-09-11T19:04:31.283,3.5759291199999836,-284.1047668457031,-25569.42901611328,-102277.71606445312,-194.61176528930665,-5.392117309570313,-3.5024311542510986,-2.3991653406620026,-5.366780021165891,1.0481068115809697,0.0,0.107484832406044,880.5157470703125,38.69453966617584,-0.030517585575580597,-10.986330807209015,-328.71727190033886,1,1789167871.1582477,38.99036979666667,-76.93983568833333,-9.238000000000003,0,1,19.998784000000004,24.453025000000004,111.57696900000002,1,1,1789167871.276075,0.785259427542358,-0.6174270272322492,-0.03119730541550358,0.034325291459903866,174.69631340387446,0.37868380213500175,-76.37145407250921,0.026921180113236937,-0.0940025608477886,0.1790835221581578,0.6529267677688598,0.7048039471244812,-9.637387379951477
2026-09-11T19:04:31.316,3.6093494399999884,-284.2222900390625,-25580.006103515625,-102320.0244140625,-194.69226867675783,-5.472620697021485,-3.4783639907836914,-2.382679333686829,-5.329901873852063,0.4932929120718007,0.0,0.10702325403690338,876.7344970703125,38.52837145328522,0.0,0.0,328.73206501934936,1,1789167871.1582477,38.99036979666667,-76.93983568833333,-9.238000000000003,0,1,19.998784000000004,24.453025000000004,111.57696900000002,1,1,1789167871.308075,0.783968976027002,-0.6190966197780766,-0.03240017974549212,0.0325921518005946,174.76590801314902,0.5985277237833865,-76.6233272783317,0.07883652231258387,-0.07849548497674418,0.14307266730053436,1.4157860838508607,0.19250454267501832,-10.973151198482512
2026-09-11T19:04:31.349,3.6427652479999892,-284.3416748046875,-25590.750732421875,-102363.0029296875,-194.77404724121095,-5.55439926147461,-3.5061187744140625,-2.401691360473633,-5.372430566556976,-0.5689530771425266,0.0,0.10579301416873932,866.6563720703125,38.085485100746155,-0.030517585575580597,-10.986330807209015,-328.77645236675784,1,1789167871.1582477,38.99036979666667,-76.93983568833333,-9.238000000000003,0,1,19.998784000000004,24.453025000000004,111.57696900000002,1,1,1789167871.336075,0.7828785913917987,-0.620543374665289,-0.031900746590521334,0.0317706415795362,174.8742663446516,0.6026882776435243,-76.83070287548827,0.02968997043860074,-0.06498384403950487,0.1514371577407172,2.302993723983765,0.11836626745223999,-11.437201884136199
2026-09-11T19:04:31.384,3.6761894720000043,-284.460205078125,-25601.41845703125,-102405.673828125,-194.85524047851564,-5.635592498779297,-3.560196876525879,-2.4387348604202272,-5.455294515972227,-1.1082830209185208,0.0,0.10543633997440338,863.7344970703125,37.95708239078522,0.0,0.0,328.6936686160328,1,1789167871.1582477,38.99036979666667,-76.93983568833333,-9.238000000000003,0,1,19.998784000000004,24.453025000000004,111.57696900000002,1,1,1789167871.376075,0.781398020985843,-0.6224407213352008,-0.032785706014731006,0.030162538093450906,174.95371571363108,0.7843227955891138,-77.11433762713217,0.03746837931596387,-0.040255670131398816,0.16423356275048923,-1.8251156616020203,0.7425595502471923,-8.14854175239563
2026-09-11T19:04:31.417,3.7096077439999817,-284.57403564453125,-25611.663208007812,-102446.65283203125,-194.93321441650392,-5.713566436767579,-3.431903123855591,-2.35085363984108,-5.258709824268695,2.629735630232669,0.0,0.10543633997440338,863.7344970703125,37.95708239078522,0.0,0.0,0.0,1,1789167871.1582477,38.99036979666667,-76.93983568833333,-9.238000000000003,0,1,19.998784000000004,24.453025000000004,111.57696900000002,1,1,1789167871.408075,0.7802928250827391,-0.623943200723718,-0.03158617360851127,0.028987980816421066,175.14344167268018,0.7516976271739518,-77.32542585916909,0.00995675431677725,-0.030713256979045016,0.13763282508791844,0.9078016054725647,0.4111928412818909,-8.007031790561676
2026-09-11T19:04:31.450,3.7430259519999822,-284.6856994628906,-25621.712951660156,-102486.85180664062,-195.0097041320801,-5.790056152343751,-3.3547582626342773,-2.29800940990448,-5.140500648497847,1.581300527442976,0.0,0.10543633997440338,863.7344970703125,37.95708239078522,0.0,0.0,0.0,1,1789167871.1582477,38.99036979666667,-76.93983568833333,-9.238000000000003,0,1,19.998784000000004,24.453025000000004,111.57696900000002,1,1,1789167871.448075,0.7788163707177816,-0.6259716388642825,-0.029057104695617588,0.027572680432900634,175.449914208011,0.6154181080087785,-77.60542999996554,0.003129026282975434,0.06864973360039375,0.15509013186514134,3.3938854879760743,-0.7009793535614014,-8.012425448150635
2026-09-11T19:04:31.484,3.77645695999999,-284.7951965332031,-25631.56768798828,-102526.27075195312,-195.08470962524416,-5.865061645507813,-3.250807762145996,-2.2268033170700074,-4.98121715522102,2.129941545120496,0.0,0.10531426966190338,862.7344970703125,37.91313707828522,0.0,0.0,0.0,1,1789167871.1582477,38.99036979666667,-76.93983568833333,-9.238000000000003,0,1,19.998784000000004,24.453025000000004,111.57696900000002,1,1,1789167871.476075,0.7777573792602577,-0.627365575688335,-0.02805030899401258,0.026815547967553685,175.5889445331994,0.5721861492362221,-77.80369492769186,0.04279390246257416,0.09263544444470144,0.14981819032656724,-2.4429346217918395,0.0009806650161743164,-8.888453507099152
2026-09-11T19:04:31.517,3.809870399999994,-284.9010314941406,-25641.092834472656,-102564.37133789062,-195.15720657348635,-5.93755859375,-3.1977946758270264,-2.1904893529415133,-4.89998513095363,1.0868071090103248,0.0,0.10545732080936432,863.9063720703125,37.964635491371155,0.0457763709127903,16.479493528604507,493.1995487026353,1,1789167871.1582477,38.99036979666667,-76.93983568833333,-9.238000000000003,0,1,19.998784000000004,24.453025000000004,111.57696900000002,1,1,1789167871.508075,0.7765358462608515,-0.6289037270520701,-0.025941958030445484,0.028270061646647058,175.610501724791,0.27109177518053246,-78.01728710284782,0.024659757001427883,0.04602607770434247,0.14587165182195766,1.6884109583473204,0.13601823774337768,-8.903751881351472
2026-09-11T19:04:31.550,3.843288159999986,-285.0057373046875,-25650.516357421875,-102602.0654296875,-195.22893005371094,-6.00928207397461,-3.145501136779785,-2.154668278694153,-4.819855669949335,1.0719172753460695,0.0,0.1054992824792862,864.2501220703125,37.97974169254303,0.0,0.0,-493.13579152547993,1,1789167871.1582477,38.99036979666667,-76.93983568833333,-9.238000000000003,0,1,19.998784000000004,24.453025000000004,111.57696900000002,1,1,1789167871.548075,0.7751445738590902,-0.6307059597964438,-0.023819243423552745,0.028169585314410918,175.77249504368743,0.07982816709092497,-78.27084957544153,-0.04289041917020945,0.05133903448033841,0.13735427053930013,1.9803549336624147,0.07296147720336915,-15.687502130737304
2026-09-11T19:04:31.584,3.8767131199999767,-285.10894775390625,-25659.805297851562,-102639.22119140625,-195.2996292114258,-6.0799812316894535,-3.0938429832458496,-2.119282443523407,-4.740699811031238,1.0586649967795303,0.0,0.10524751245975494,862.1876220703125,37.88910448551178,-0.015258789993822575,-5.493164397776127,-164.34318538534225,1,1789167871.1582477,38.99036979666667,-76.93983568833333,-9.238000000000003,0,1,19.998784000000004,24.453025000000004,111.57696900000002,1,1,1789167871.576075,0.7742354183272376,-0.6317491489341749,-0.024216391575552977,0.029429512528279907,175.6316576199923,0.018004462022535785,-78.4271822719022,-0.004194549791317972,0.024444034305881383,0.1320465497510602,-2.4838283529663086,0.7010774200630188,-7.061964914474487
2026-09-11T19:04:31.617,3.910130367999983,-285.2142333984375,-25669.281005859375,-102677.1240234375,-195.37174987792972,-6.15210189819336,-3.146676778793335,-2.1554735934734346,-4.821657107805637,-1.083008090612989,0.0,0.10507012903690338,860.7344970703125,37.82524645328522,0.0,0.0,164.38111234578875,1,1789167871.1582477,38.99036979666667,-76.93983568833333,-9.238000000000003,0,1,19.998784000000004,24.453025000000004,111.57696900000002,1,1,1789167871.608075,0.7731751822623769,-0.6329455093950367,-0.0260858405873539,0.029994142612334414,175.44571984379382,0.13570709158657263,-78.61506565793599,-0.024445954168058576,0.03419902856112809,0.13005582720623546,-0.7290263730239869,1.0990312836265563,-11.432788891563415
2026-09-11T19:04:31.651,3.943548383999996,-285.3197937011719,-25678.78143310547,-102715.12573242188,-195.44405868530274,-6.224410705566407,-3.1739492416381836,-2.174155230522156,-4.86344673971491,-0.5590289096969129,0.0,0.10494615137577057,859.7188720703125,37.780614495277405,-0.0305175818502903,-10.986329466104507,-328.7546892700099,1,1789167871.1582477,38.99036979666667,-76.93983568833333,-9.238000000000003,0,1,19.998784000000004,24.453025000000004,111.57696900000002,1,1,1789167871.648075,0.7720049006192862,-0.6342550501910384,-0.027918063175213656,0.03081471199791367,175.23936225666995,0.23015717882803724,-78.82047488677411,0.02085267030405265,0.02733377594840839,0.14234154887687395,0.20692031841278077,1.9124929145431517,-19.895339582138064
2026-09-11T19:04:31.684,3.9769627519999915,-285.4288635253906,-25688.597717285156,-102754.39086914062,-195.5187715148926,-6.299123535156251,-3.2275450229644775,-2.2108683407306673,-4.945571628334522,-1.0987222684719475,0.0,0.10381318628787994,850.4376220703125,37.37274706363678,0.0,0.0,328.79058092931797,1,1789167871.1582477,38.99036979666667,-76.93983568833333,-9.238000000000003,0,1,19.998784000000004,24.453025000000004,111.57696900000002,1,1,1789167871.676075,0.7711306406478964,-0.6352626654799439,-0.0289456574992263,0.031000480854645164,175.1476547977645,0.3010832943761891,-78.97661479011852,0.1458643214390993,0.05802067845574829,0.11623229593166477,-3.934820310897827,0.6824447847557068,-2.5538478351211547
2026-09-11T19:04:31.717,4.010383711999992,-285.53839111328125,-25698.455200195312,-102793.82080078125,-195.59379791259767,-6.374149932861329,-3.2796525955200195,-2.2465620279312137,-5.025416132630662,-1.0680030495995791,0.0,0.1037902981042862,850.2501220703125,37.36450731754303,0.0,0.0,0.0,1,1789167871.1582477,38.99036979666667,-76.93983568833333,-9.238000000000003,0,1,19.998784000000004,24.453025000000004,111.57696900000002,1,1,1789167871.708075,0.7699510009920585,-0.6365743634197044,-0.02914674520913718,0.03315121644584095,174.9423482746129,0.15336392723226572,-79.17279108316158,0.07446970852409406,0.06815807435010696,0.12026418103669687,0.6021283199310303,1.3102665281105041,-5.316871518192292
2026-09-11T19:04:31.751,4.043803711999999,-285.65521240234375,-25708.969116210938,-102835.87646484375,-195.6738204956055,-6.454172515869141,-3.4620041847229004,-2.371472866535187,-5.304833720774839,-3.737607378933223,0.0,0.1039123684167862,851.2501220703125,37.40845263004303,0.0,0.0,0.0,1,1789167871.1582477,38.99036979666667,-76.93983568833333,-9.238000000000003,0,1,19.998784000000004,24.453025000000004,111.57696900000002,1,1,1789167871.748075,0.7682714899078403,-0.6383804419097718,-0.02914961042096902,0.037143362720374204,174.5895561373314,-0.1508922399278733,-79.44134218558713,0.04544715199145595,0.08099287660342286,0.14584547188317776,0.17073377931594846,2.1196093659591675,-12.548393413963318
2026-09-11T19:04:31.784,4.077357695999979,-285.7764587402344,-25719.881286621094,-102879.52514648438,-195.75687423706057,-6.537226257324219,-3.5926928520202637,-2.460994603633881,-5.505088143418661,-2.6679912912501926,0.0,0.1040344387292862,852.2501220703125,37.45239794254303,0.0,0.0,0.0,1,1789167871.1582477,38.99036979666667,-76.93983568833333,-9.238000000000003,0,1,19.998784000000004,24.453025000000004,111.57696900000002,1,1,1789167871.776075,0.7670944739611554,-0.639673274787398,-0.0285697868035136,0.03959718200864952,174.41614341916787,-0.3911651652048995,-79.62977814052992,0.03332723659975692,-0.0043956117211477195,0.15278175939645364,1.4791370438957214,1.7140063152694702,-10.212743544940947
2026-09-11T19:04:31.817,4.110773375999997,-285.9010314941406,-25731.092834472656,-102924.37133789062,-195.84220657348635,-6.622558593750001,-3.7242977619171143,-2.5511439669132234,-5.706746525843818,-2.697816213205655,0.0,0.1041565090417862,853.2501220703125,37.49634325504303,0.0,0.0,0.0,1,1789167871.1582477,38.99036979666667,-76.93983568833333,-9.238000000000003,0,1,19.998784000000004,24.453025000000004,111.57696900000002,1,1,1789167871.808075,0.7658497148467449,-0.6410297733124383,-0.029848988541311607,0.040793159711209954,174.21745406715786,-0.3769849491236825,-79.84081759071648,-0.027912178062519315,-0.015424696330350285,0.14514402405680124,0.1289574496269226,1.8753257104301453,-8.769694973640442
2026-09-11T19:04:31.851,4.144192767999982,-286.0289611816406,-25742.606506347656,-102970.42602539062,-195.92983840942384,-6.710190429687501,-3.803407669067383,-2.6053342533111574,-5.827966744164179,-1.6215222107559188,0.0,0.10398103296756744,851.8126220703125,37.43317186832428,0.0457763709127903,16.479493528604507,493.11170977054314,1,1789167871.1582477,38.99036979666667,-76.93983568833333,-9.238000000000003,0,1,19.998784000000004,24.453025000000004,111.57696900000002,1,1,1789167871.848075,0.764180144786597,-0.6428520810661075,-0.03156103524081816,0.042116614743334356,173.97575156453797,-0.3387846939891709,-80.12535156977621,0.06111427455490825,-0.03272335267856689,0.14058312965548964,-2.163739291687012,1.0416623801803588,-11.671875022506713
2026-09-11T19:04:31.885,4.177609247999982,-286.1597900390625,-25754.381103515625,-103017.5244140625,-196.0194561767578,-6.799808197021485,-3.882709503173828,-2.6596560096740727,-5.949481052420521,-1.6255977997358142,0.0,0.101533904671669,831.7657470703125,36.55220568180084,-0.0915527492761612,-32.95898973941803,-1479.464122732947,1,1789167871.1582477,38.99036979666667,-76.93983568833333,-9.238000000000003,0,1,19.998784000000004,24.453025000000004,111.57696900000002,1,1,1789167871.876075,0.7630829469300693,-0.6440509410098281,-0.03230960416474796,0.04311485785194419,173.83335604109075,-0.35675525683385845,-80.31029799798509,0.00029042278753185644,0.011640473446176181,0.1423022789687041,0.41256577230453495,1.4492267609024048,-10.984330779666902
2026-09-11T19:04:31.918,4.211031295999987,-286.2919921875,-25766.279296875,-103065.1171875,-196.11001464843753,-6.890366668701172,-3.910464286804199,-2.6786680364608766,-5.992009745125433,-0.5688468518386646,0.0,0.09895707666873932,810.6563720703125,35.624547600746155,-0.0762939602136612,-27.46582567691803,164.35749426543464,1,1789167871.1582477,38.99036979666667,-76.93983568833333,-9.238000000000003,0,1,19.998784000000004,24.453025000000004,111.57696900000002,1,1,1789167871.908075,0.7619623443570975,-0.645335982404295,-0.03235066468702301,0.04368397979153313,173.7810642661411,-0.40575556735943363,-80.50311722356273,0.04164215968918311,0.003012787354792612,0.13605626917459196,0.10532342273712157,0.45797056255340574,-7.253194592628479
2026-09-11T19:04:31.951,4.2444464319999895,-286.4261474609375,-25778.353271484375,-103113.4130859375,-196.2019110107422,-6.98226303100586,-4.016371250152588,-2.751214306354523,-6.154291129103704,-2.1710601415371147,0.0,0.09676934778690338,792.7344970703125,34.83696520328522,0.0,0.0,821.9576205500491,1,1789167871.1582477,38.99036979666667,-76.93983568833333,-9.238000000000003,0,1,19.998784000000004,24.453025000000004,111.57696900000002,1,1,1789167871.948075,0.7606889596243324,-0.6469183695885339,-0.03251702677307788,0.04232697443005934,173.88821797643683,-0.303297086189852,-80.74197611481068,0.033937403706254136,0.058559287062913745,0.11956238414446994,-1.1613035121536255,-0.16622272024154663,-10.859884389114379
2026-09-11T19:04:31.985,4.277862175999985,-286.560302734375,-25790.42724609375,-103161.708984375,-196.2938073730469,-7.0741593933105476,-4.017267227172852,-2.7518280506134034,-6.1556640359104335,-0.01836691886556106,0.0,0.09644319117069244,790.0626220703125,34.71954882144928,0.0,0.0,0.0,1,1789167871.1582477,38.99036979666667,-76.93983568833333,-9.238000000000003,0,1,19.998784000000004,24.453025000000004,111.57696900000002,1,1,1789167871.976075,0.7599052433679713,-0.6478973461893041,-0.030840118856974352,0.042684153635852484,173.9821657398294,-0.48351128192393994,-80.87659089917572,0.02738753208936982,0.02460460459706486,0.13217902024128655,0.6412568540763856,0.4350230011749267,-10.733868934535979
2026-09-11T19:04:32.018,4.311285503999983,-286.69207763671875,-25802.286987304688,-103209.14794921875,-196.38407318115236,-7.164425201416016,-3.9658851623535156,-2.7166313362121586,-6.076931228105216,1.0530583430006473,0.0,0.0967102199792862,792.2501220703125,34.81567919254303,0.0,0.0,0.0,1,1789167871.1582477,38.99036979666667,-76.93983568833333,-9.238000000000003,0,1,19.998784000000004,24.453025000000004,111.57696900000002,1,1,1789167872.008075,0.7584813526669721,-0.6494188988267465,-0.03070072978403887,0.04492879582031522,173.7977683998346,-0.6751521978266404,-81.1043224121751,-0.04397723569542632,0.012677722620636411,0.14378877589262765,1.5734770184516909,0.5277939117050171,-10.662280388355256
2026-09-11T19:04:32.052,4.344701919999977,-286.8234558105469,-25814.11102294922,-103256.44409179688,-196.47406723022462,-7.254419250488282,-3.9393651485443115,-2.6984651267528537,-6.036294574876634,0.5436312936524369,0.0,0.0971985012292862,796.2501220703125,34.99146044254303,0.0,0.0,0.0,1,1789167871.1582477,38.99036979666667,-76.93983568833333,-9.238000000000003,0,1,19.998784000000004,24.453025000000004,111.57696900000002,1,1,1789167872.048075,0.7569893685700504,-0.6510539820248206,-0.03152013794054707,0.045850728083091874,173.65772980810308,-0.6865218270826398,-81.35677861674753,0.004949753758655919,-0.022401126416422022,0.144782391835788,-0.7142183312797546,0.9334950288963317,-10.13252514661789
2026-09-11T19:04:32.085,4.378119007999999,-286.956298828125,-25826.06689453125,-103304.267578125,-196.56506469726563,-7.3454167175292975,-3.940800189971924,-2.6994481301307682,-6.0384934908079035,-0.029416189044178167,0.0,0.0973205715417862,797.2501220703125,35.03540575504303,0.0,0.0,0.0,1,1789167871.1582477,38.99036979666667,-76.93983568833333,-9.238000000000003,0,1,19.998784000000004,24.453025000000004,111.57696900000002,1,1,1789167872.076075,0.7558843270459346,-0.6522223374884136,-0.03339258514063865,0.04615020980548122,173.49254027289922,-0.5568396287507114,-81.54753348343812,0.011028735543352168,-0.08259700871893084,0.15373121850953853,0.16622272024154663,1.3923481899642944,-10.15812050354004
2026-09-11T19:04:32.118,4.411544959999986,-287.0893859863281,-25838.04473876953,-103352.17895507812,-196.65622940063477,-7.436581420898438,-3.993421792984009,-2.735493928194046,-6.119125644671714,-1.0783776050205307,0.0,0.09702874720096588,794.8594970703125,34.93034899234772,-0.0305175818502903,-10.986329466104507,-328.67663622889785,1,1789167871.1582477,38.99036979666667,-76.93983568833333,-9.238000000000003,0,1,19.998784000000004,24.453025000000004,111.57696900000002,1,1,1789167872.108075,0.7542510912700754,-0.6541561052135424,-0.032606111784595306,0.04606433331808736,173.5605004614729,-0.6348581891376645,-81.83397575517651,-0.008942019889667748,-0.07341936938024386,0.15744440649315647,2.47765016336441,-0.49386290214538575,-11.833096351165771
2026-09-11T19:04:32.152,4.444961183999993,-287.219482421875,-25849.75341796875,-103399.013671875,-196.7453454589844,-7.5256974792480476,-3.890472412109375,-2.664973602294922,-5.96137616834046,2.1103618978346956,0.0,0.09459306299686432,774.9063720703125,34.053502678871155,-0.2593994438648224,-93.38379979133606,-2465.7923745428147,1,1789167871.1582477,38.99036979666667,-76.93983568833333,-9.238000000000003,0,1,19.998784000000004,24.453025000000004,111.57696900000002,1,1,1789167872.148075,0.7529418926151388,-0.6558975966799027,-0.03169252101824337,0.04327162033214141,173.87254719327592,-0.5178606326609729,-82.09138522675394,0.18381825135296798,-0.04206313310476414,0.13422122999904512,-1.0301885994911195,-1.425886933517456,-12.15161634841919
2026-09-11T19:04:32.185,4.478382047999986,-287.34857177734375,-25861.371459960938,-103445.48583984375,-196.83377166748048,-7.614123687744141,-3.813783645629883,-2.6124417972564697,-5.84386586716282,1.5718266600906436,0.0,0.08848382532596588,724.8594970703125,31.854177117347717,-0.2136230766773224,-76.90430760383606,493.0899508613394,1,1789167872.1731787,38.990368473333334,-76.93985063,-9.276000000000003,0,1,9.784384000000001,12.236004000000001,57.320040999999996,1,1,1789167872.176075,0.7520690435768543,-0.6568708726681963,-0.03195791612451972,0.04349140064996622,173.8341993738916,-0.5195279922353725,-82.24113456275097,0.06476951760735997,0.021831276415645872,0.07566054667272978,-2.282890091152191,4.355231403331756,-1.8487496884918213
2026-09-11T19:04:32.218,4.511804544,-287.4764404296875,-25872.879638671875,-103491.5185546875,-196.92136169433596,-7.70171371459961,-3.788646697998047,-2.595222988128662,-5.805348488118869,0.5151862125378148,0.0,0.07938767969608307,650.3438720703125,28.579564690589905,-0.3204346001148224,-115.35645604133606,-1150.4870383553528,1,1789167872.1731787,38.990368473333334,-76.93985063,-9.276000000000003,0,1,9.784384000000001,12.236004000000001,57.320040999999996,1,1,1789167872.208075,0.7510521545494244,-0.6581370304091029,-0.03135258119437445,0.04234768002388238,173.9795660539141,-0.49540298270447813,-82.42925544732623,0.08724604224746814,0.11007774139035716,0.14162352042260348,-4.178221367912292,-0.925845841770172,-10.473404306240083
2026-09-11T19:04:32.252,4.545213856000004,-287.6011962890625,-25884.107666015625,-103536.4306640625,-197.00681945800784,-7.787171478271485,-3.737513303756714,-2.5601966130733493,-5.726996718578531,1.0484015670633755,0.0,0.07512284815311432,615.4063720703125,27.044225335121155,0.061035171151161194,21.97266161441803,4110.504210794286,1,1789167872.1731787,38.990368473333334,-76.93985063,-9.276000000000003,0,1,9.784384000000001,12.236004000000001,57.320040999999996,1,1,1789167872.248075,0.7503226153577648,-0.6590357057880508,-0.030746598629618385,0.04174395826749724,174.0780756664066,-0.5088952799542472,-82.56171067163054,0.020319646750493584,0.13596324312546065,0.11355635712250707,-1.6083886930274962,-0.6345883319664002,-10.075352376174928
2026-09-11T19:04:32.285,4.578632671999998,-287.7244567871094,-25895.201110839844,-103580.80444335938,-197.09125289916994,-7.871604919433595,-3.6606016159057617,-2.507512106895447,-5.609144834680217,1.576492302357808,0.0,0.07643891870975494,626.1876220703125,27.51801073551178,0.2441406548023224,87.89063572883606,1972.480835779159,1,1789167872.1731787,38.990368473333334,-76.93985063,-9.276000000000003,0,1,9.784384000000001,12.236004000000001,57.320040999999996,1,1,1789167872.276075,0.7495412900038401,-0.6598849844256951,-0.029559660595863364,0.0431959300668089,174.04343035595068,-0.727465039574473,-82.68257082598073,-0.09857567255386414,0.12170774286102139,0.0883342550360866,0.5018062887763977,-1.6477133601760865,-7.145713706855774
2026-09-11T19:04:32.319,4.612058112,-287.8428649902344,-25905.857849121094,-103623.43139648438,-197.17236251831056,-7.952714538574219,-3.558429718017578,-2.437524356842041,-5.452586696586521,2.093846784168035,0.0,0.08366204798221588,685.3594970703125,30.118337273597717,0.3204346001148224,115.35645604133606,821.7040766702946,1,1789167872.1731787,38.990368473333334,-76.93985063,-9.276000000000003,0,1,9.784384000000001,12.236004000000001,57.320040999999996,1,1,1789167872.308075,0.7482155855408721,-0.6614071301939354,-0.026522803088345683,0.044839565103708096,174.13391372393147,-1.1244942330515908,-82.89441988984903,-0.12101100742362524,0.10988854769944098,0.13122746673309924,2.2567063352203367,0.7350084296226502,-6.4242384544563285
2026-09-11T19:04:32.353,4.645508735999982,-287.9626770019531,-25916.64093017578,-103666.56372070312,-197.2544337463379,-8.034785766601564,-3.5599441528320312,-2.4385617446899417,-5.454907267112426,-0.031012511093998735,0.0,0.09296227991580963,761.5469970703125,33.46642076969147,0.3051758110523224,109.86329197883606,-164.2170879234679,1,1789167872.1731787,38.990368473333334,-76.93985063,-9.276000000000003,0,1,9.784384000000001,12.236004000000001,57.320040999999996,1,1,1789167872.348075,0.7468411864284069,-0.6629736671489451,-0.026428111171635904,0.04467341335950445,174.15774133696334,-1.1322033103086604,-83.13338933805785,-0.015933285274381433,0.06345545921353345,0.14370028769955154,-0.7249075799560547,0.28723678323745727,-9.483128772907257
2026-09-11T19:04:32.386,4.678927391999991,-288.08154296875,-25927.3388671875,-103709.35546875,-197.33585693359376,-8.116208953857422,-3.5613958835601807,-2.439556180238724,-5.457131756081607,-0.029756898325954247,0.0,0.10271073877811432,841.4063720703125,36.975865960121155,0.1525879204273224,54.93165135383606,-1643.7417658263983,1,1789167872.1731787,38.990368473333334,-76.93985063,-9.276000000000003,0,1,9.784384000000001,12.236004000000001,57.320040999999996,1,1,1789167872.376075,0.7456342011096074,-0.664287941366974,-0.02795725346866189,0.04437973713930753,174.0684160773438,-0.9895518747175295,-83.3446271361265,0.01897155443625316,-0.02640299185831982,0.17089635716997756,-0.901525349369049,0.01500417474746704,-8.36507258796692
2026-09-11T19:04:32.419,4.712352224,-288.2026672363281,-25938.24005126953,-103752.96020507812,-197.4188270568848,-8.199179077148438,-3.6400139331817627,-2.4934095442295074,-5.577598300441806,-1.611178299737442,0.0,0.10485078394412994,858.9376220703125,37.74628221988678,0.1068115308880806,38.452151119709015,-493.03165485238105,1,1789167872.1731787,38.990368473333334,-76.93985063,-9.276000000000003,0,1,9.784384000000001,12.236004000000001,57.320040999999996,1,1,1789167872.408075,0.7441373967058791,-0.6660529740766216,-0.030346223765183287,0.04137725523373462,174.1450634149391,-0.5704099871771369,-83.63219076944083,0.023335575697939783,-0.052184471970004455,0.18327318502757017,-1.7438185317611694,0.7175525923347473,-9.036141658535003
2026-09-11T19:04:32.453,4.74576790399999,-288.3262634277344,-25949.363708496094,-103797.45483398438,-197.50349044799808,-8.283842468261719,-3.718817949295044,-2.5473902952671055,-5.698349801510162,-1.6154317684875399,0.0,0.1061096340417862,869.2501220703125,38.19946825504303,0.0,0.0,-1150.721790480403,1,1789167872.1731787,38.990368473333334,-76.93985063,-9.276000000000003,0,1,9.784384000000001,12.236004000000001,57.320040999999996,1,1,1789167872.448075,0.7418665194473328,-0.6684226594735434,-0.0334927604163128,0.0415144628426196,173.8937341144864,-0.332552308272689,-84.02004504248517,-0.010459758207202017,-0.010424851622162131,0.16763102067242136,-1.5264050976753236,1.2972236833953859,-5.74571632976532
2026-09-11T19:04:32.486,4.779188255999998,-288.45428466796875,-25960.885620117188,-103843.54248046875,-197.5911849975586,-8.371537017822266,-3.823681116104126,-2.6192215645313266,-5.85903177463163,-2.1493271304923804,0.0,0.10580255091190338,866.7344970703125,38.08891832828522,0.0,0.0,0.0,1,1789167872.1731787,38.990368473333334,-76.93985063,-9.276000000000003,0,1,9.784384000000001,12.236004000000001,57.320040999999996,1,1,1789167872.476075,0.7403272430280929,-0.6700253750369253,-0.035669868696282754,0.04134284102768743,173.74150477371225,-0.14821025368095198,-84.28457409711675,-0.021712943092360656,-0.027653694800298955,0.18225879966631106,1.8863091586112974,2.3975298315429687,-8.381351627235412
2026-09-11T19:04:32.519,4.812613791999979,-288.5856628417969,-25972.70965576172,-103890.83862304688,-197.6811790466309,-8.461531066894532,-3.954094886779785,-2.708554997444153,-6.058864972808138,-2.6726103333952724,0.0,0.10567285120487213,865.6719970703125,38.04222643375397,0.03051757998764515,10.986328795552254,328.68070673745723,1,1789167872.1731787,38.990368473333334,-76.93985063,-9.276000000000003,0,1,9.784384000000001,12.236004000000001,57.320040999999996,1,1,1789167872.508075,0.7383222584939834,-0.6720191709057246,-0.037072607192346334,0.04354421136601514,173.4467174524504,-0.21669473027856695,-84.60436980880183,-0.010125178589594705,-0.03268530450087341,0.18505446806215559,2.5091295103836058,2.9313057998466494,-10.024161662330629
2026-09-11T19:04:32.553,4.846030143999997,-288.7230224609375,-25985.072021484375,-103940.2880859375,-197.7752703857422,-8.55562240600586,-4.110132694244385,-2.815440895557404,-6.297961917406498,-3.198610611750652,0.0,0.10531426966190338,862.7344970703125,37.91313707828522,0.0,0.0,-328.77103986534826,1,1789167872.1731787,38.990368473333334,-76.93985063,-9.276000000000003,0,1,9.784384000000001,12.236004000000001,57.320040999999996,1,1,1789167872.548075,0.7359367417081305,-0.6743928217226424,-0.04078370995840999,0.04391039985038831,173.1287270079865,0.045993866903618515,-85.00538867828037,-0.041374949780702774,-0.0718082559477279,0.19903176284382695,-2.3127023076438906,2.0393909676361086,-9.884711097030639
2026-09-11T19:04:32.586,4.879448799999977,-288.8679504394531,-25998.11553955078,-103992.46215820312,-197.87454605102542,-8.654898071289063,-4.293275356292725,-2.9408936190605166,-6.578591667547677,-3.75397273616225,0.0,0.10436250269412994,854.9376220703125,37.57050096988678,-0.0915527418255806,-32.958987057209015,-986.2451397575062,1,1789167872.1731787,38.990368473333334,-76.93985063,-9.276000000000003,0,1,9.784384000000001,12.236004000000001,57.320040999999996,1,1,1789167872.576075,0.7345151103682149,-0.6758090608748333,-0.04390687054646464,0.04291681021535431,172.96971303696438,0.3720459586955672,-85.25562648845388,0.06813835212955943,-0.01660506250347405,0.16212764847503286,-1.071670729675293,0.9141759280776978,-11.209491467380523
2026-09-11T19:04:32.620,4.91286566399998,-289.0129699707031,-26011.16729736328,-104044.66918945312,-197.97388442993164,-8.754236450195313,-4.346523761749268,-2.9773687767982486,-6.6601842716496185,-1.091519471657447,0.0,0.10279084742069244,842.0626220703125,37.00470507144928,-0.0915527418255806,-32.958987057209015,0.0,1,1789167872.1731787,38.990368473333334,-76.93985063,-9.276000000000003,0,1,9.784384000000001,12.236004000000001,57.320040999999996,1,1,1789167872.616075,0.7327088562008941,-0.6777648733344545,-0.04433424717219217,0.04250862320027771,172.96979445639025,0.420926533498646,-85.56428105037172,0.0018357373072476358,-0.04288221612272508,0.15462098736220525,-1.6491843577003478,1.1492413324546815,-7.7823614353561394
2026-09-11T19:04:32.653,4.946282687999997,-289.1588439941406,-26024.295959472656,-104097.18383789062,-198.07380813598635,-8.85416015625,-4.373479843139648,-2.9958336925506592,-6.701489111825913,-0.5525601487553661,0.0,0.09867669641971588,808.3594970703125,35.52361071109772,-0.1068115383386612,-38.45215380191803,-164.38228445197117,1,1789167872.1731787,38.990368473333334,-76.93985063,-9.276000000000003,0,1,9.784384000000001,12.236004000000001,57.320040999999996,1,1,1789167872.648075,0.7314064646185445,-0.6789431769831648,-0.04769680337414484,0.042494245376249774,172.7073586773143,0.6915278451358635,-85.78336728247156,-0.033969517764490836,-0.09294035346502486,0.1638625057515152,-0.324894319858551,1.3048728705215455,-9.337303885002136
2026-09-11T19:04:32.687,4.97970275199998,-289.30767822265625,-26037.691040039062,-104150.76416015625,-198.17575958251956,-8.956111602783205,-4.400811195373535,-3.0145556688308717,-6.743368980026101,-0.5602016884294913,0.0,0.09494592249393463,777.7969970703125,34.18053209781647,-0.0762939602136612,-27.46582567691803,328.73450287244845,1,1789167872.1731787,38.990368473333334,-76.93985063,-9.276000000000003,0,1,9.784384000000001,12.236004000000001,57.320040999999996,1,1,1789167872.676075,0.730173361201457,-0.6803427297382912,-0.04539994161834586,0.04381184754227545,172.77544900851228,0.3830544770910878,-85.97758112408819,0.06570326875717694,-0.05583796969320418,0.13454568670699088,1.846003826446533,0.5331875692939758,-11.01149520061493
2026-09-11T19:04:32.720,5.013125664,-289.4515380859375,-26050.638427734375,-104202.5537109375,-198.2743035888672,-9.05465560913086,-4.350160598754883,-2.979860010147095,-6.665757001939629,1.0380800656673945,0.0,0.09396173059940338,769.7344970703125,33.82622301578522,0.0,0.0,821.7663881860864,1,1789167872.1731787,38.990368473333334,-76.93985063,-9.276000000000003,0,1,9.784384000000001,12.236004000000001,57.320040999999996,1,1,1789167872.716075,0.7288325626621033,-0.6819026397092819,-0.045652022898613705,0.041566553455500234,172.94300876908693,0.5647551158841003,-86.22419361998575,-0.027231848720091927,-0.10433229202571703,0.12390301799417985,-0.5891835417175293,0.17867716594696045,-7.2171061200332645
2026-09-11T19:04:32.754,5.046545343999981,-289.5928649902344,-26063.357849121094,-104253.43139648438,-198.37111251831055,-9.151464538574219,-4.221539497375488,-2.8917545557022097,-6.468670713363919,2.636334472530485,0.0,0.0941467434167862,771.2501220703125,33.89282763004303,0.0,0.0,0.0,1,1789167872.1731787,38.990368473333334,-76.93985063,-9.276000000000003,0,1,9.784384000000001,12.236004000000001,57.320040999999996,1,1,1789167872.748075,0.7276315255441419,-0.6833574367691577,-0.04354890954910974,0.040969124028649016,173.15735235593178,0.42296173374322293,-86.43080582065285,0.02421644337142132,-0.06964492033988093,0.12689398873332253,1.3178176487350464,0.0039226600646972655,-8.956511659221649
2026-09-11T19:04:32.787,5.079965055999992,-289.7332763671875,-26075.994873046875,-104303.9794921875,-198.46729431152346,-9.24764633178711,-4.171376705169678,-2.8573930430412293,-6.391806198642685,1.02818099273174,0.0,0.09440232813358307,773.3438720703125,33.984838128089905,0.015258795581758022,5.493166409432888,164.36905289402367,1,1789167872.1731787,38.990368473333334,-76.93985063,-9.276000000000003,0,1,9.784384000000001,12.236004000000001,57.320040999999996,1,1,1789167872.776075,0.726653242718821,-0.6843648661982713,-0.04539874496006448,0.03948099182765411,173.13530369403952,0.6840982451563892,-86.60773638109816,-0.07392586392917262,-0.11976746033157928,0.14243841465035964,2.013599477710724,0.8844617780876161,-7.345377104148865
2026-09-11T19:04:32.820,5.113383647999996,-289.8725891113281,-26088.53302001953,-104354.13208007812,-198.56272354125977,-9.343075561523438,-4.173470973968506,-2.858827617168427,-6.395015249571456,-0.04292742576339934,0.0,0.09415437281131744,771.3126220703125,33.89557421207428,-0.0457763709127903,-16.479493528604507,-657.4980758625277,1,1789167872.1731787,38.990368473333334,-76.93985063,-9.276000000000003,0,1,9.784384000000001,12.236004000000001,57.320040999999996,1,1,1789167872.816075,0.725038350362434,-0.6860267998495679,-0.04600411635096363,0.039626275003437766,173.0738206074493,0.7070549693582231,-86.87549629521469,0.0036737435425228645,-0.03511358108917312,0.15439496722407198,-0.35294133932113647,0.31224374114990233,-10.219706266555786
2026-09-11T19:04:32.854,5.146799359999989,-290.0103759765625,-26100.933837890625,-104403.7353515625,-198.65710754394533,-9.437459564208986,-4.149251937866211,-2.842237577438355,-6.357904387612633,0.496474225360678,0.0,0.09063149988651276,742.4532470703125,32.62733995914459,-0.2899170219898224,-104.37012791633606,-2630.2188140641783,1,1789167872.1731787,38.990368473333334,-76.93985063,-9.276000000000003,0,1,9.784384000000001,12.236004000000001,57.320040999999996,1,1,1789167872.848075,0.7236294587357958,-0.6874833078245046,-0.04556876963332931,0.040627517109974684,173.0236145044471,0.578028450829362,-87.10057303796803,-0.23586396964743891,-0.10997005457550911,0.12236311399514525,1.3341947545051576,3.684456532268524,-18.588309248580934
2026-09-11T19:04:32.887,5.180220511999977,-290.147216796875,-26113.24951171875,-104452.998046875,-198.7508435058594,-9.531195526123048,-4.150715351104736,-2.8432400155067445,-6.360146777708351,-0.0299941207409632,0.0,0.07730866968631744,633.3126220703125,27.83112108707428,-0.4119873642921448,-148.31545114517212,-1314.8955257093307,1,1789167872.1731787,38.990368473333334,-76.93985063,-9.276000000000003,0,1,9.784384000000001,12.236004000000001,57.320040999999996,1,1,1789167872.876075,0.7225856909062908,-0.6884788364623463,-0.04697498766422133,0.040745080376390984,172.90154188321048,0.6751121263625104,-87.27261989924163,-0.05420783217184148,-0.07945925578969544,0.10624307849080042,-2.9467022406005863,2.667703043498993,-9.15656732252121
2026-09-11T19:04:32.921,5.213660863999991,-290.28448486328125,-26125.603637695312,-104502.41455078125,-198.84487213134767,-9.625224151611329,-4.126135349273682,-2.826402714252472,-6.322482807472416,0.5035025126011085,0.0,0.07072259485721588,579.3594970703125,25.460134148597717,0.0610351637005806,21.972658932209015,5092.294186296582,1,1789167872.1731787,38.990368473333334,-76.93985063,-9.276000000000003,0,1,9.784384000000001,12.236004000000001,57.320040999999996,1,1,1789167872.916075,0.7220901274027249,-0.6890737041761665,-0.04598054964923311,0.04060870811054568,172.99125005898054,0.5981453461490659,-87.35606749761638,0.04522043372162188,0.013392434949328088,0.054969668390337005,0.15739673509597776,-1.5440570679664611,-15.063897246952056
2026-09-11T19:04:32.954,5.2470767679999994,-290.4211730957031,-26137.90557861328,-104551.62231445312,-198.93850357055666,-9.718855590820313,-4.074011325836182,-2.7906977581977848,-6.242613095467479,1.068501874277528,0.0,0.07048799097537994,577.4376220703125,25.37567675113678,0.0,0.0,-657.5509353930156,1,1789167872.1731787,38.990368473333334,-76.93985063,-9.276000000000003,0,1,9.784384000000001,12.236004000000001,57.320040999999996,1,1,1789167872.948075,0.7215657094361595,-0.6896906477437592,-0.0447983007323792,0.04077805331519818,173.07059697037647,0.4813676339195276,-87.44138468990472,-0.04125958351714595,-0.07469852118903052,0.052833908984671545,1.323211306324005,-0.12934971563339234,-8.668392277469636
2026-09-11T19:04:32.987,5.280497983999993,-290.5547180175781,-26149.92462158203,-104599.69848632812,-199.02998184204102,-9.810333862304688,-4.021484375,-2.7547167968750004,-6.162125977261536,1.0765904305454141,0.0,0.06876565515995026,563.3282470703125,24.755635857582092,-0.0457763746380806,-16.479494869709015,-493.0848377782596,1,1789167872.1731787,38.990368473333334,-76.93985063,-9.276000000000003,0,1,9.784384000000001,12.236004000000001,57.320040999999996,1,1,1789167872.976075,0.7215810323694029,-0.6896862158438102,-0.04654247359196767,0.03856858244339484,173.11529532468197,0.800327339573137,-87.45879989780009,-0.015212813359158174,-0.0507857651074562,0.0371498567274749,-2.333786605491638,-0.18407082353591916,-8.975536560535431
2026-09-11T19:04:33.021,5.313918943999994,-290.6880798339844,-26161.927185058594,-104647.70874023438,-199.1213346862793,-9.90168670654297,-3.995710849761963,-2.7370619320869447,-6.122633169485821,0.5282572609540608,0.0,0.06857110559940338,561.7344970703125,24.685598015785217,0.0,0.0,493.08861474082744,1,1789167872.1731787,38.990368473333334,-76.93985063,-9.276000000000003,0,1,9.784384000000001,12.236004000000001,57.320040999999996,1,1,1789167873.016075,0.7212040899408373,-0.6902370601291292,-0.04449977790924334,0.038173698313545924,173.3098187830239,0.6582880462180664,-87.52474046956063,0.014516252454687238,-0.029143856915651713,0.054060002784197564,-3.3350455870056153,-1.1386501502799988,-11.373360591583252
2026-09-11T19:04:33.054,5.347335168000001,-290.81829833984375,-26173.646850585938,-104694.58740234375,-199.210534362793,-9.990886383056642,-3.9450645446777344,-2.702369213104248,-6.045027767323383,1.0381998571319584,0.0,0.06857110559940338,561.7344970703125,24.685598015785217,0.0,0.0,0.0,1,1789167872.1731787,38.990368473333334,-76.93985063,-9.276000000000003,0,1,9.784384000000001,12.236004000000001,57.320040999999996,1,1,1789167873.048075,0.7207818518626534,-0.6907950555156293,-0.043052859062358485,0.03771159804568586,173.46265897281333,0.5707595159050064,-87.59864030190664,0.0017264796960727907,-0.014023371473924039,0.05941484746224136,3.063205244522095,-0.38706848188400267,-9.686714830265046
2026-09-11T19:04:33.088,5.380758079999993,-290.9456481933594,-26185.108337402344,-104740.43334960938,-199.2977690124512,-10.078121032714845,-3.816516160964966,-2.6143135702610016,-5.848052904127145,2.6345891956771443,0.0,0.0688781887292862,564.2501220703125,24.79614794254303,0.0,0.0,0.0,1,1789167872.1731787,38.990368473333334,-76.93985063,-9.276000000000003,0,1,9.784384000000001,12.236004000000001,57.320040999999996,1,1,1789167873.076075,0.7202865350559092,-0.691383176215811,-0.040475139982482686,0.03922211246590209,173.54222741361883,0.2333307901821185,-87.6672757990619,0.007529524926028737,0.013090842054583468,0.06633856860490288,0.6526325682640075,-0.26046462829589845,-7.216125455017091
2026-09-11T19:04:33.122,5.414176447999978,-291.0708312988281,-26196.37481689453,-104785.49926757812,-199.3835194396973,-10.163871459960939,-3.7137413024902344,-2.543912792205811,-5.6905708487066216,2.1066491952934885,0.0,0.0690002590417862,565.2501220703125,24.84009325504303,0.0,0.0,0.0,1,1789167872.1731787,38.990368473333334,-76.93985063,-9.276000000000003,0,1,9.784384000000001,12.236004000000001,57.320040999999996,1,1,1789167873.116075,0.7201527839665773,-0.6917877042471565,-0.038119352851549555,0.036832797013207595,173.9271835061605,0.22589286198404918,-87.71021300689085,0.005233020696254598,0.04886119054128205,0.06834185752034197,-0.7141202647781372,-0.664106348953247,-8.0442970611763
2026-09-11T19:04:33.155,5.447587392000003,-291.19134521484375,-26207.221069335938,-104828.88427734375,-199.46607147216798,-10.246423492431642,-3.66241717338562,-2.50875576376915,-5.611926815875866,1.0522608531095339,0.0,0.0693664699792862,568.2501220703125,24.97192919254303,0.0,0.0,0.0,1,1789167873.1521592,38.99036860333333,-76.939867165,-9.293000000000003,0,1,14.546596000000001,14.3641,87.92812900000001,1,1,1789167873.148075,0.7198899007498344,-0.6920741700094677,-0.03835675512709356,0.03634051926183951,173.9489193764375,0.2821606164605113,-87.75774869022767,0.03940639291737837,0.03966016379061835,0.07280588614816787,-0.5425038869476319,1.1090340667915344,-11.094067194976807
2026-09-11T19:04:33.188,5.481007680000005,-291.3116760253906,-26218.050842285156,-104872.20336914062,-199.5484980773926,-10.32885009765625,-3.585304021835327,-2.4559332549571993,-5.493766228877051,1.5805521727385305,0.0,0.0701770931482315,574.8907470703125,25.263753533363342,0.030517585575580597,10.986330807209015,328.73237978105794,1,1789167873.1521592,38.99036860333333,-76.939867165,-9.293000000000003,0,1,14.546596000000001,14.3641,87.92812900000001,1,1,1789167873.176075,0.7195806888548568,-0.692436943879204,-0.037444997192836414,0.0365045635999945,174.00779624928464,0.19109191082640462,-87.80743640643011,0.007228804695910114,-0.023701920307933395,0.0948586448458918,1.128255101108551,0.38785301389694216,-8.288384583702088
2026-09-11T19:04:33.222,5.514429407999984,-291.428466796875,-26228.56201171875,-104914.248046875,-199.6284997558594,-10.408851776123047,-3.5341813564300537,-2.420914229154587,-5.415430899146798,1.0477921968198074,0.0,0.0717010647058487,587.3751220703125,25.81238329410553,0.015258791856467724,5.493165068328381,-164.35911808282526,1,1789167873.1521592,38.99036860333333,-76.939867165,-9.293000000000003,0,1,14.546596000000001,14.3641,87.92812900000001,1,1,1789167873.216075,0.7193064373517796,-0.6928088758191303,-0.03605467955052784,0.036251494493773365,174.13931290008563,0.09385121067143085,-87.85480932670133,-0.02174645341399895,-0.007517307621264777,0.0739326707132554,-2.5654196823120117,0.8224837490653991,-7.5937795527458185
2026-09-11T19:04:33.255,5.547840927999999,-291.5415954589844,-26238.743591308594,-104954.97436523438,-199.7059928894043,-10.48634490966797,-3.4053783416748047,-2.3326841640472415,-5.218065864457854,2.6407079087483725,0.0,0.0720520168542862,590.2501220703125,25.93872606754303,0.0,0.0,-164.40931356387918,1,1789167873.1521592,38.99036860333333,-76.939867165,-9.293000000000003,0,1,14.546596000000001,14.3641,87.92812900000001,1,1,1789167873.248075,0.7188443644037403,-0.693231993689633,-0.03651325128555495,0.03686414478374886,174.05212951263707,0.07929054631332323,-87.92587493541181,-0.03319860583388494,-0.04853760649796231,0.07996295781182101,0.0576631029510498,0.02441855890274048,-10.49595960161209
