timestamp,time_s,drive_pos_turns,drive_encoder_count,drive_wheel_angle_deg,drive_distance_m,drive_distance_since_start_m,drive_velocity_turns_s,drive_velocity_mps,drive_velocity_mph,drive_acceleration_mps2,drive_iq_A,steer_pos_turns,steer_encoder_count,steer_angle_deg,steer_velocity_turns_s,steer_velocity_deg_s,steer_acceleration_deg_s2,gps_received,gps_ros_stamp_s,gps_latitude_deg,gps_longitude_deg,gps_altitude_m,gps_status,gps_service,gps_cov_x_m2,gps_cov_y_m2,gps_cov_z_m2,gps_covariance_type,imu_received,imu_ros_stamp_s,imu_qx,imu_qy,imu_qz,imu_qw,imu_roll_deg,imu_pitch_deg,imu_yaw_deg,imu_gyro_x_rad_s,imu_gyro_y_rad_s,imu_gyro_z_rad_s,imu_accel_x_mps2,imu_accel_y_mps2,imu_accel_z_mps2
2026-09-11T19:21:11.999,9.760000011738157e-06,-248.42684936523438,-22358.416442871094,-89433.66577148438,-170.17239181518556,0.0,0.0,0.0,0.0,0.0,0.0,-0.127899169921875,-1047.75,-46.043701171875,0.1068115308880806,38.452151119709015,0.0,1,1789168871.7512608,38.990216456666666,-76.93881057666667,-11.058000000000003,0,1,8.433216,8.661249,49.970760999999996,1,1,1789168871.9958515,-0.8121780400930562,0.5828431943803505,0.02550800781155729,-0.003159666532471033,178.00045086067604,2.1634817435784623,-71.36646012489216,0.00468743077208117,-0.009505412172211517,0.012576318991095542,-0.26585828588485716,0.32126585929870605,-9.649155360145569
2026-09-11T19:21:12.032,0.03343094399997426,-248.42684936523438,-22358.416442871094,-89433.66577148438,-170.17239181518556,0.0,0.0,0.0,0.0,0.0,0.0,-0.1253204345703125,-1026.625,-45.1153564453125,0.030517585575580597,10.986330807209015,-821.808716068551,1,1789168871.7512608,38.990216456666666,-76.93881057666667,-11.058000000000003,0,1,8.433216,8.661249,49.970760999999996,1,1,1789168872.0238516,-0.8124354642540743,0.5824651575618424,0.025803583952069175,-0.004139046261316329,177.89045759722507,2.126493495494703,-71.31544476036878,0.0027853709532577506,-0.01072033586452477,0.010769030550655413,-0.18495342205047605,0.3016525589752197,-9.725549164905548
2026-09-11T19:21:12.066,0.06684137599995665,-248.42684936523438,-22358.416442871094,-89433.66577148438,-170.17239181518556,0.0,0.0,0.0,0.0,0.0,0.0,-0.124725341796875,-1021.75,-44.901123046875,0.0,0.0,-328.82935507133834,1,1789168871.7512608,38.990216456666666,-76.93881057666667,-11.058000000000003,0,1,8.433216,8.661249,49.970760999999996,1,1,1789168872.0638516,-0.812791271045989,0.581944775115516,0.02611682891712583,-0.005342253692129491,177.75875878331684,2.076697179590749,-71.24466991086423,0.004711341782833493,-0.011048981362675302,0.008221722507369689,-0.23584993638992308,0.3411733591270447,-9.671416456012727
2026-09-11T19:21:12.099,0.10024720000001253,-248.39553833007812,-22355.59844970703,-89422.39379882812,-170.15094375610352,0.021448059082031252,0.9469099640846252,0.6486333253979684,1.4509514258186462,19.416773715771342,0.0,-0.124603271484375,-1020.75,-44.857177734375,0.015258789993822575,5.493164397776127,164.4373267896921,1,1789168871.7512608,38.990216456666666,-76.93881057666667,-11.058000000000003,0,1,8.433216,8.661249,49.970760999999996,1,1,1789168872.0948515,-0.8130520268437423,0.5815514232795717,0.02652202629524402,-0.006397331317131734,177.6343378672633,2.0451384361329423,-71.19220960075137,0.004456174646191922,-0.01793814498614732,0.003991742532236231,-0.24065519496917723,0.41786136339187624,-9.686812896766662
2026-09-11T19:21:12.133,0.13365440000006856,-248.3856201171875,-22354.705810546875,-89418.8232421875,-170.14414978027344,0.028242034912109377,0.2960855960845947,0.20281863331794742,0.4536923615737902,-13.344868533707498,0.0,-0.12293815612792969,-1007.109375,-44.25773620605469,0.0915527418255806,32.958987057209015,822.1527892007357,1,1789168871.7512608,38.990216456666666,-76.93881057666667,-11.058000000000003,0,1,8.433216,8.661249,49.970760999999996,1,1,1789168872.1238515,-0.8132299423001859,0.5812530076110752,0.027418597684974146,-0.007086789858976695,177.51089714669698,2.083551148166702,-71.15555848834214,0.0038875463758921694,-0.03213046433166441,0.00889873572421829,-0.27282100749969485,0.4508117079353332,-9.667493795948028
2026-09-11T19:21:12.167,0.16706614400004582,-248.38543701171875,-22354.689331054688,-89418.75732421875,-170.14402435302736,0.028367462158203127,0.06178890913724899,0.042325402759015564,0.09467922950746134,-4.8034975534064035,0.0,-0.11805152893066406,-967.078125,-42.49855041503906,0.2136230617761612,76.90430223941803,1315.2655300555075,1,1789168871.7512608,38.990216456666666,-76.93881057666667,-11.058000000000003,0,1,8.433216,8.661249,49.970760999999996,1,1,1789168872.1638515,-0.8133684481434785,0.5809829404580409,0.028770618304263224,-0.007927293597968888,177.34288042315507,2.1543121686860007,-71.12583504653028,0.0032424726843550654,-0.04512828033711658,0.012399691670793715,-0.28282379066467284,0.5073960793685913,-9.699463475475312
2026-09-11T19:21:12.201,0.20048240000005535,-248.38580322265625,-22354.722290039062,-89418.88916015625,-170.14427520751954,0.028116607666015626,0.0,0.0,0.0,-1.2666111595207883,0.0,-0.10927963256835938,-895.21875,-39.340667724609375,0.2746582329273224,98.87696385383606,657.5440891526497,1,1789168871.7512608,38.990216456666666,-76.93881057666667,-11.058000000000003,0,1,8.433216,8.661249,49.970760999999996,1,1,1789168872.1958516,-0.8133841016434443,0.5808675649029627,0.030369571379610806,-0.008767232836442493,177.1580068717684,2.247662533389775,-71.11982268742531,0.004022111261220932,-0.056305368866888264,0.01745433971749449,-0.32460012035369873,0.6406684550666809,-9.71554638174057
2026-09-11T19:21:12.234,0.2339038080001501,-248.38580322265625,-22354.722290039062,-89418.88916015625,-170.14427520751954,0.028116607666015626,0.0,0.0,0.0,0.0,0.0,-0.10230445861816406,-838.078125,-36.82960510253906,0.1678467094898224,60.42481541633606,-1150.524491289864,1,1789168871.7512608,38.990216456666666,-76.93881057666667,-11.058000000000003,0,1,8.433216,8.661249,49.970760999999996,1,1,1789168872.2238517,-0.8133302527536228,0.5808623936301605,0.03155433531060566,-0.009854113104411416,176.9774664468992,2.285586080455975,-71.12747316620633,0.004205894431455935,-0.060014018994451024,0.016812407618610976,-0.24791211608886718,0.7052942796325683,-9.669553192481995
2026-09-11T19:21:12.267,0.2673220480000964,-248.38580322265625,-22354.722290039062,-89418.88916015625,-170.14427520751954,0.028116607666015626,0.0,0.0,0.0,0.0,0.0,-0.0971221923828125,-795.625,-34.9639892578125,0.1525879204273224,54.93165135383606,-164.37622276064883,1,1789168871.7512608,38.990216456666666,-76.93881057666667,-11.058000000000003,0,1,8.433216,8.661249,49.970760999999996,1,1,1789168872.2638516,-0.8132309709977934,0.5808961441026961,0.032809042394309346,-0.011773882697488396,176.7144518964748,2.2743144752113236,-71.1421656263667,0.003021688533977783,-0.04006054232102585,0.009952390993647265,-0.26536795337677005,0.7687433061790466,-9.661217539844513
2026-09-11T19:21:12.301,0.3007311680000839,-248.38580322265625,-22354.722290039062,-89418.88916015625,-170.14427520751954,0.028116607666015626,0.0,0.0,0.0,0.0,0.0,-0.0910186767578125,-745.625,-32.7667236328125,0.2288818657398224,82.39747166633606,822.1054703778566,1,1789168871.7512608,38.990216456666666,-76.93881057666667,-11.058000000000003,0,1,8.433216,8.661249,49.970760999999996,1,1,1789168872.2958517,-0.8131528654181404,0.58090415269495,0.034060074289456406,-0.013141315894021498,176.50323450044073,2.2995763304708405,-71.15308638368957,0.001208116908230475,-0.02404417937424948,0.0090804244993509,-0.33234737398147585,0.7818842173957824,-9.644840434074402
2026-09-11T19:21:12.334,0.334136639999997,-248.38580322265625,-22354.722290039062,-89418.88916015625,-170.14427520751954,0.028116607666015626,0.0,0.0,0.0,0.0,0.0,-0.0749359130859375,-613.875,-26.9769287109375,0.6561279892921448,236.20607614517212,4604.293706110076,1,1789168871.7512608,38.990216456666666,-76.93881057666667,-11.058000000000003,0,1,8.433216,8.661249,49.970760999999996,1,1,1789168872.3238516,-0.8130603447317164,0.5809915213189544,0.034369676989845915,-0.014158152557564876,176.38746487075775,2.2602004694119606,-71.16848919146115,0.002331061748963627,-0.02491003721616387,0.006439915874008677,-0.2784107980918884,0.7109821367263793,-9.67543718257904
2026-09-11T19:21:12.368,0.3675529600000118,-248.38580322265625,-22354.722290039062,-89418.88916015625,-170.14427520751954,0.028116607666015626,0.0,0.0,0.0,0.0,0.0,-0.07018089294433594,-574.921875,-25.265121459960938,-0.1068115383386612,-38.45215380191803,-8219.284168543045,1,1789168871.7512608,38.990216456666666,-76.93881057666667,-11.058000000000003,0,1,8.433216,8.661249,49.970760999999996,1,1,1789168872.3638515,-0.8129423045952868,0.5811513228358153,0.03443916392508075,-0.014208918101931006,176.37763726894156,2.2625705686918005,-71.19153717938747,0.0002537708732399755,-0.01871621276668639,0.009592853167736433,-0.39805193006515505,0.5919294037628173,-9.641015840511322
2026-09-11T19:21:12.401,0.40097228800004814,-248.38580322265625,-22354.722290039062,-89418.88916015625,-170.14427520751954,0.028116607666015626,0.0,0.0,0.0,0.0,0.0,-0.067718505859375,-554.75,-24.378662109375,0.0,0.0,1150.5962598014007,1,1789168871.7512608,38.990216456666666,-76.93881057666667,-11.058000000000003,0,1,8.433216,8.661249,49.970760999999996,1,1,1789168872.3948517,-0.81291893127615,0.5812487411680771,0.03323806185982748,-0.014420239497668106,176.4380732705871,2.136264280451293,-71.19705984536249,-0.0019872318863207437,0.002622008135271081,0.0035417966510720928,-0.1892683481216431,0.5202427910804749,-9.663669202384948
2026-09-11T19:21:12.434,0.4343780799999877,-248.38580322265625,-22354.722290039062,-89418.88916015625,-170.14427520751954,0.028116607666015626,0.0,0.0,0.0,0.0,0.0,-0.06652069091796875,-544.9375,-23.94744873046875,0.0915527418255806,32.958987057209015,986.6249259190942,1,1789168871.7512608,38.990216456666666,-76.93881057666667,-11.058000000000003,0,1,8.433216,8.661249,49.970760999999996,1,1,1789168872.4238515,-0.8129872283023779,0.5811892704240246,0.03260989351043856,-0.014401159899304199,176.4820429149691,2.0793337604198796,-71.18438839022947,-0.001103746218961214,0.013701009161080685,-0.004406956361285682,-0.35284327281951905,0.5288726432228088,-9.635818315925599
2026-09-11T19:21:12.468,0.46778512000014416,-248.38580322265625,-22354.722290039062,-89418.88916015625,-170.14427520751954,0.028116607666015626,0.0,0.0,0.0,0.0,0.0,-0.06322669982910156,-517.953125,-22.761611938476562,0.1068115308880806,38.452151119709015,164.43133131442562,1,1789168871.7512608,38.990216456666666,-76.93881057666667,-11.058000000000003,0,1,8.433216,8.661249,49.970760999999996,1,1,1789168872.4638517,-0.8130608287735388,0.5811236140350186,0.032273746864989836,-0.013632284777674945,176.57637834589787,2.099612698101203,-71.17224893491247,-0.00394584037290878,0.01901937645775781,0.0035508723631824633,-0.327149849395752,0.45797056255340574,-9.689362625808716
2026-09-11T19:21:12.501,0.5011916800001472,-248.4182891845703,-22357.646026611328,-89430.58410644531,-170.16652809143068,0.005863723754882813,-0.9469099640846252,-0.6486333253979684,-1.4509514258186462,-19.41634593319122,0.0,-0.05944633483886719,-486.984375,-21.400680541992188,0.1373291164636612,49.43848192691803,328.86746816218135,1,1789168871.7512608,38.990216456666666,-76.93881057666667,-11.058000000000003,0,1,8.433216,8.661249,49.970760999999996,1,1,1789168872.4958515,-0.8131972131925999,0.581020164459507,0.030727034656911206,-0.013479995861639772,176.694274272082,1.9662028859379441,-71.14749326754311,-0.004023682057547728,0.012596913876269074,-0.002161415745669778,-0.2385957984352112,0.3956002675247193,-9.744672132720947
2026-09-11T19:21:12.535,0.5346063040001354,-248.42698669433594,-22358.428802490234,-89433.71520996094,-170.17248588562012,-9.407043457031251e-05,-0.27529481053352356,-0.18857694521546364,-0.42183461259722493,13.7681148284855,0.0,-0.05349922180175781,-438.265625,-19.259719848632812,0.2136230617761612,76.90430223941803,821.9700545638256,1,1789168871.7512608,38.990216456666666,-76.93881057666667,-11.058000000000003,0,1,8.433216,8.661249,49.970760999999996,1,1,1789168872.5238516,-0.8133272762578729,0.5808369493213797,0.031138840589716804,-0.0125519960448791,176.75373001222997,2.067153641170202,-71.12357203853529,-0.0029140017191297326,0.004606272961863434,0.0017324138155295715,-0.5278919782066346,0.4362978656959534,-9.64150617301941
2026-09-11T19:21:12.568,0.5680269440001666,-248.42691040039062,-22358.421936035156,-89433.68774414062,-170.1724336242676,-4.180908203125e-05,-0.04281259700655937,-0.029326628949493172,-0.06560180062073448,4.765028924216347,0.0,-0.04388999938964844,-359.546875,-15.800399780273438,0.3814697563648224,137.32911229133606,1808.0087649985644,1,1789168871.7512608,38.990216456666666,-76.93881057666667,-11.058000000000003,0,1,8.433216,8.661249,49.970760999999996,1,1,1789168872.5638516,-0.8134228894812883,0.5806954552485281,0.03122190525249255,-0.012695816398367888,176.73512484399183,2.065869860967091,-71.10429799136382,-0.0043090433902488005,-0.0060911990894602095,0.007411191602743522,-0.17681390241622927,0.5327953032875061,-9.671024190006255
2026-09-11T19:21:12.602,0.6014352320000853,-248.42723083496094,-22358.450775146484,-89433.80310058594,-170.17265312194826,-0.0002613067626953125,-0.01698123849928379,-0.011632148372009397,-0.026020374847909325,0.5296434399011061,0.0,-0.033267974853515625,-272.53125,-11.976470947265625,0.07629397511482239,27.46583104133606,-3288.503776376311,1,1789168871.7512608,38.990216456666666,-76.93881057666667,-11.058000000000003,0,1,8.433216,8.661249,49.970760999999996,1,1,1789168872.5958517,-0.8135091838486915,0.5805781028349342,0.031185684943104468,-0.012622494090073358,176.74468168091425,2.067852201668502,-71.08748210173412,-0.005113989241268585,-0.011116525604727484,0.007278546579591953,-0.3573543318939209,0.40011132659912113,-9.650920557174683
2026-09-11T19:21:12.635,0.6348419519999879,-248.42684936523438,-22358.416442871094,-89433.66577148438,-170.17239181518556,0.0,0.0,0.0,0.0,0.348197858755463,0.0,-0.028497695922851562,-233.453125,-10.259170532226562,0.2899170219898224,104.37012791633606,2302.060689442847,1,1789168871.7512608,38.990216456666666,-76.93881057666667,-11.058000000000003,0,1,8.433216,8.661249,49.970760999999996,1,1,1789168872.6228516,-0.8135734797588862,0.5805175166628599,0.031079481586545048,-0.011474829188925678,176.85898348828945,2.134658765506118,-71.07731336270507,-0.000923977306005798,-0.011872427703766227,0.009251117700195944,-0.28753098274230954,0.3451940856933594,-9.672887453536987
2026-09-11T19:21:12.668,0.6682468159999644,-248.4276885986328,-22358.491973876953,-89433.96789550781,-170.1729666900635,-0.0005748748779296876,-0.02583135850727558,-0.017694480577483775,-0.03958142577282515,-0.5296977283756118,0.0,-0.022848129272460938,-187.171875,-8.225326538085938,0.1983642876148224,71.41114354133606,-986.6522544448391,1,1789168871.7512608,38.990216456666666,-76.93881057666667,-11.058000000000003,0,1,8.433216,8.661249,49.970760999999996,1,1,1789168872.6638515,-0.813697074914922,0.580391299603333,0.03025607110797414,-0.011295121989734886,176.9310722368242,2.070396486157102,-71.05423698339274,-0.002243446220513511,-0.004887270971434521,0.0062851051693567795,-0.14768815143585207,0.44208378929138187,-9.688087761287688
2026-09-11T19:21:12.702,0.7016676160001225,-248.42855834960938,-22358.570251464844,-89434.28100585938,-170.17356246948245,-0.001170654296875,-0.02583135850727558,-0.017694480577483775,-0.03958142577282515,0.0,0.0,-0.018510818481445312,-151.640625,-6.6638946533203125,0.12207034230232239,43.94532322883606,-821.8181585231368,1,1789168871.7512608,38.990216456666666,-76.93881057666667,-11.058000000000003,0,1,8.433216,8.661249,49.970760999999996,1,1,1789168872.6948047,-0.8138526062374808,0.5801632362707337,0.03034760138144463,-0.011557581525645299,176.90105211454772,2.0623130460345265,-71.02291857678091,-0.002417979145712944,0.0018807668019490895,0.0034887386418114654,-0.3672590485572815,0.4756225328445435,-9.696227280921935
2026-09-11T19:21:12.736,0.7350865600001271,-248.42941284179688,-22358.64715576172,-89434.58862304688,-170.17414779663088,-0.0017559814453125002,-0.02583135850727558,-0.017694480577483775,-0.03958142577282515,0.0,0.0,-0.006725311279296875,-55.09375,-2.421112060546875,0.6103516221046448,219.72658395767212,5259.928641934709,1,1789168871.7512608,38.990216456666666,-76.93881057666667,-11.058000000000003,0,1,8.433216,8.661249,49.970760999999996,1,1,1789168872.7238047,-0.8139777176370484,0.5799527684616569,0.03106034070509521,-0.011415637490944429,176.86726574982302,2.138992426727217,-70.99764859197498,-0.00046041785667610415,0.0018242181341844733,0.007270343532107579,-0.4100160432624817,0.4890576435661316,-9.661609805850983
2026-09-11T19:21:12.769,0.7684964800000671,-248.43028259277344,-22358.72543334961,-89434.90173339844,-170.17474357604982,-0.0023517608642578125,-0.02583135850727558,-0.017694480577483775,-0.03958142577282515,0.0,0.0,0.0007286074105650187,5.968751907348633,0.2622986678034067,-0.1983642727136612,-71.41113817691803,-8714.11012463103,1,1789168872.7501915,38.990216503333336,-76.93881099666666,-11.025000000000002,0,1,8.433216,8.661249,49.956624,1,1,1789168872.7648046,-0.8140316036808831,0.579830979462587,0.031716896852935605,-0.011942441886281545,176.77460046202071,2.1656037718236703,-70.9851715376392,-0.0018709929581379214,-0.010026742019782223,0.013436766312328745,-0.3913834079551697,0.6025205859375,-9.661511739349365
2026-09-11T19:21:12.802,0.802040960000113,-248.45394897460938,-22360.855407714844,-89443.42163085938,-170.19095504760745,-0.018563232421875003,-0.8072858452796936,-0.5529908040165902,-1.2370051986770525,-15.957806573193954,0.0,0.0017395021859556437,14.250001907348633,0.6262207869440317,0.0,0.0,2128.849163165451,1,1789168872.7501915,38.990216503333336,-76.93881099666666,-11.025000000000002,0,1,8.433216,8.661249,49.956624,1,1,1789168872.7958047,-0.8140451853960322,0.5798473917698074,0.03112434669331523,-0.011777666755581541,176.82948155839068,2.1212735585769993,-70.98353541670488,-0.001905550477327409,0.00785799589125407,0.009172228818005801,-0.35833499691009524,0.4284525455665588,-9.776347612743377
2026-09-11T19:21:12.835,0.8354503040000054,-248.46896362304688,-22362.20672607422,-89448.82690429688,-170.20124008178712,-0.028848266601562502,-0.36085420846939087,-0.24718513280153276,-0.5529373944200351,9.15329768869579,0.0,0.0017395021859556437,14.250001907348633,0.6262207869440317,0.0,0.0,0.0,1,1789168872.7501915,38.990216503333336,-76.93881099666666,-11.025000000000002,0,1,8.433216,8.661249,49.956624,1,1,1789168872.8248048,-0.8141485604756344,0.5797197430398099,0.030780917206992543,-0.011818466110513471,176.8489172703718,2.0870410079976893,-70.9634365554342,9.546951008408982e-05,0.012737936479830216,0.005765695183963267,-0.3300918444442749,0.48895957706451415,-9.619048944149018
2026-09-11T19:21:12.869,0.8688701440000841,-248.4687957763672,-22362.191619873047,-89448.76647949219,-170.20112510681153,-0.028733291625976563,-0.07198648899793625,-0.04931074496358633,-0.11030499499728498,5.920865804189383,0.0,0.0017395021859556437,14.250001907348633,0.6262207869440317,0.0,0.0,0.0,1,1789168872.7501915,38.990216503333336,-76.93881099666666,-11.025000000000002,0,1,8.433216,8.661249,49.956624,1,1,1789168872.8638046,-0.8143076081408367,0.5794877027605532,0.030449235422426328,-0.013037090758141053,176.7578528704224,1.975974246422362,-70.9297033193945,-0.004504520266472165,0.02962539325627695,0.0005452408583230285,-0.20191892683029175,0.5521144041061402,-9.642388771533966
2026-09-11T19:21:12.903,0.9022893759999988,-248.4696044921875,-22362.264404296875,-89449.0576171875,-170.20167907714844,-0.029287261962890627,-0.04572579264640808,-0.03132216796278954,-0.07006569426178755,0.5382702092269118,0.0,0.0017395021859556437,14.250001907348633,0.6262207869440317,0.0,0.0,0.0,1,1789168872.7501915,38.990216503333336,-76.93881099666666,-11.025000000000002,0,1,8.433216,8.661249,49.956624,1,1,1789168872.8958046,-0.8143820892401994,0.5793412759182983,0.03110397204088866,-0.013343225449851783,176.68597378867224,2.017255271369582,-70.91350821091943,-0.00488779457021012,0.03230255379591105,0.004565781323217166,-0.4876847125434876,0.5809459555816651,-9.695736948413849
2026-09-11T19:21:12.936,0.9356983360000868,-248.47113037109375,-22362.401733398438,-89449.60693359375,-170.20272430419922,-0.030332489013671877,-0.04572579264640808,-0.03132216796278954,-0.07006569426178755,0.0,0.0,0.0017395021859556437,14.250001907348633,0.6262207869440317,0.0,0.0,0.0,1,1789168872.7501915,38.990216503333336,-76.93881099666666,-11.025000000000002,0,1,8.433216,8.661249,49.956624,1,1,1789168872.9238048,-0.8144001342294085,0.5792922890396002,0.03107896112988377,-0.014386222626840884,176.5903683484359,1.9457813983510404,-70.90728873706027,-0.003279299131572146,0.025197318411042134,0.0033492868345771183,-0.20633191940307616,0.7022542180824279,-9.627580729789733
2026-09-11T19:21:12.969,0.9691044160001638,-248.47267150878906,-22362.540435791016,-89450.16174316406,-170.20377998352052,-0.03138816833496094,-0.04572579264640808,-0.03132216796278954,-0.07006569426178755,0.0,0.0,0.0017395021859556437,14.250001907348633,0.6262207869440317,0.0,0.0,0.0,1,1789168872.7501915,38.990216503333336,-76.93881099666666,-11.025000000000002,0,1,8.433216,8.661249,49.956624,1,1,1789168872.9638047,-0.8143673445659948,0.5792446988630561,0.03185879542670097,-0.016322502796364265,176.35768037110674,1.889962044781228,-70.90720119574443,-0.004643797540781312,0.022390305375059656,0.003817209607036798,-0.44335865381240847,0.7900237370300294,-9.67622171459198
2026-09-11T19:21:13.003,1.0025169919999826,-248.50230407714844,-22365.20736694336,-89460.82946777344,-170.22407829284668,-0.05168647766113282,-0.7931559085845947,-0.5433117973804474,-1.2153538774616295,-15.323261200226993,0.0,0.0017395021859556437,14.250001907348633,0.6262207869440317,0.0,0.0,0.0,1,1789168872.7501915,38.990216503333336,-76.93881099666666,-11.025000000000002,0,1,8.433216,8.661249,49.956624,1,1,1789168872.9958048,-0.8142318669225237,0.5793555587871683,0.03277807607356946,-0.017297430999567792,176.205085063078,1.9103191827257249,-70.92975908265905,-0.00524820506074695,0.016762840267854337,0.006214942933426609,-0.36186539096832276,0.7869836754798889,-9.669258992977143
2026-09-11T19:21:13.036,1.0359355200000664,-248.5101318359375,-22365.911865234375,-89463.6474609375,-170.2294403076172,-0.05704849243164063,-0.22043055295944214,-0.15099492877721787,-0.33776603609792794,11.739501769863876,0.0,0.0017395021859556437,14.250001907348633,0.6262207869440317,0.0,0.0,0.0,1,1789168872.7501915,38.990216503333336,-76.93881099666666,-11.025000000000002,0,1,8.433216,8.661249,49.956624,1,1,1789168873.0348046,-0.8140828162957108,0.579560777684808,0.03222307636610358,-0.01844306186426419,176.13467984108584,1.7814268610976833,-70.95566686998897,-0.004409225289313275,0.0013679890677131556,0.004098905748308683,-0.042756994705200196,0.5943810663032532,-9.798706775112151
2026-09-11T19:21:13.070,1.0693532160000814,-248.51327514648438,-22366.194763183594,-89464.77905273438,-170.2315934753418,-0.05920166015625,-0.14233164489269257,-0.09749717675149441,-0.21809497304826034,1.6008809232599241,0.0,0.0017395021859556437,14.250001907348633,0.6262207869440317,0.0,0.0,0.0,1,1789168872.7501915,38.990216503333336,-76.93881099666666,-11.025000000000002,0,1,8.433216,8.661249,49.956624,1,1,1789168873.0638046,-0.8139816622993288,0.5797505085207089,0.031242992322661183,-0.018629995736100496,176.18220809183515,1.6767680812327708,-70.97588853052602,0.0007618362184955248,-0.017935003393493732,0.012053767413048437,-0.02383015989303589,0.6129156351089478,-9.845582562885285
2026-09-11T19:21:13.103,1.1027621760001693,-248.5206756591797,-22366.860809326172,-89467.44323730469,-170.2366628265381,-0.06427101135253907,-0.4579682946205139,-0.31370828181505206,-0.7017454407101192,-6.471650271753096,0.0,0.0017395021859556437,14.250001907348633,0.6262207869440317,0.0,0.0,0.0,1,1789168872.7501915,38.990216503333336,-76.93881099666666,-11.025000000000002,0,1,8.433216,8.661249,49.956624,1,1,1789168873.0958047,-0.813812010541557,0.5799085759059469,0.03301310085011383,-0.018060738116298578,176.11686274758003,1.8788224927200303,-71.00974730453711,0.006537305246269961,-0.03628487155018651,0.013585817430449062,-0.6732265336036682,0.8477849064826966,-9.544714535923005
2026-09-11T19:21:13.136,1.1361712000000352,-248.55235290527344,-22369.71176147461,-89478.84704589844,-170.25836174011232,-0.08596992492675781,-0.5927855372428894,-0.4060580930113793,-0.9083260849395554,-2.764217571776354,0.0,0.0017738344613462687,14.531251907348633,0.6385804060846567,0.015258789993822575,5.493164397776127,164.42157657159265,1,1789168872.7501915,38.990216503333336,-76.93881099666666,-11.025000000000002,0,1,8.433216,8.661249,49.956624,1,1,1789168873.1358047,-0.8135118671464303,0.5802326865012805,0.03417870292196864,-0.01898124848389106,175.95235666213395,1.9244961784601469,-71.06430695361179,-0.0035306265438593293,-0.059178006282745735,0.010952813720890416,-0.3303860439491272,0.8455293769454957,-9.658765877304077
2026-09-11T19:21:13.170,1.1695774080001229,-248.55630493164062,-22370.067443847656,-89480.26977539062,-170.26106887817383,-0.08867706298828126,-0.25697779655456543,-0.17602979063987734,-0.3937674271650795,6.885795070511997,0.0,0.0019836428109556437,16.250001907348633,0.7141114119440317,0.0,0.0,-164.43543660393047,1,1789168872.7501915,38.990216503333336,-76.93881099666666,-11.025000000000002,0,1,8.433216,8.661249,49.956624,1,1,1789168873.1638048,-0.8133014921470141,0.5805284203737372,0.034081531458437654,-0.019128126496380984,175.94445529814612,1.9041906460891376,-71.10534085310493,-0.0029119073240273393,-0.06413631215473642,0.013159957092962443,-0.08551398941040039,0.6587126913642882,-9.480677110366821
2026-09-11T19:21:13.203,1.202996480000138,-248.5736541748047,-22371.628875732422,-89486.51550292969,-170.27295310974122,-0.10056129455566407,-0.6477050185203552,-0.44367793768644337,-0.9924792807946556,-8.008844382227151,0.0,0.002058029407635331,16.859376907348633,0.7408905867487192,0.015258789993822575,5.493164397776127,164.37214048833064,1,1789168872.7501915,38.990216503333336,-76.93881099666666,-11.025000000000002,0,1,8.433216,8.661249,49.956624,1,1,1789168873.1958046,-0.8130424773497534,0.5807818990025051,0.03620261068651609,-0.018538791640775928,175.8569042676007,2.1396083267102157,-71.1562349498422,0.0036552430524517242,-0.06417715285923309,0.016297186423422254,-0.3511761422920227,0.9329066298866272,-9.498132947654724
2026-09-11T19:21:13.236,1.2364205119999951,-248.59361267089844,-22373.42514038086,-89493.70056152344,-170.28662467956545,-0.11423286437988282,-0.5426623225212097,-0.37172369092702867,-0.8315222148510832,2.1527698022704835,0.0,0.0023498537484556437,19.250001907348633,0.8459473494440317,0.0,0.0,-164.34774828481528,1,1789168872.7501915,38.990216503333336,-76.93881099666666,-11.025000000000002,0,1,8.433216,8.661249,49.956624,1,1,1789168873.2238047,-0.8129115776753206,0.5809434874163295,0.03707120552715461,-0.017468744394990604,175.8980831170959,2.2909815826795916,-71.18469413058094,0.003152413694952158,-0.07487445037763155,-0.0012037535851004892,-1.146201270904541,0.8320942662239075,-9.91020838745117
2026-09-11T19:21:13.270,1.2698398400000315,-248.6126708984375,-22375.140380859375,-89500.5615234375,-170.2996795654297,-0.12728775024414063,-0.5689229965209961,-0.38971225261688236,-0.8717614813369764,-0.5382682048494253,0.0,0.0024719240609556437,20.250001907348633,0.8898926619440317,0.0,0.0,0.0,1,1789168872.7501915,38.990216503333336,-76.93881099666666,-11.025000000000002,0,1,8.433216,8.661249,49.956624,1,1,1789168873.2638047,-0.8124724868517428,0.5814520972793401,0.037840993582915025,-0.019234757161431845,175.68047544819913,2.242060542360673,-71.26394829523625,-0.005420992656694388,-0.07908697706024505,0.010925761117484502,-0.1562199370765686,0.9995918509864807,-9.772719152183532
2026-09-11T19:21:13.303,1.3032465280000451,-248.6290283203125,-22376.612548828125,-89506.4501953125,-170.31088439941408,-0.13849258422851562,-0.5173760652542114,-0.35440260469913487,-0.792776048450104,1.0569634415040796,0.0,0.002717972034588456,22.265626907348633,0.9784699324518442,0.0610351599752903,21.972657591104507,657.7322957335823,1,1789168872.7501915,38.990216503333336,-76.93881099666666,-11.025000000000002,0,1,8.433216,8.661249,49.956624,1,1,1789168873.2958047,-0.8120423582681996,0.5819885774452165,0.039380415078443955,-0.018046800540914124,175.68631801068685,2.4616721238457098,-71.35085998714045,0.007274706855237565,-0.08739073004245847,0.02614991911678064,-0.51278973695755,0.7682529736709596,-9.876963843402862
2026-09-11T19:21:13.337,1.3366543360000378,-248.65097045898438,-22378.587341308594,-89514.34936523438,-170.3259147644043,-0.15352294921875,-0.621508002281189,-0.42573298156261447,-0.9523375571819389,-2.135140888725632,0.0,0.0034484865609556437,28.250001907348633,1.2414551619440317,0.0,0.0,-657.7102451950556,1,1789168872.7501915,38.990216503333336,-76.93881099666666,-11.025000000000002,0,1,8.433216,8.661249,49.956624,1,1,1789168873.3358047,-0.8114383977532106,0.5826588478236087,0.04181675154553981,-0.01810394970015574,175.5151299944136,2.6805055177230477,-71.46596964220154,0.003278251934020949,-0.052052001479778086,0.014252882270561294,-0.6530248342704773,1.1409056798171997,-10.285410822639466
2026-09-11T19:21:13.371,1.3700785920000271,-248.67710876464844,-22380.93978881836,-89523.75915527344,-170.3438195037842,-0.17142768859863283,-0.6501696109771729,-0.4453661835193634,-0.9962557791682242,-0.5873938362833032,0.0,0.0034484865609556437,28.250001907348633,1.2414551619440317,0.0,0.0,0.0,1,1789168872.7501915,38.990216503333336,-76.93881099666666,-11.025000000000002,0,1,8.433216,8.661249,49.956624,1,1,1789168873.3638046,-0.8110367085476603,0.5831428059477256,0.04297742233158408,-0.017800742381248336,175.4635735545766,2.8058520176523887,-71.54411821354769,0.00022898719786165604,-0.05754891595893423,0.027447571415638423,-0.6505731717300415,0.7994381211853027,-9.423014007415771
2026-09-11T19:21:13.404,1.4034978880001745,-248.70046997070312,-22383.04229736328,-89532.16918945312,-170.35982192993166,-0.18743011474609375,-0.7283150553703308,-0.49889581292867663,-1.1159981498941394,-1.601758140239614,0.0,0.003507614368572831,28.734376907348633,1.2627411726862192,0.0610351599752903,21.972657591104507,657.4841549926011,1,1789168872.7501915,38.990216503333336,-76.93881099666666,-11.025000000000002,0,1,8.433216,8.661249,49.956624,1,1,1789168873.3958046,-0.8105418789535076,0.5837516326602769,0.0443429605660713,-0.017017510899498704,175.44218909498505,2.9816229797303793,-71.64148988352078,0.0033477160382503236,-0.0737174716164845,0.029562212337354753,-1.120998179988861,1.0686306681251525,-9.669062859973907
2026-09-11T19:21:13.438,1.436911008000152,-248.7300262451172,-22385.702362060547,-89542.80944824219,-170.3800679779053,-0.20767616271972658,-0.8858790993690491,-0.6068271830677987,-1.357433748809498,-3.2302092752546003,0.0,0.005413055885583162,44.343753814697266,1.9487001188099384,0.015258791856467724,5.493165068328381,-493.20424200994285,1,1789168872.7501915,38.990216503333336,-76.93881099666666,-11.025000000000002,0,1,8.433216,8.661249,49.956624,1,1,1789168873.4358046,-0.8098556986832294,0.5847415232589299,0.043911259719475,-0.0168196182172358,175.48611715151682,2.9493598300899473,-71.7772239979831,0.014513634460809248,-0.0752601681423223,0.03991358559800792,-0.7649187126159668,0.9424190805435181,-9.23982578239441
2026-09-11T19:21:13.470,1.47031407999998,-248.753173828125,-22387.78564453125,-89551.142578125,-170.39592407226564,-0.22353225708007815,-0.7312383055686951,-0.5008982393145561,-1.1204774501488806,3.171233584557357,0.0,0.006256103981286287,51.250003814697266,2.2521974332630634,0.0,0.0,-164.45089446733036,1,1789168872.7501915,38.990216503333336,-76.93881099666666,-11.025000000000002,0,1,8.433216,8.661249,49.956624,1,1,1789168873.4638047,-0.8091443414594679,0.5857088640011472,0.04400488665404206,-0.017150255542540047,175.44557652677074,2.930380674275526,-71.91525729792305,0.0009545205679156989,-0.064205078127265,0.08047381568387975,1.0631389440345764,1.07598565574646,-8.75871152545929
2026-09-11T19:21:13.504,1.5037168320000092,-248.7847900390625,-22390.631103515625,-89562.5244140625,-170.41758117675784,-0.24518936157226565,-0.9671555757522583,-0.662501569390297,-1.4819738041121517,-4.83802442611915,0.0,0.0066699986346066,54.640628814697266,2.401199508458376,-0.030517578125,-10.986328125,-328.90487960364584,1,1789168872.7501915,38.990216503333336,-76.93881099666666,-11.025000000000002,0,1,8.433216,8.661249,49.956624,1,1,1789168873.4958048,-0.8084884068464993,0.5865433473113887,0.045349988052632566,-0.01602424111111149,175.4557968916124,3.126007240049687,-72.04443789553618,0.04802133810522238,-0.060874117249833826,0.05277701125105653,1.0302866659927368,1.4751163173294066,-10.486643283958434
2026-09-11T19:21:13.538,1.5371258879999914,-248.81626892089844,-22393.46420288086,-89573.85681152344,-170.43914421081544,-0.26675239562988284,-0.9413242340087891,-0.6448071002960205,-1.4423924040265297,0.5296309208582827,0.0,0.0051593785174191,42.265628814697266,1.857376266270876,-0.1220703199505806,-43.945315182209015,-986.5285345753722,1,1789168872.7501915,38.990216503333336,-76.93881099666666,-11.025000000000002,0,1,8.433216,8.661249,49.956624,1,1,1789168873.5358047,-0.8069301892273558,0.5886712851324443,0.04481317831105577,-0.01793228439662866,175.30750252058294,2.935387688814905,-72.34325521328074,0.05438288869581651,0.04744049253015867,0.13898667698869044,-0.04138406368255615,1.7401900712013245,-9.53147555820465
2026-09-11T19:21:13.571,1.5706748479999533,-248.853515625,-22396.81640625,-89587.265625,-170.46465820312503,-0.29226638793945314,-1.1249370574951172,-0.7705818843841553,-1.7237425831785846,-3.7489920429210835,0.0,0.00272560166195035,22.328128814697266,0.9812165983021259,-0.015258789993822575,-5.493164397776127,1146.1503064320498,1,1789168872.7501915,38.990216503333336,-76.93881099666666,-11.025000000000002,0,1,8.433216,8.661249,49.956624,1,1,1789168873.5638046,-0.8057468399553257,0.590304604080288,0.04463778620471743,-0.01788777086064535,175.3176625263134,2.9127419705951,-72.57345890920041,-0.013492791381317763,-0.037034490463918074,0.14487140362763973,-2.0319379135131834,0.5629017192840576,-13.176215157318115
2026-09-11T19:21:13.604,1.6040768960001515,-248.8885498046875,-22399.969482421875,-89599.8779296875,-170.48865661621096,-0.3162648010253907,-1.0470978021621704,-0.7172619944810867,-1.6044693863660655,1.5963060080253821,0.0,0.002645493019372225,21.671878814697266,0.9523774869740009,-0.015258791856467724,-5.493165068328381,-2.0075183824631525e-05,1,1789168872.7501915,38.990216503333336,-76.93881099666666,-11.025000000000002,0,1,8.433216,8.661249,49.956624,1,1,1789168873.5958047,-0.804003178656442,0.5927626819868469,0.04313425921082821,-0.018727713059286784,175.33431851041126,2.702955935864371,-72.91017255307447,0.05965203770758739,-0.01565699965379073,0.21033975106749822,0.9858625407600402,0.9794882181549072,-8.046356457710266
2026-09-11T19:21:13.638,1.637478688000101,-248.9287872314453,-22403.590850830078,-89614.36340332031,-170.51621925354004,-0.3438274383544922,-1.1786130666732788,-0.8073499506711961,-1.805990405044728,-2.697099490657423,0.0,0.00237464951351285,19.453128814697266,0.8548738248646259,-0.015258789993822575,-5.493164397776127,2.0075337686198262e-05,1,1789168872.7501915,38.990216503333336,-76.93881099666666,-11.025000000000002,0,1,8.433216,8.661249,49.956624,1,1,1789168873.6358047,-0.8010250754703636,0.5967161888459203,0.04282609202849656,-0.021320044054012374,175.10411459810464,2.473970588040731,-73.47363246727726,-0.013416171427155212,-0.021011669798909335,0.2539316180640842,-1.3425304071426392,1.7363654776382447,-7.7815769033432005
2026-09-11T19:21:13.671,1.6708872640001573,-248.9706268310547,-22407.356414794922,-89629.42565917969,-170.5448793792725,-0.3724875640869141,-1.310128927230835,-0.897438315153122,-2.0075123370461725,-2.696564034389684,0.0,0.0015544896014034748,12.734378814697266,0.5596162565052509,0.0457763709127903,16.479493528604507,657.6951357143648,1,1789168872.7501915,38.990216503333336,-76.93881099666666,-11.025000000000002,0,1,8.433216,8.661249,49.956624,1,1,1789168873.6638048,-0.7987420833472476,0.5997208789401572,0.04252748773010834,-0.023181122507537386,174.9450157533062,2.300045267791202,-73.90230840743105,-0.03157318070150262,0.06730949526778732,0.28248991701569176,2.07332197719574,1.1744444233703615,-10.140958865756987
2026-09-11T19:21:13.705,1.704295104000039,-249.01275634765625,-22411.148071289062,-89644.59228515625,-170.57373809814453,-0.4013462829589844,-1.2583225965499878,-0.8619509786367417,-1.9281294260843342,1.0622457637640148,0.0,0.0004119877703487873,3.3750038146972656,0.14831559732556343,-0.1220703199505806,-43.945315182209015,-1808.7014518456638,1,1789168872.7501915,38.990216503333336,-76.93881099666666,-11.025000000000002,0,1,8.433216,8.661249,49.956624,1,1,1789168873.6958046,-0.7958745841231726,0.6035203878618193,0.04274124113971658,-0.022802940330643055,174.95378882791675,2.321644679488994,-74.44919619996332,-0.005467767480647836,0.05078227444895221,0.29930249916722795,-2.3958627010154725,1.0453889072418212,-9.976011010036467
2026-09-11T19:21:13.738,1.7376964800000678,-249.05899047851562,-22415.309143066406,-89661.23657226562,-170.60540847778321,-0.4330166625976563,-1.3635348081588745,-0.9340213435888292,-2.089346241027264,-2.157706465506841,0.0,-0.002716064453125,-22.25,-0.977783203125,-0.1373291164636612,-49.43848192691803,-164.45929487169215,1,1789168872.7501915,38.990216503333336,-76.93881099666666,-11.025000000000002,0,1,8.433216,8.661249,49.956624,1,1,1789168873.7358048,-0.7921814966111015,0.6084715272225137,0.040101652760380316,-0.02455065034541963,174.9659189972977,1.9288732958343413,-75.1402516454112,0.04085920498673845,0.033026341836713095,0.3322297063024278,0.8289561381721496,1.3233093728256227,-8.132753045635223
2026-09-11T19:21:13.770,1.7711142079999718,-249.10595703125,-22419.5361328125,-89678.14453125,-170.63758056640626,-0.46518875122070313,-1.4427413940429688,-0.9882778549194337,-2.210714600302954,-1.623584683278302,0.0,-0.0035724639892578125,-29.265625,-1.2860870361328125,-0.0610351599752903,-21.972657591104507,821.8938264113128,1,1789168873.7509897,38.99021625666666,-76.93881358666667,-10.994000000000003,0,1,8.433216,8.655364,49.942489,1,1,1789168873.7638047,-0.7892480815024684,0.6121782228686236,0.04073089747714799,-0.02581246367150728,174.79828053328652,1.8733275746233158,-75.68280567592993,-0.006024527512034026,0.059985046528867915,0.3523945423482695,-0.5794749580574036,1.2362263193893432,-9.39173079339981
2026-09-11T19:21:13.805,1.8045148160001645,-249.1532440185547,-22423.791961669922,-89695.16784667969,-170.66997215271,-0.4975803375244141,-1.4430115222930908,-0.9884628927707673,-2.211128518188006,-0.005539954582040722,0.0,-0.0066814422607421875,-54.734375,-2.4053192138671875,-0.1373291164636612,-49.43848192691803,-822.3151008405307,1,1789168873.7509897,38.99021625666666,-76.93881358666667,-10.994000000000003,0,1,8.433216,8.655364,49.942489,1,1,1789168873.7958047,-0.7859931315459817,0.6162246727534044,0.04102812353521013,-0.028260271259849788,174.54685740773567,1.7000028485464913,-76.27440530296136,-0.01874762869322229,0.062495877190786954,0.3408778127460597,-0.04442412523269654,1.7372480761528015,-8.809019640789032
2026-09-11T19:21:13.839,1.8379223040001307,-249.20550537109375,-22428.495483398438,-89713.98193359375,-170.70577117919925,-0.5333793640136719,-1.4951832294464111,-1.0242005121707918,-2.291071296015548,-1.0697487760845918,0.0,-0.0135650634765625,-111.125,-4.8834228515625,-0.12207034230232239,-43.94532322883606,164.42896568839691,1,1789168873.7509897,38.99021625666666,-76.93881358666667,-10.994000000000003,0,1,8.433216,8.655364,49.942489,1,1,1789168873.8358047,-0.7818417533804681,0.6215210313640408,0.03926546364053925,-0.029888185094245068,174.51573519746515,1.389357506614191,-77.03207018159972,0.00696525997885897,0.14862071992677395,0.3363085407643385,-1.0463695722579955,0.5019043552780151,-10.855079130535126
2026-09-11T19:21:13.872,1.8713436479999928,-249.25962829589844,-22433.36654663086,-89733.46618652344,-170.74284538269043,-0.5704535675048829,-1.573218584060669,-1.0776547300815582,-2.410644976023526,-1.5994036000164156,0.0,-0.027544021606445312,-225.640625,-9.915847778320312,-0.5950928330421448,-214.23341989517212,-5095.189968034763,1,1789168873.7509897,38.99021625666666,-76.93881358666667,-10.994000000000003,0,1,8.433216,8.655364,49.942489,1,1,1789168873.8638046,-0.7791735059674019,0.6248617341097581,0.03828573455522334,-0.031155471002384708,174.4670411446766,1.1876395848031427,-77.51344690950405,0.014213612362391421,0.1256150114574611,0.31720050158057944,-1.1946461227035523,1.0866749044227602,-8.080875866279602
2026-09-11T19:21:13.905,1.9047641280001244,-249.3147735595703,-22438.329620361328,-89753.31848144531,-170.78061988830567,-0.6082280731201173,-1.6770156621932983,-1.1487557286024095,-2.5696933800161244,-2.127467903530147,0.0,-0.03809165954589844,-312.046875,-13.712997436523438,0.03051757998764515,10.986328795552254,6738.974086842475,1,1789168873.7509897,38.99021625666666,-76.93881358666667,-10.994000000000003,0,1,8.433216,8.655364,49.942489,1,1,1789168873.8958046,-0.7764962564237324,0.6280614297990684,0.039138446524370644,-0.0325666418646176,174.2747560681054,1.1387719316667535,-77.99159737701656,-0.007181680806106268,0.08888717534311841,0.26472019630236193,-1.2382857159233092,1.3091877965927126,-11.50820203130722
2026-09-11T19:21:13.938,1.9381716479999795,-249.369873046875,-22443.28857421875,-89773.154296875,-170.81836303710938,-0.6459712219238282,-1.6767405271530151,-1.1485672610998154,-2.5692717902196986,0.0056414694234970045,0.0,-0.04184913635253906,-342.828125,-15.065689086914062,-0.3204346001148224,-115.35645604133606,-3781.8666227674535,1,1789168873.7509897,38.99021625666666,-76.93881358666667,-10.994000000000003,0,1,8.433216,8.655364,49.942489,1,1,1789168873.9358046,-0.7746842522145053,0.6302346795942317,0.041583930478371924,-0.030648568214169256,174.26460387378958,1.478237599097131,-78.33334636641372,0.03354313382822862,-0.019036306151502154,0.10978033728581733,-0.8467061749649047,1.4312805911064148,-9.385258404293062
2026-09-11T19:21:13.972,1.9715779519999614,-249.4285888671875,-22448.572998046875,-89794.2919921875,-170.85858337402345,-0.6861915588378906,-1.7549078464508057,-1.202111874818802,-2.6890476798917335,-1.6028296251813898,0.0,-0.050800323486328125,-416.15625,-18.288116455078125,-0.3967285454273224,-142.82227635383606,-822.1747701426318,1,1789168873.7509897,38.99021625666666,-76.93881358666667,-10.994000000000003,0,1,8.433216,8.655364,49.942489,1,1,1789168873.9638047,-0.7743162352185695,0.6306523499236432,0.042686569160536765,-0.02983015631923843,174.25637727188365,1.6320555274308417,-78.40499768587229,0.03649064586899664,-0.027222249409205958,0.024348739328722495,0.8360169262886048,1.636239579486847,-10.169986550235748
2026-09-11T19:21:14.005,2.004984800000102,-249.49021911621094,-22454.119720458984,-89816.47888183594,-170.9008000946045,-0.7284082794189454,-1.8332656621932983,-1.2557869786024094,-2.809115467525072,-1.6067096118550754,0.0,-0.06449317932128906,-528.328125,-23.217544555664062,-0.2746582627296448,-98.87697458267212,1315.4578896811513,1,1789168873.7509897,38.99021625666666,-76.93881358666667,-10.994000000000003,0,1,8.433216,8.655364,49.942489,1,1,1789168873.9958048,-0.7750364488097382,0.6297095765141854,0.045161163923136044,-0.027291418721330233,174.30438793304359,2.041981755302604,-78.28863463891808,0.0814424734187366,-0.07680321373401047,-0.08224445221002799,-1.2374031174087523,1.8918989492034912,-9.84695549390793
2026-09-11T19:21:14.039,2.038400736000085,-249.55441284179688,-22459.89715576172,-89839.58862304688,-170.94477279663087,-0.7723809814453125,-1.88580322265625,-1.2917752075195315,-2.8896188428765437,-1.0769780297981273,0.0,-0.066986083984375,-548.75,-24.114990234375,0.0,0.0,2958.97665660846,1,1789168873.7509897,38.99021625666666,-76.93881358666667,-10.994000000000003,0,1,8.433216,8.655364,49.942489,1,1,1789168874.0358047,-0.7758003880312898,0.6286596786851666,0.04613190057877299,-0.02815340254664356,174.1599330508627,2.073441036324873,-78.144026705488,0.05032115846057531,-0.11824588228969063,-0.0814091376300235,-0.09787036861419678,1.1906253961372375,-9.797235777587892
2026-09-11T19:21:14.072,2.071818463999989,-249.6205596923828,-22465.850372314453,-89863.40148925781,-170.99008338928223,-0.8176915740966797,-1.9646483659744263,-1.345784130692482,-3.0104333632168947,-1.6161757966641486,0.0,-0.07088470458984375,-580.6875,-25.51849365234375,-0.1068115383386612,-38.45215380191803,-1150.6513489495323,1,1789168873.7509897,38.99021625666666,-76.93881358666667,-10.994000000000003,0,1,8.433216,8.655364,49.942489,1,1,1789168874.0638046,-0.7765536740453439,0.6279102926432593,0.044080430127026185,-0.027385605692604398,174.3790519438364,1.952458386829509,-78.0128836380885,0.07765685427116091,-0.05864253926823388,-0.07209588620845657,2.110685314311981,0.9799785506629944,-9.649547626152039
2026-09-11T19:21:14.105,2.105229472000019,-249.6896514892578,-22472.068634033203,-89888.27453613281,-171.0374112701416,-0.8650194549560547,-2.0693891048431396,-1.4175315368175507,-3.170927739838827,-2.147418184001038,0.0,-0.07491874694824219,-613.734375,-26.970748901367188,-0.061035171151161194,-21.97266161441803,493.2354087456798,1,1789168873.7509897,38.99021625666666,-76.93881358666667,-10.994000000000003,0,1,8.433216,8.655364,49.942489,1,1,1789168874.0958047,-0.7775325231234308,0.6265253590378536,0.046631103910312575,-0.027105167697428375,174.2230379911402,2.209314068013028,-77.8342971116979,0.03139236459099601,-0.03758793436972548,-0.10723250564375601,-1.103248143196106,1.1378656182670592,-9.843523166351318
2026-09-11T19:21:14.139,2.138635968000017,-249.76026916503906,-22478.424224853516,-89913.69689941406,-171.08578437805178,-0.913392562866211,-2.0958774089813232,-1.4356760251522065,-3.211515804295376,-0.5431425173911374,0.0,-0.07834434509277344,-641.796875,-28.203964233398438,-0.0915527492761612,-32.95898973941803,-328.86801791486084,1,1789168873.7509897,38.99021625666666,-76.93881358666667,-10.994000000000003,0,1,8.433216,8.655364,49.942489,1,1,1789168874.1358047,-0.7790818762111443,0.6246115143834676,0.0477743323175009,-0.02468804225797371,174.36204090198592,2.498851537900528,-77.56329709541966,0.013356132100886606,-0.0576510177201759,-0.11512837517977836,-0.5689818423843384,0.9214328491973877,-10.306298987483979
2026-09-11T19:21:14.172,2.172053023999979,-249.83279418945312,-22484.95147705078,-89939.80590820312,-171.1354640197754,-0.9630722045898438,-2.1484835147857666,-1.4717112076282501,-3.292124211766841,-1.078347011660291,0.0,-0.0804290771484375,-658.875,-28.9544677734375,-0.1373291164636612,-49.43848192691803,-493.14614032782316,1,1789168873.7509897,38.99021625666666,-76.93881358666667,-10.994000000000003,0,1,8.433216,8.655364,49.942489,1,1,1789168874.1638048,-0.7800188858244592,0.6233986627380453,0.04871821023567042,-0.023899394239586803,174.3684737727972,2.648268406597058,-77.39465034186567,0.010273007977238624,-0.027903451416259342,-0.11064497339725532,-2.4971653971862793,1.5003194082450866,-10.250793347568512
2026-09-11T19:21:14.206,2.2054712960000415,-249.9073486328125,-22491.661376953125,-89966.6455078125,-171.1865338134766,-1.0141419982910158,-2.201772689819336,-1.5082142925262452,-3.3737792871471086,-1.0923091684072297,0.0,-0.0824127197265625,-675.125,-29.6685791015625,-0.1525879055261612,-54.93164598941803,-164.3760653599834,1,1789168873.7509897,38.99021625666666,-76.93881358666667,-10.994000000000003,0,1,8.433216,8.655364,49.942489,1,1,1789168874.1958046,-0.7813128451827236,0.6219081787418573,0.04715207391254108,-0.023603751655395227,174.5126303938091,2.5403134712632074,-77.15982586371226,0.018834371557046408,-0.05450000028862533,-0.11468122182541741,2.13784973526001,-0.7683510401725769,-7.877387875423432
2026-09-11T19:21:14.239,2.2388776000000234,-249.982421875,-22498.41796875,-89993.671875,-171.237958984375,-1.0655671691894533,-2.2540769577026367,-1.5440427160263064,-3.4539251879614903,-1.0725048631563858,0.0,-0.08401679992675781,-688.265625,-30.246047973632812,0.0,0.0,1644.3497008662735,1,1789168873.7509897,38.99021625666666,-76.93881358666667,-10.994000000000003,0,1,8.433216,8.655364,49.942489,1,1,1789168874.2358048,-0.7826284498177775,0.6202173599582149,0.046777781882231716,-0.025198711563551447,174.40171181152118,2.4049452707359307,-76.90984103663867,0.0016690583636821774,-0.01061544157647991,-0.11441802617421666,1.0199896833229065,-0.5397580249023437,-10.823697850017547
2026-09-11T19:21:14.272,2.272285568000143,-250.05746459960938,-22505.171813964844,-90020.68725585938,-171.28936325073244,-1.1169714355468752,-2.2804486751556396,-1.5621073424816132,-3.494334606481772,-0.5407280818528729,0.0,-0.08744049072265625,-716.3125,-31.47857666015625,-0.04577639698982239,-16.47950291633606,-493.2806124657768,1,1789168873.7509897,38.99021625666666,-76.93881358666667,-10.994000000000003,0,1,8.433216,8.655364,49.942489,1,1,1789168874.2638047,-0.7838644444424127,0.6187339658386434,0.04615314977658542,-0.02438645161297976,174.52397029832179,2.4173484842851285,-76.68636881516349,-0.031473871467064145,0.044165382188791305,-0.12688526208706255,-0.5514279385948181,0.24075326147079468,-7.972218182487488
2026-09-11T19:21:14.306,2.3057054400001107,-250.1324005126953,-22511.916046142578,-90047.66418457031,-171.3406943511963,-1.1683025360107422,-2.254612445831299,-1.5444095253944399,-3.4547457171493337,0.5295596909285127,0.0,-0.08801460266113281,-721.015625,-31.685256958007812,0.0915527418255806,32.958987057209015,1479.3141629505021,1,1789168873.7509897,38.99021625666666,-76.93881358666667,-10.994000000000003,0,1,8.433216,8.655364,49.942489,1,1,1789168874.2958047,-0.7851886753807383,0.6171887317308448,0.044391165385524026,-0.02421235044409848,174.6700152596667,2.282333530574726,-76.44368754143755,-0.031169311512591134,0.007224615905705327,-0.12614262449033897,3.193633691673279,0.40324945465087886,-10.553524638061523
2026-09-11T19:21:14.339,2.339111872000103,-250.2074432373047,-22518.669891357422,-90074.67956542969,-171.39209861755373,-1.219706802368164,-2.255571126937866,-1.5450662219524385,-3.456214705512788,-0.019657787997196214,0.0,-0.08828926086425781,-723.265625,-31.784133911132812,0.0,0.0,-986.6060241697294,1,1789168873.7509897,38.99021625666666,-76.93881358666667,-10.994000000000003,0,1,8.433216,8.655364,49.942489,1,1,1789168874.3358047,-0.7866882377052734,0.6152739161328994,0.04432342931961143,-0.024393818807368926,174.6640031158194,2.2763688571548384,-76.16447192648704,-0.07954425332426757,-0.0025012313510330737,-0.10809487282716641,2.2027697593307494,1.021264547843933,-12.328920583343507
2026-09-11T19:21:14.372,2.372515519999979,-250.28330993652344,-22525.49789428711,-90101.99157714844,-171.44406730651858,-1.271675491333008,-2.2826313972473145,-1.5636025071144106,-3.497679194511473,-0.5549179886592341,0.0,-0.086761474609375,-710.75,-31.234130859375,0.0,0.0,0.0,1,1789168873.7509897,38.99021625666666,-76.93881358666667,-10.994000000000003,0,1,8.433216,8.655364,49.942489,1,1,1789168874.3638046,-0.7878844374780241,0.6137702189976513,0.044742087365904584,-0.022855569773135107,174.77771889147067,2.4327678775408295,-75.94888952529134,0.02825949858366619,-0.038135618689001304,-0.11530936582321018,0.7808054858779907,0.7425595502471923,-7.378621648197174
2026-09-11T19:21:14.406,2.405923616000109,-250.36050415039062,-22532.445373535156,-90129.78149414062,-171.4969453430176,-1.3245535278320313,-2.335793972015381,-1.600018870830536,-3.579140280132727,-1.0900460689523745,0.0,-0.0875244140625,-717.0,-31.5087890625,-0.0610351637005806,-21.972658932209015,-657.7046154358333,1,1789168873.7509897,38.99021625666666,-76.93881358666667,-10.994000000000003,0,1,8.433216,8.655364,49.942489,1,1,1789168874.3958046,-0.7890942937811367,0.6122430308509984,0.04392897450370451,-0.023641317549690462,174.7687788149325,2.3142180062706066,-75.72012659658493,-0.09749583734565524,0.029091846103942283,-0.12914005294771405,-2.861286317691803,-0.4803297249221802,-11.832998284664155
2026-09-11T19:21:14.440,2.439346624000109,-250.43528747558594,-22539.175872802734,-90156.70349121094,-171.54817192077638,-1.3757801055908203,-2.259427309036255,-1.5477077066898348,-3.462123538586778,1.5651243640519021,0.0,-0.08667182922363281,-710.015625,-31.201858520507812,-0.0610351599752903,-21.972657591104507,4.012518883537649e-05,1,1789168873.7509897,38.99021625666666,-76.93881358666667,-10.994000000000003,0,1,8.433216,8.655364,49.942489,1,1,1789168874.4358046,-0.7905507060494368,0.6104454109097791,0.043177135954417196,-0.022841111941009393,174.89960319994418,2.314285916695397,-75.45210883471178,0.010893647059247807,0.10586765816869644,-0.09358752155166433,1.5468029300117494,-0.6120330365943909,-6.830135704650878
2026-09-11T19:21:14.473,2.47276217600006,-250.51022338867188,-22545.92010498047,-90183.68041992188,-171.59950302124025,-1.4271112060546876,-2.2087600231170654,-1.5130006158351899,-3.384485987462393,1.0386508310470397,0.0,-0.08706855773925781,-713.265625,-31.344680786132812,0.0,0.0,657.5578219128789,1,1789168873.7509897,38.99021625666666,-76.93881358666667,-10.994000000000003,0,1,8.433216,8.655364,49.942489,1,1,1789168874.4638047,-0.7909645627954736,0.6099141692395522,0.042694338029774695,-0.023600001330328614,174.86627844846083,2.220851545569266,-75.37133339539054,-0.06776310634038064,0.09128333787318142,-0.014019008150794054,-0.8440583794212341,1.1043268747138977,-11.290886663722993
2026-09-11T19:21:14.506,2.5061694400001215,-250.58351135253906,-22552.516021728516,-90210.06408691406,-171.64970527648927,-1.477313461303711,-2.1839094161987305,-1.4959779500961305,-3.34640736868318,0.5095498314087635,0.0,-0.08792686462402344,-720.296875,-31.653671264648438,-0.015258791856467724,-5.493165068328381,-164.4302588897521,1,1789168873.7509897,38.99021625666666,-76.93881358666667,-10.994000000000003,0,1,8.433216,8.655364,49.942489,1,1,1789168874.4958048,-0.7920290174199621,0.6086161587969102,0.042508021301115854,-0.021667370424848342,175.0586015155059,2.3475462764908523,-75.18057431342466,0.020983744530877424,0.0009140289292694304,-0.09747070460442653,-0.872203465385437,0.026085689430236817,-9.266990203342438
2026-09-11T19:21:14.540,2.539576831999966,-250.65811157226562,-22559.230041503906,-90236.92016601562,-171.70080642700196,-1.5284146118164064,-2.2385170459747314,-1.5333841764926912,-3.43008271405845,-1.1196990892535017,0.0,-0.09144020080566406,-749.078125,-32.91847229003906,-0.2746582329273224,-98.87696385383606,-2795.303470140447,1,1789168873.7509897,38.99021625666666,-76.93881358666667,-10.994000000000003,0,1,8.433216,8.655364,49.942489,1,1,1789168874.5358047,-0.7926833033251838,0.6080690842122958,0.037529616786716534,-0.022286707216112832,175.3530137018312,1.8563921031238961,-75.05911284062714,0.0016224580726539287,0.10791527844713619,-0.025188242698931763,0.9850780087471008,-0.30753654907226563,-11.641768606510162
2026-09-11T19:21:14.573,2.572994463999976,-250.7316131591797,-22565.845184326172,-90263.38073730469,-171.7511550140381,-1.5787631988525392,-2.2395827770233154,-1.5341142022609713,-3.4317157351936505,-0.02184552658548224,0.0,-0.10211753845214844,-836.546875,-36.76231384277344,-0.2746582329273224,-98.87696385383606,0.0,1,1789168873.7509897,38.99021625666666,-76.93881358666667,-10.994000000000003,0,1,8.433216,8.655364,49.942489,1,1,1789168874.5638046,-0.7932976906908377,0.607309986800507,0.0365616577642879,-0.02272881559781087,175.38228169653004,1.742156618647072,-74.94205770833626,0.0061042890588501675,0.1056692142327447,-0.07782178788547435,-3.670825288543701,0.6481215091896056,-8.664273484401702
2026-09-11T19:21:14.607,2.606404608000048,-250.80703735351562,-22572.633361816406,-90290.53344726562,-171.8028205871582,-1.6304287719726565,-2.2671570777893066,-1.5530025982856752,-3.473967873760007,-0.5653491354201613,0.0,-0.104034423828125,-852.25,-37.452392578125,0.0457763709127903,16.479493528604507,3452.7375093681458,1,1789168873.7509897,38.99021625666666,-76.93881358666667,-10.994000000000003,0,1,8.433216,8.655364,49.942489,1,1,1789168874.6038046,-0.7936112187739458,0.6068975641108012,0.03398351260119413,-0.026489639178228663,175.22093431960357,1.2483674666637115,-74.86448511857098,-0.10897661316527395,0.12268739617016579,-0.07561708797435512,5.3299143629074095,-4.516354665489197,-14.632502706336975
2026-09-11T19:21:14.640,2.6398108480000246,-250.877685546875,-22578.99169921875,-90315.966796875,-171.8512145996094,-1.6788227844238282,-2.1643619537353516,-1.482587938308716,-3.316454765364876,2.1078295545086365,0.0,-0.11288070678710938,-924.71875,-40.637054443359375,-0.4119873642921448,-148.31545114517212,-4933.058754109772,1,1789168873.7509897,38.99021625666666,-76.93881358666667,-10.994000000000003,0,1,8.433216,8.655364,49.942489,1,1,1789168874.6358047,-0.7955333422976306,0.6044332491061767,0.03295784509185603,-0.026475065903845477,175.29747979356438,1.170823857030407,-74.50202948064093,0.03260920814548646,0.19250300971089176,-0.12602481476582936,5.3715926260948175,-0.5561351306724549,-4.693953099918366
2026-09-11T19:21:14.672,2.673218368000107,-250.95074462890625,-22585.567016601562,-90342.26806640625,-171.9012600708008,-1.7288682556152346,-2.190988302230835,-1.5008269870281221,-3.357254355377864,-0.5459563810591488,0.0,-0.12251472473144531,-1003.640625,-44.10530090332031,-0.19836431741714478,-71.41115427017212,2302.0055626640365,1,1789168873.7509897,38.99021625666666,-76.93881358666667,-10.994000000000003,0,1,8.433216,8.655364,49.942489,1,1,1789168874.6638048,-0.7966543080656191,0.6029545486194365,0.03117780421845238,-0.028559941591974832,175.23253118264844,0.8729447540491796,-74.27747079054522,-0.054608210702248985,0.17118084583805265,-0.14954993322053572,3.3952584189987185,1.9319100818634034,-10.843016950836182
2026-09-11T19:21:14.706,2.706624511999962,-251.02606201171875,-22592.345581054688,-90369.38232421875,-171.95285247802735,-1.780460662841797,-2.2177042961120605,-1.5191274428367616,-3.398191309137348,-0.5478170664868992,0.0,-0.12756919860839844,-1045.046875,-45.92491149902344,-0.2593994736671448,-93.38381052017212,-657.7429663865242,1,1789168873.7509897,38.99021625666666,-76.93881358666667,-10.994000000000003,0,1,8.433216,8.655364,49.942489,1,1,1789168874.6958046,-0.79862293305307,0.6004769215537747,0.030156273215407783,-0.02682306225566791,175.4649242825964,0.9141197771276758,-73.9145061508234,0.14966058709511218,0.14572905842206973,-0.20589910985164905,-1.8598312031745912,0.5563312636756897,-12.63920299446106
2026-09-11T19:21:14.740,2.7400314880001133,-251.10394287109375,-22599.354858398438,-90397.41943359375,-172.00620086669923,-1.833809051513672,-2.296354055404663,-1.5730025279521944,-3.518706442269579,-1.612689670420603,0.0,-0.1299285888671875,-1064.375,-46.7742919921875,0.1525879055261612,54.93164598941803,4439.6552537086545,1,1789168873.7509897,38.99021625666666,-76.93881358666667,-10.994000000000003,0,1,8.433216,8.655364,49.942489,1,1,1789168874.7358048,-0.8008712280588935,0.597485923751488,0.02924919253701206,-0.027574113262321176,175.46165662758415,0.7964017099979745,-73.48074344632788,0.00830741817364261,0.08332463648408728,-0.1836243452730714,-0.8464119754600524,0.48837117805480956,-10.931472935295105
2026-09-11T19:21:14.774,2.773448000000144,-251.1819305419922,-22606.373748779297,-90425.49499511719,-172.05962242126466,-1.8872306060791018,-2.3219261169433594,-1.5905193901062014,-3.5578905469447917,-0.5241978023915496,0.0,-0.12725067138671875,-1042.4375,-45.81024169921875,0.045776382088661194,16.47949755191803,-1150.6930596905106,1,1789168873.7509897,38.99021625666666,-76.93881358666667,-10.994000000000003,0,1,8.433216,8.655364,49.942489,1,1,1789168874.7638047,-0.8025176562663546,0.5952797502348651,0.029440223632274554,-0.02721586988422907,175.48377189385502,0.8509014541776171,-73.16703636265869,-0.00038065630985996326,0.03888488853688246,-0.17456067593453967,-0.7317722350692749,-0.41050637577056887,-5.638627709999085
2026-09-11T19:21:14.807,2.806869087999985,-251.25840759277344,-22613.25668334961,-90453.02673339844,-172.11200920104983,-1.939617385864258,-2.3478963375091553,-1.6083089911937716,-3.5976847512387478,-0.5322867133366487,0.0,-0.1247100830078125,-1021.625,-44.8956298828125,0.061035171151161194,21.97266161441803,164.36221533320972,1,1789168873.7509897,38.99021625666666,-76.93881358666667,-10.994000000000003,0,1,8.433216,8.655364,49.942489,1,1,1789168874.8038046,-0.8044911086972459,0.592527682905433,0.028553576124725602,-0.029827743935533498,175.3059809951474,0.6070411315258124,-72.7700174453362,-0.05536009854400814,0.06698591122446756,-0.16780136480741603,1.7654912286186217,0.6731284671020509,-8.000853600959777
2026-09-11T19:21:14.841,2.8402856960001372,-251.338134765625,-22620.43212890625,-90481.728515625,-172.16662231445315,-1.9942304992675783,-2.322753429412842,-1.5910860991477969,-3.559158238966972,0.5153991705530435,0.0,-0.12435340881347656,-1018.703125,-44.76722717285156,0.0457763709127903,16.479493528604507,-164.38437096274046,1,1789168874.8147504,38.990216165,-76.93882214833333,-11.009000000000004,0,1,8.7025,8.678916000000001,60.07800100000001,1,1,1789168874.8358047,-0.806144060605671,0.5904025778136487,0.026200742404393317,-0.02949696185469693,175.4977795844277,0.4247364214369367,-72.45318740318037,0.023563515698250243,-0.016344484846151298,-0.1597381181961274,1.7390132731819152,1.7415630022239685,-8.423422156429291
2026-09-11T19:21:14.874,2.8737034880000465,-251.41598510742188,-22627.43865966797,-90509.75463867188,-172.219949798584,-2.0475579833984376,-2.375089406967163,-1.6269362437725068,-3.6393527285533844,-1.0727861560933556,0.0,-0.11609840393066406,-951.078125,-41.79542541503906,0.09155276417732239,32.95899510383606,493.13556010152644,1,1789168874.8147504,38.990216165,-76.93882214833333,-11.009000000000004,0,1,8.7025,8.678916000000001,60.07800100000001,1,1,1789168874.8638046,-0.807508760773051,0.5885682099201591,0.024954300099778847,-0.02990562576976326,175.54513562007492,0.2921312831081991,-72.18566768063505,0.0814091376300235,0.05082747847657886,-0.17397965582655073,-0.1063040877532959,1.5347407503128052,-10.430549245033264
2026-09-11T19:21:14.907,2.9071091519999754,-251.4957733154297,-22634.619598388672,-90538.47839355469,-172.27460472106935,-2.102212905883789,-2.4013500213623047,-1.6449247646331788,-3.6795919037069993,-0.5384871517809167,0.0,-0.10956382751464844,-897.546875,-39.44297790527344,0.2899170219898224,104.37012791633606,2137.695356471642,1,1789168874.8147504,38.990216165,-76.93882214833333,-11.009000000000004,0,1,8.7025,8.678916000000001,60.07800100000001,1,1,1789168874.9038048,-0.8094763698346152,0.5857983296478046,0.02666992600049229,-0.02961483932665482,175.457746168511,0.4859143108286962,-71.80395798469549,0.05374689071638978,0.01002185509787664,-0.16648957534161707,-0.5002372247505188,1.6572258108329774,-5.903014998359681
2026-09-11T19:21:14.941,2.940515775999984,-251.58029174804688,-22642.22625732422,-90568.90502929688,-172.33249984741212,-2.1601080322265624,-2.480243682861328,-1.69896692276001,-3.8004807685218505,-1.6177078571847774,0.0,-0.10106277465820312,-827.90625,-36.382598876953125,0.1831054985523224,65.91797947883606,-1151.0336524124784,1,1789168874.8147504,38.990216165,-76.93882214833333,-11.009000000000004,0,1,8.7025,8.678916000000001,60.07800100000001,1,1,1789168874.9358046,-0.8107466886578745,0.5839502358265359,0.02739385159921464,-0.03068396654581926,175.3108283635166,0.49178315934574585,-71.54769934572063,-0.0188998214039962,-0.01132020552843522,-0.14283652425273954,-1.117565852432251,1.1162909879112244,-8.667901944961548
2026-09-11T19:21:14.974,2.9739348800001153,-251.66603088378906,-22649.942779541016,-90599.77111816406,-172.39123115539553,-2.218839340209961,-2.559338092803955,-1.7531465935707093,-3.9216772404498643,-1.6212185344791483,0.0,-0.0933380126953125,-764.625,-33.6016845703125,0.2136230766773224,76.90430760383606,328.74394612604743,1,1789168874.8147504,38.990216165,-76.93882214833333,-11.009000000000004,0,1,8.7025,8.678916000000001,60.07800100000001,1,1,1789168874.9638047,-0.8117762000095265,0.5825319211525911,0.02727012352245369,-0.030533625717145733,175.3339782843405,0.4985283420124952,-71.34687738940553,0.01689443809345471,0.011465591455126349,-0.12563927153406382,-0.260366561794281,0.5037676188087463,-10.004744495010376
2026-09-11T19:21:15.007,3.007353632000104,-251.75265502929688,-22657.73895263672,-90630.95581054688,-172.45056869506837,-2.2781768798828126,-2.6120715141296387,-1.7892689871788026,-4.002480733667682,-1.0809019321878166,0.0,-0.08147621154785156,-667.453125,-29.331436157226562,0.6256104111671448,225.21974802017212,4438.090339710661,1,1789168874.8147504,38.990216165,-76.93882214833333,-11.009000000000004,0,1,8.7025,8.678916000000001,60.07800100000001,1,1,1789168875.0038047,-0.8129641070208109,0.5807064713879744,0.030005382440266324,-0.031129275748023145,175.0969806923482,0.7238170181498138,-71.1080083503272,-0.057712802375696495,0.0025893704782587873,-0.10910018247631514,-0.37294690565109256,0.9572271222877503,-6.53642653230667
2026-09-11T19:21:15.040,3.040777536000178,-251.84095764160156,-22665.68618774414,-90662.74475097656,-172.5110559844971,-2.3386641693115235,-2.690948963165283,-1.843300039768219,-4.123344756102847,-1.6165392465612962,0.0,-0.06824874877929688,-559.09375,-24.569549560546875,-0.2288818508386612,-82.39746630191803,-9203.50939020798,1,1789168874.8147504,38.990216165,-76.93882214833333,-11.009000000000004,0,1,8.7025,8.678916000000001,60.07800100000001,1,1,1789168875.0358047,-0.8137663882921049,0.5795247010367341,0.03096128039846405,-0.03125356444303171,175.02272840324395,0.8116833716112876,-70.94850624529919,-0.041989654743255174,-0.035111312161145526,-0.09712896913688604,0.10522535623550415,0.8997601523399353,-8.25504197315216
2026-09-11T19:21:15.074,3.0741873920001126,-251.9329376220703,-22673.964385986328,-90695.85754394531,-172.57406227111818,-2.401670455932617,-2.7433536052703857,-1.8791972196102145,-4.203644460473811,-1.0744488046301512,0.0,-0.06906509399414062,-565.78125,-24.863433837890625,0.030517593026161194,10.98633348941803,2795.0973446733346,1,1789168874.8147504,38.990216165,-76.93882214833333,-11.009000000000004,0,1,8.7025,8.678916000000001,60.07800100000001,1,1,1789168875.0638046,-0.8143553126601006,0.5786603391128889,0.031767206182561576,-0.0311204320564552,174.98239498691785,0.9009139461829742,-70.83275556041171,-0.029981964022459392,-0.04557054676957195,-0.09049043479400042,-0.7356948951339722,1.1533601255226136,-10.169103951721192
2026-09-11T19:21:15.107,3.107592704000126,-252.0249481201172,-22682.245330810547,-90728.98132324219,-172.6370894622803,-2.464697647094727,-2.7695987224578857,-1.897175124883652,-4.243859889235079,-0.5381750445387304,0.0,-0.06936836242675781,-568.265625,-24.972610473632812,0.0,0.0,-328.87983472250124,1,1789168874.8147504,38.990216165,-76.93882214833333,-11.009000000000004,0,1,8.7025,8.678916000000001,60.07800100000001,1,1,1789168875.1038046,-0.815348635231617,0.5772795414194684,0.03186175596245013,-0.030655547482586157,175.02114433131737,0.9490470120787259,-70.63943894629907,-0.05346868523362189,0.0010056587149991326,-0.10195201199184717,1.3944075864982606,0.006864655113220214,-9.189125401058197
2026-09-11T19:21:15.141,3.1410005120001188,-252.11856079101562,-22690.670471191406,-90762.68188476562,-172.70121414184572,-2.5288223266601566,-2.7968180179595947,-1.9158203423023226,-4.285568052752148,-0.5581095718304758,0.0,-0.07010078430175781,-574.265625,-25.236282348632812,0.0,0.0,0.0,1,1789168874.8147504,38.990216165,-76.93882214833333,-11.009000000000004,0,1,8.7025,8.678916000000001,60.07800100000001,1,1,1789168875.1358047,-0.8162576689642539,0.5761046518145312,0.030323019469179965,-0.03012245848153649,175.17440136035515,0.8477459080200037,-70.46367047593517,0.008407949138557483,-0.042328074085216875,-0.1087149883104,0.7626631830787659,0.8572973571395874,-9.533927220745086
2026-09-11T19:21:15.174,3.1744190080000863,-252.21444702148438,-22699.300231933594,-90797.20092773438,-172.7668962097168,-2.59450439453125,-2.8235771656036377,-1.934150358438492,-4.326571131081089,-0.5484991346165699,0.0,-0.06995773315429688,-573.09375,-25.184783935546875,0.0610351599752903,21.972657591104507,657.4998944035627,1,1789168874.8147504,38.990216165,-76.93882214833333,-11.009000000000004,0,1,8.7025,8.678916000000001,60.07800100000001,1,1,1789168875.1638048,-0.8170225366537567,0.574999865215947,0.03138452203828427,-0.02939968329645601,175.1731134500422,1.0012428955598365,-70.31603498026553,-0.029615793945390982,-0.037634883726604125,-0.12529177647999173,-1.5116951224327089,0.3418598246383667,-12.901727019290924
2026-09-11T19:21:15.208,3.207850080000071,-252.31309509277344,-22708.17855834961,-90832.71423339844,-172.83447013854982,-2.662078323364258,-2.8773272037506104,-1.9709691345691682,-4.408932387636825,-1.1013339964298146,0.0,-0.07083702087402344,-580.296875,-25.501327514648438,-0.015258789993822575,-5.493164397776127,-821.5656975909442,1,1789168874.8147504,38.990216165,-76.93882214833333,-11.009000000000004,0,1,8.7025,8.678916000000001,60.07800100000001,1,1,1789168875.2038047,-0.8182984962591674,0.5732270272407882,0.03139841332014155,-0.02850413832502034,175.25845811773524,1.0719441761827913,-70.06770511634707,0.015599927387250518,-0.032224188512496504,-0.13424322114762025,-1.1531639925193786,1.003318378047943,-6.414333737792969
2026-09-11T19:21:15.241,3.241259712000101,-252.40811157226562,-22716.730041503906,-90866.92016601562,-172.89955642700195,-2.7271646118164066,-2.9053568840026855,-1.9901694655418398,-4.4518823048090495,-0.5746944765106787,0.0,-0.07064056396484375,-578.6875,-25.43060302734375,0.015258791856467724,5.493165068328381,328.83718881113924,1,1789168874.8147504,38.990216165,-76.93882214833333,-11.009000000000004,0,1,8.7025,8.678916000000001,60.07800100000001,1,1,1789168875.2358048,-0.8192435074158981,0.5719987559171429,0.03049463104553949,-0.02697362162436627,175.46338564866895,1.0948343288271574,-69.88913475847515,0.016880649992363956,-0.047521999406226804,-0.10105595995387327,0.7444228137779236,0.32430592084884646,-10.674440634555816
2026-09-11T19:21:15.275,3.2746661440000935,-252.50599670410156,-22725.53970336914,-90902.15881347656,-172.96660774230958,-2.7942159271240237,-2.932745933532715,-2.00893096446991,-4.49385058265459,-0.5616133721815738,0.0,-0.07022285461425781,-575.265625,-25.280227661132812,0.0,0.0,-164.434354088746,1,1789168874.8147504,38.990216165,-76.93882214833333,-11.009000000000004,0,1,8.7025,8.678916000000001,60.07800100000001,1,1,1789168875.2638047,-0.820013849492655,0.5708463455209439,0.030769925455816707,-0.027657695729469845,175.38248985607254,1.0822063525987473,-69.73045247487526,-0.02014842995087294,0.051531544296833376,-0.13116411128125186,-0.15445474004745482,1.5145390509796142,-10.915782295036315
2026-09-11T19:21:15.308,3.3080776320000496,-252.6038055419922,-22734.342498779297,-90937.36999511719,-173.03360679626465,-2.861214981079102,-2.960225820541382,-2.0277546870708467,-4.53595805089219,-0.5633907295886199,0.0,-0.07096290588378906,-581.328125,-25.546646118164062,-0.015258791856467724,-5.493165068328381,-164.40947102791714,1,1789168874.8147504,38.990216165,-76.93882214833333,-11.009000000000004,0,1,8.7025,8.678916000000001,60.07800100000001,1,1,1789168875.3038046,-0.8213173303938184,0.5691556538466608,0.027503861440581857,-0.02726209997429912,175.63573022388786,0.8105353907822779,-69.47317708182285,0.03458492085874404,0.03910078576535417,-0.11201435872837008,-1.729402756023407,0.5305397737503051,-6.242913492965699
2026-09-11T19:21:15.342,3.341498976000139,-252.70172119140625,-22743.154907226562,-90972.61962890625,-173.1006790161133,-2.9282872009277345,-2.9089818000793457,-1.9926525330543519,-4.457436768643409,1.0502915147996714,0.0,-0.07281494140625,-596.5,-26.21337890625,-0.030517593026161194,-10.98633348941803,-164.3610867676341,1,1789168874.8147504,38.990216165,-76.93882214833333,-11.009000000000004,0,1,8.7025,8.678916000000001,60.07800100000001,1,1,1789168875.3358047,-0.8224997116229503,0.5675271723002494,0.026599644266064103,-0.026449801624314078,175.77295747335162,0.786950029538051,-69.2406174829644,-0.03283784627749771,0.11794935084977679,-0.11381588758227862,1.261331343803406,-0.5361295643424988,-14.085781959819794
2026-09-11T19:21:15.375,3.3749230720000014,-252.8019256591797,-22752.173309326172,-91008.69323730469,-173.1693190765381,-2.9969272613525395,-2.9885740280151367,-2.047173209190369,-4.57939604775941,-1.63117878001073,0.0,-0.072113037109375,-590.75,-25.960693359375,0.0,0.0,328.6950076215452,1,1789168874.8147504,38.990216165,-76.93882214833333,-11.009000000000004,0,1,8.7025,8.678916000000001,60.07800100000001,1,1,1789168875.3638046,-0.8234086207347527,0.5662455600615195,0.025975626029852688,-0.026257872394116154,175.83291450068742,0.7471754157766187,-69.05860462957897,0.010947577733134432,0.036131631641861416,-0.11246447914245941,3.102529911670685,0.1906412791442871,-6.958798954772949
2026-09-11T19:21:15.408,3.4083310080000047,-252.89979553222656,-22760.98159790039,-91043.92639160156,-173.2363599395752,-3.063968124389649,-2.937404155731201,-2.012121846675873,-4.5009883828647785,1.049192698240697,0.0,-0.0719451904296875,-589.375,-25.9002685546875,0.0457763709127903,16.479493528604507,493.2808039563685,1,1789168874.8147504,38.990216165,-76.93882214833333,-11.009000000000004,0,1,8.7025,8.678916000000001,60.07800100000001,1,1,1789168875.4038048,-0.8247623214381858,0.5644505400625828,0.023465666899226866,-0.02473991584318405,176.14088046112653,0.6175618027684878,-68.79469381441957,-0.034168659832143386,0.06271282161680984,-0.11590207963718743,1.238677981929779,0.037951736125946045,-9.020156818771362
2026-09-11T19:21:15.441,3.4417354880001767,-252.99826049804688,-22769.84344482422,-91079.37377929688,-173.30380844116212,-3.131416625976563,-2.964073657989502,-2.030390455722809,-4.5418540974472235,-0.546890987282001,0.0,-0.071136474609375,-582.75,-25.609130859375,0.0,0.0,-493.3318383797513,1,1789168874.8147504,38.990216165,-76.93882214833333,-11.009000000000004,0,1,8.7025,8.678916000000001,60.07800100000001,1,1,1789168875.4358046,-0.8256304956885672,0.5631749322982582,0.02464749054620133,-0.023680824092040902,176.16568409131523,0.8036882799743763,-68.62387089156327,-0.10005745708880733,-0.0036527995914989323,-0.10690717627118426,-0.8673982068061828,1.1521833275032043,-9.977972340068819
2026-09-11T19:21:15.475,3.475153472000102,-253.0966339111328,-22778.697052001953,-91114.78820800781,-173.371194229126,-3.19880241394043,-2.938295364379883,-2.01273232460022,-4.5023539830892485,0.5284020461147131,0.0,-0.07019615173339844,-575.046875,-25.270614624023438,-0.0762939527630806,-27.465822994709015,-821.8874901241963,1,1789168874.8147504,38.990216165,-76.93882214833333,-11.009000000000004,0,1,8.7025,8.678916000000001,60.07800100000001,1,1,1789168875.4638047,-0.8264212712685454,0.56204958460442,0.023877350025372227,-0.023622425714691794,176.22203533184938,0.7397979240884396,-68.4636846247465,0.05305731112892682,-0.020821952509217548,-0.1009212205356193,0.08933858297348023,0.9502644006729126,-6.4464995503234865
2026-09-11T19:21:15.509,3.508569024000053,-253.195068359375,-22787.55615234375,-91150.224609375,-173.4386218261719,-3.2662300109863285,-2.9645559787750244,-2.030720845460892,-4.542593158242863,-0.5383278079828965,0.0,-0.07046699523925781,-577.265625,-25.368118286132812,0.0,0.0,821.9473074917051,1,1789168874.8147504,38.990216165,-76.93882214833333,-11.009000000000004,0,1,8.7025,8.678916000000001,60.07800100000001,1,1,1789168875.5038047,-0.8272644637911135,0.5608370345083737,0.023107975042607646,-0.023692808227078983,176.26599964848833,0.6679237499304835,-68.29173285692985,-0.012874770293186571,-0.0017797122382586178,-0.10487735835111486,0.2050570548820496,0.5214195890998841,-9.567171764793397
2026-09-11T19:21:15.542,3.541977536000104,-253.2953338623047,-22796.580047607422,-91186.32019042969,-173.50730369567873,-3.334911880493164,-2.990588903427124,-2.04855339884758,-4.582483444093543,-0.5337727518861273,0.0,-0.069671630859375,-570.75,-25.081787109375,0.0,0.0,0.0,1,1789168874.8147504,38.990216165,-76.93882214833333,-11.009000000000004,0,1,8.7025,8.678916000000001,60.07800100000001,1,1,1789168875.5358047,-0.8280369188732147,0.5597165993005073,0.022922251772182593,-0.0233828959737988,176.30827379377442,0.6752665294143764,-68.13569569257413,-0.09421008049585072,0.017050121462732604,-0.1131153124205281,-0.9614439818572998,0.16573238773345947,-7.216125455017091
2026-09-11T19:21:15.576,3.5753882559999965,-253.39459228515625,-22805.513305664062,-91222.05322265625,-173.57529571533203,-3.4029039001464847,-2.965461492538452,-2.03134112238884,-4.543980678214114,0.5151722698222454,0.0,-0.069549560546875,-569.75,-25.037841796875,0.0,0.0,0.0,1,1789168874.8147504,38.990216165,-76.93882214833333,-11.009000000000004,0,1,8.7025,8.678916000000001,60.07800100000001,1,1,1789168875.5638046,-0.8286148323262256,0.558887806417147,0.022176844254689528,-0.023453508609887316,176.3500757000052,0.6037003708294463,-68.01733876127658,-0.08222944237846085,0.02948000732958582,-0.10108667774870837,-0.36451318651199344,1.1246266405487062,-12.5803630934906
2026-09-11T19:21:15.610,3.6088048320000325,-253.49380493164062,-22814.442443847656,-91257.76977539062,-173.64325637817385,-3.4708645629882815,-2.9668917655944824,-2.0323208594322204,-4.546172287563122,-0.02931889381424229,0.0,-0.069427490234375,-568.75,-24.993896484375,0.0,0.0,0.0,1,1789168874.8147504,38.990216165,-76.93882214833333,-11.009000000000004,0,1,8.7025,8.678916000000001,60.07800100000001,1,1,1789168875.6038046,-0.8294645089828678,0.557647547966059,0.021912409139137466,-0.02318807691402509,176.39316153883013,0.6010198516704025,-67.8446676781342,-0.0909527725128537,0.011461751730771961,-0.10076693342974302,-0.3237175218391418,0.512985869960785,-7.791089354000092
2026-09-11T19:21:15.643,3.6422074880001674,-253.592529296875,-22823.32763671875,-91293.310546875,-173.71088256835938,-3.5384907531738286,-2.9678456783294678,-2.0329742896556855,-4.547633969344316,-0.019562223538824367,0.0,-0.06917572021484375,-566.6875,-24.90325927734375,0.0305175818502903,10.986329466104507,328.9058650324144,1,1789168874.8147504,38.990216165,-76.93882214833333,-11.009000000000004,0,1,8.7025,8.678916000000001,60.07800100000001,1,1,1789168875.6358047,-0.8302520089900399,0.5565711458232305,0.02054626183975536,-0.022091001096180042,176.58568293989882,0.5458492633702644,-67.68923105769616,-0.0741757950780582,0.008875522845166765,-0.1006189295091739,0.22672975173950197,-0.14827655044555663,-10.65335633670807
2026-09-11T19:21:15.675,3.675608384000043,-253.6898193359375,-22832.083740234375,-91328.3349609375,-173.7775262451172,-3.605134429931641,-2.942612409591675,-2.0156895005702973,-4.508968997338706,0.5174947727585705,0.0,-0.06641197204589844,-544.046875,-23.908309936523438,0.0915527492761612,32.95898973941803,657.8464324249093,1,1789168874.8147504,38.990216165,-76.93882214833333,-11.009000000000004,0,1,8.7025,8.678916000000001,60.07800100000001,1,1,1789168875.6638048,-0.8307316614856814,0.5559021473750781,0.0203868981630784,-0.02102578256105084,176.69776443171824,0.6013605114281356,-67.59597361689822,-0.04910693289996285,-0.01076641255677742,-0.0880927014676106,-0.03726527061462402,0.6998025555419922,-8.991717533302307
2026-09-11T19:21:15.709,3.709008735999987,-253.7867431640625,-22840.806884765625,-91363.2275390625,-173.8439190673828,-3.671527252197266,-2.9178507328033447,-1.9987277519702913,-4.471026646318649,0.5078314324362311,0.0,-0.06175422668457031,-505.890625,-22.231521606445312,0.2288818508386612,82.39746630191803,1480.178309575379,1,1789168874.8147504,38.990216165,-76.93882214833333,-11.009000000000004,0,1,8.7025,8.678916000000001,60.07800100000001,1,1,1789168875.7038047,-0.8313668228456765,0.5550694463450336,0.019744137368117483,-0.018365310922823754,176.9929165889356,0.7128463888292096,-67.47752519779836,0.01691957083468343,-0.05559571799302737,-0.06398097785130893,0.45787249605178837,-0.4380630627250672,-8.762241919517516
2026-09-11T19:21:15.743,3.7424090880001586,-253.88201904296875,-22849.381713867188,-91397.52685546875,-173.9091830444336,-3.736791229248047,-2.866457939147949,-1.9635236883163454,-4.392277398703345,1.0540027737960693,0.0,-0.05587005615234375,-457.6875,-20.11322021484375,0.2441406548023224,87.89063572883606,164.46441722799256,1,1789168874.8147504,38.990216165,-76.93882214833333,-11.009000000000004,0,1,8.7025,8.678916000000001,60.07800100000001,1,1,1789168875.7358048,-0.8314999717704389,0.5548228484736948,0.021938626491806095,-0.01726558498712884,176.9581860027956,0.9927135161205028,-67.45318659526085,-0.07192501847468633,-0.086979879536539,-0.05111144354587834,-0.40854504573822026,0.3517645413017273,-8.207381653366088
2026-09-11T19:21:15.777,3.7758183680000457,-253.9798126220703,-22858.183135986328,-91432.73254394531,-173.9761716461182,-3.8037798309326174,-2.8936617374420166,-1.9821582901477814,-4.433961815828067,-0.5577672380697533,0.0,-0.05172538757324219,-423.734375,-18.621139526367188,0.10681155323982239,38.45215916633606,-1479.7827598399936,1,1789168875.7498262,38.99021526833333,-76.93883326666666,-10.940000000000001,0,1,7.896100000000001,8.573184,56.71596099999999,1,1,1789168875.7758048,-0.8317088613757835,0.5545535503277129,0.022681560022048696,-0.014706344307559028,177.15521554366396,1.227254734492095,-67.41833316319403,-0.013304295822102375,-0.1046181769571937,-0.038431801063064736,-0.27566493604660036,-0.104735023727417,-9.745750864238738
2026-09-11T19:21:15.810,3.809219136000138,-254.0724334716797,-22866.519012451172,-91466.07604980469,-174.0396169281006,-3.8672251129150395,-2.7902300357818604,-1.9113075745105745,-4.275473278701173,2.121230135696615,0.0,-0.0477294921875,-391.0,-17.1826171875,0.12207034230232239,43.94532322883606,164.4622082487691,1,1789168875.7498262,38.99021526833333,-76.93883326666666,-10.940000000000001,0,1,7.896100000000001,8.573184,56.71596099999999,1,1,1789168875.8038046,-0.83187796057895,0.5543121289329161,0.02374574860031158,-0.012379896779691037,177.30967122395228,1.4773907676836777,-67.38877309022088,0.03394438502326212,-0.12781552257837553,-0.03849812357464052,-0.1533760085296631,1.149829731464386,-8.341732760581971
2026-09-11T19:21:15.842,3.842618848000029,-254.16949462890625,-22875.254516601562,-91501.01806640625,-174.1061038208008,-3.933712005615235,-2.895855188369751,-1.9836608040332795,-4.437322843667854,-2.1662830363010492,0.0,-0.04303741455078125,-352.5625,-15.49346923828125,0.04577639698982239,16.47950291633606,-822.3370402891334,1,1789168875.7498262,38.99021526833333,-76.93883326666666,-10.940000000000001,0,1,7.896100000000001,8.573184,56.71596099999999,1,1,1789168875.8358047,-0.8318578614203357,0.5543612214766931,0.023717457722576284,-0.011559269666890833,177.3896419205977,1.5267170196548474,-67.3948261747038,0.03873060143100617,-0.13869747593163498,-0.04686435934407534,-0.25634583522796633,0.5182814610481262,-9.444784770774842
2026-09-11T19:21:15.876,3.876027168000064,-254.26266479492188,-22883.63983154297,-91534.55932617188,-174.1699253845215,-3.9975335693359377,-2.7670204639434814,-1.895409017801285,-4.239909220206878,2.641611018809146,0.0,-0.04231071472167969,-346.609375,-15.231857299804688,0.01525880303233862,5.493169091641903,-328.85023325574707,1,1789168875.7498262,38.99021526833333,-76.93883326666666,-10.940000000000001,0,1,7.896100000000001,8.573184,56.71596099999999,1,1,1789168875.8638046,-0.8320268746691175,0.5541265626115764,0.02436558207870358,-0.009019470416006039,177.59104934948093,1.7506459518669606,-67.36372256333186,0.12472751153282197,-0.09345749452239077,-0.03712681838134858,-1.0603930819892884,-0.7787460893440246,-5.058662419433594
2026-09-11T19:21:15.910,3.909462048000023,-254.36163330078125,-22892.546997070312,-91570.18798828125,-174.23771881103517,-4.06532699584961,-2.898526191711426,-1.9854904413223269,-4.44141562572102,-2.69423498816663,0.0,-0.041717529296875,-341.75,-15.018310546875,0.0,0.0,-164.29456578425467,1,1789168875.7498262,38.99021526833333,-76.93883326666666,-10.940000000000001,0,1,7.896100000000001,8.573184,56.71596099999999,1,1,1789168875.9038048,-0.8321406668014971,0.5537627495279469,0.028259040232053282,-0.009494974226979393,177.2985719167592,2.092624442463305,-67.33431357792001,0.02156685903396873,-0.13710119779776098,-0.04111576838678162,-0.5274997122001648,-0.4010919916152954,0.6415510535812379
2026-09-11T19:21:15.943,3.942867967999973,-254.4564208984375,-22901.077880859375,-91604.3115234375,-174.3026483154297,-4.130256500244141,-2.9263322353363037,-2.0045375812053683,-4.484022864185232,-0.5701725886630227,0.0,-0.04315185546875,-353.5,-15.53466796875,0.0,0.0,0.0,1,1789168875.7498262,38.99021526833333,-76.93883326666666,-10.940000000000001,0,1,7.896100000000001,8.573184,56.71596099999999,1,1,1789168875.9358046,-0.8324026926219225,0.5532889454384929,0.02949842312280769,-0.010341334759186898,177.14009595376677,2.158592881893465,-67.27699176303513,-0.23481502676699031,0.019516271695800596,-0.03294239149969217,-2.9009051843452456,4.1596867991065976,-14.838736559238434
2026-09-11T19:21:15.976,3.9762728000000607,-254.5558319091797,-22910.024871826172,-91640.09948730469,-174.3707448577881,-4.198353042602539,-2.9802088737487793,-2.041443078517914,-4.566578110499981,-1.1047951779086669,0.0,-0.04396820068359375,-360.1875,-15.82855224609375,-0.1068115383386612,-38.45215380191803,-1151.095560121881,1,1789168875.7498262,38.99021526833333,-76.93883326666666,-10.940000000000001,0,1,7.896100000000001,8.573184,56.71596099999999,1,1,1789168875.9638047,-0.8326585406481642,0.5529278458902622,0.02944653078967227,-0.009135302363720317,177.25946950780775,2.231402973602055,-67.2257695741877,0.14969898433865605,0.002208539635473625,-0.0576510177201759,-0.7069614101600648,1.6314343209075928,-8.211892712440491
2026-09-11T19:21:16.009,4.009678112000074,-254.65187072753906,-22918.668365478516,-91674.67346191406,-174.43653144836426,-4.264139633178711,-2.903276205062866,-1.9887442004680635,-4.448694077639722,1.5775598219178197,0.0,-0.0424652099609375,-347.875,-15.2874755859375,-0.0762939527630806,-27.465822994709015,328.87975442961203,1,1789168875.7498262,38.99021526833333,-76.93883326666666,-10.940000000000001,0,1,7.896100000000001,8.573184,56.71596099999999,1,1,1789168876.0038047,-0.8330073116395409,0.5524944166418484,0.02791006383564878,-0.008352644571548537,177.43303229540425,2.1358507855952666,-67.15673450009169,0.08093179007960306,0.05205531760535687,-0.06973829545486263,-3.977675372104645,0.775902160797119,-11.013260397644043
2026-09-11T19:21:16.043,4.043085344000019,-254.74990844726562,-22927.491760253906,-91709.96704101562,-174.50368728637696,-4.331295471191407,-2.9054057598114014,-1.9902029454708101,-4.451957197277219,-0.043665545315127154,0.0,-0.04276275634765625,-350.3125,-15.39459228515625,-0.0305175818502903,-10.986329466104507,493.2911990024088,1,1789168875.7498262,38.99021526833333,-76.93883326666666,-10.940000000000001,0,1,7.896100000000001,8.573184,56.71596099999999,1,1,1789168876.0358047,-0.8331959353753993,0.5523198848362789,0.025677751372618393,-0.008242036932653872,177.58581368588162,1.9303571346247739,-67.12092927673054,-0.0007578219612159379,-0.046608843141583374,-0.03970205169266621,0.8273870741462708,-0.2858638522148132,-5.0716071976470944
2026-09-11T19:21:16.076,4.076504544000045,-254.84523010253906,-22936.070709228516,-91744.28283691406,-174.56898262023927,-4.3965908050537115,-2.854008197784424,-1.9549956154823305,-4.373200643079653,1.0535060680223503,0.0,-0.04302978515625,-352.5,-15.49072265625,0.0,0.0,328.74304190692914,1,1789168875.7498262,38.99021526833333,-76.93883326666666,-10.940000000000001,0,1,7.896100000000001,8.573184,56.71596099999999,1,1,1789168876.0758047,-0.8335162793642809,0.551853660797239,0.025643453564310328,-0.007110723500954681,177.69716954400346,2.000046880326826,-67.0556182723709,0.04917604793834183,-0.060852475167109094,-0.037047405900382836,1.008319769630432,-0.06609682209014893,-8.549535677509308
2026-09-11T19:21:16.110,4.109918048000054,-254.94317626953125,-22944.885864257812,-91779.54345703125,-174.63607574462893,-4.46368392944336,-2.9317147731781006,-2.0082246196269993,-4.492270534240777,-1.5930386751612207,0.0,-0.04308509826660156,-352.953125,-15.510635375976562,0.0305175818502903,10.986329466104507,328.79908273318125,1,1789168875.7498262,38.99021526833333,-76.93883326666666,-10.940000000000001,0,1,7.896100000000001,8.573184,56.71596099999999,1,1,1789168876.1038046,-0.8335827120756962,0.5517075494329993,0.026314913651845677,-0.008134331358954307,177.55711277769757,1.999786353519135,-67.03988846855694,-0.07615848910832376,-0.10236146623436504,-0.05260387458925869,-1.1319816281700135,0.754523663444519,-7.502675772743225
2026-09-11T19:21:16.143,4.143322399999988,-255.04025268554688,-22953.62274169922,-91814.49096679688,-174.7025730895996,-4.530181274414063,-2.9312121868133545,-2.007880347967148,-4.491500420470531,0.010306191835478809,0.0,-0.04496955871582031,-368.390625,-16.189041137695312,-0.0457763746380806,-16.479494869709015,-822.2229347801066,1,1789168875.7498262,38.99021526833333,-76.93883326666666,-10.940000000000001,0,1,7.896100000000001,8.573184,56.71596099999999,1,1,1789168876.1358047,-0.8339437756893118,0.5511840962519243,0.026179415050663256,-0.006964858620938154,177.67876053936808,2.0623188197136315,-66.96614941483178,0.015027982991371976,-0.04600251575944054,-0.04009928863042012,2.3155462361907957,1.3901907269287108,-12.550060544490814
2026-09-11T19:21:16.176,4.176727263999965,-255.13864135742188,-22962.47772216797,-91849.91088867188,-174.769969329834,-4.597577514648438,-2.957477569580078,-2.025872135162354,-4.531746902206406,-0.5385978280054804,0.0,-0.04638862609863281,-380.015625,-16.699905395507812,-0.0762939527630806,-27.465822994709015,-328.88408481494633,1,1789168875.7498262,38.99021526833333,-76.93883326666666,-10.940000000000001,0,1,7.896100000000001,8.573184,56.71596099999999,1,1,1789168876.1758046,-0.8337372366968504,0.5514992316281462,0.02589787050854446,-0.007753577354169771,177.62044626503172,1.9846559317493573,-67.0087781208694,-0.0026164230816646994,-0.06477039027198596,-0.06388987166435484,1.8243311295890807,0.4783683948898315,-6.556137899131775
2026-09-11T19:21:16.210,4.210145600000033,-255.2379150390625,-22971.412353515625,-91885.6494140625,-174.83797180175782,-4.665579986572266,-2.9061474800109863,-1.9907110238075258,-4.453093736147825,1.0521502732738262,0.0,-0.0482940673828125,-395.625,-17.3858642578125,-0.045776382088661194,-16.47949755191803,328.75142085975347,1,1789168875.7498262,38.99021526833333,-76.93883326666666,-10.940000000000001,0,1,7.896100000000001,8.573184,56.71596099999999,1,1,1789168876.2038047,-0.8342191702814,0.5508494639250822,0.024549858068797833,-0.0063677701956084565,177.8398668005875,1.9452536464086272,-66.91163417133187,-0.03274743822224441,0.019128634068932653,-0.09912213514266356,-2.2975019998931883,-1.8402179028511048,-13.090799234409332
2026-09-11T19:21:16.243,4.243563647999963,-255.3290557861328,-22979.615020751953,-91918.46008300781,-174.900403213501,-4.72801139831543,-2.75083589553833,-1.8843225884437562,-4.215109584027725,3.1835622285296594,0.0,-0.05901145935058594,-483.421875,-21.244125366210938,-0.22888189554214478,-82.39748239517212,-1972.5264875851317,1,1789168875.7498262,38.99021526833333,-76.93883326666666,-10.940000000000001,0,1,7.896100000000001,8.573184,56.71596099999999,1,1,1789168876.2358048,-0.8351415540229856,0.549495453265033,0.024077255204891856,-0.0036901716663127,178.12920871158013,2.072288224870488,-66.72101972355765,0.09862611256924676,0.05094284474013569,-0.1175472269901173,2.0866590214157106,-1.5950516488075255,-5.701978670043945
2026-09-11T19:21:16.277,4.276990144000138,-255.4200439453125,-22987.803955078125,-91951.2158203125,-174.96273010253907,-4.790338287353516,-2.7263174057006836,-1.8675274229049683,-4.177539868702949,0.5024506768133921,0.0,-0.06461143493652344,-529.296875,-23.260116577148438,-0.07629400491714478,-27.46584177017212,1643.356235266567,1,1789168875.7498262,38.99021526833333,-76.93883326666666,-10.940000000000001,0,1,7.896100000000001,8.573184,56.71596099999999,1,1,1789168876.2758048,-0.8362875248220214,0.5478468972016736,0.022066909999160958,-6.735461998798863e-05,178.60713258901922,2.11095400264645,-66.48279386749095,0.137703336389699,0.047112545163708934,-0.11547168144364564,-1.0266582054328919,-1.3682238305664063,-6.558197295665741
2026-09-11T19:21:16.310,4.310394591999966,-255.5045166015625,-22995.406494140625,-91981.6259765625,-175.02059387207032,-4.848202056884766,-2.572143793106079,-1.7619184982776643,-3.941299432439295,3.1615228195911724,0.0,-0.06621932983398438,-542.46875,-23.838958740234375,-0.0915527492761612,-32.95898973941803,-164.44360850609294,1,1789168875.7498262,38.99021526833333,-76.93883326666666,-10.940000000000001,0,1,7.896100000000001,8.573184,56.71596099999999,1,1,1789168876.3038046,-0.8375248982675565,0.5459861813257126,0.02115007768845502,0.0019516139621415867,178.86316290855095,2.152452191708573,-66.22237200270293,-0.05042116582671459,0.009438740594785333,-0.1663647843000995,6.16073376461029,-5.5124161224174495,-8.264064091300964
2026-09-11T19:21:16.344,4.343801952000149,-255.58489990234375,-23002.640991210938,-92010.56396484375,-175.07565643310548,-4.903264617919922,-2.4429068565368652,-1.6733911967277528,-3.743269498764654,2.6499340728937177,0.0,-0.06778335571289062,-555.28125,-24.402008056640625,-0.0762939602136612,-27.46582567691803,164.42975627137002,1,1789168875.7498262,38.99021526833333,-76.93883326666666,-10.940000000000001,0,1,7.896100000000001,8.573184,56.71596099999999,1,1,1789168876.3358047,-0.8389259229369803,0.5439226777843545,0.018745775269855745,-0.00011102146214311079,178.82026010939435,1.7954771585520362,-65.93368983294913,-0.05300756924524499,0.02787657334577863,-0.15547078817500126,2.115490572891235,0.019907499828338625,-5.506826331825256
2026-09-11T19:21:16.377,4.377219136000122,-255.66436767578125,-23009.793090820312,-92039.17236328125,-175.13009185791017,-4.95770004272461,-2.3916406631469727,-1.6382738542556763,-3.6647142409083626,1.050876772624088,0.0,-0.066680908203125,-546.25,-24.005126953125,0.1983642727136612,71.41113817691803,2958.8658294462234,1,1789168875.7498262,38.99021526833333,-76.93883326666666,-10.940000000000001,0,1,7.896100000000001,8.573184,56.71596099999999,1,1,1789168876.3758047,-0.8407422961769732,0.5411798467914213,0.01660696676980211,0.0009866613356859853,179.06474713051168,1.6613681517393533,-65.55175305294665,0.025735577952357185,0.022882313691196855,-0.08094104032463863,1.7101817217063904,-1.5666123633384705,-6.446989882831574
2026-09-11T19:21:16.410,4.410644032000164,-255.7395477294922,-23016.559295654297,-92066.23718261719,-175.18159019470215,-5.009198379516602,-2.2370378971099854,-1.53237095952034,-3.4278162122412725,3.1683836723142607,0.0,-0.06472587585449219,-530.234375,-23.301315307617188,0.0915527492761612,32.95898973941803,-1150.4044302023067,1,1789168875.7498262,38.99021526833333,-76.93883326666666,-10.940000000000001,0,1,7.896100000000001,8.573184,56.71596099999999,1,1,1789168876.4038048,-0.8415019720225348,0.5400239221621523,0.015751741885440446,0.0006907983535090972,179.09148524295293,1.561866617108514,-65.39205952553971,0.11268700862208868,0.1435549017728604,-0.1295542195792123,1.3432168726539613,-2.653875666770935,-12.708045678596497
2026-09-11T19:21:16.443,4.444049824000103,-255.81146240234375,-23023.031616210938,-92092.12646484375,-175.2308517456055,-5.0584599304199225,-2.159543514251709,-1.4792873072624209,-3.3090714639907373,1.5890553427984973,0.0,-0.056766510009765625,-465.03125,-20.435943603515625,0.15258795022964478,54.93166208267212,657.7503788353187,1,1789168875.7498262,38.99021526833333,-76.93883326666666,-10.940000000000001,0,1,7.896100000000001,8.573184,56.71596099999999,1,1,1789168876.4358046,-0.8419479374136561,0.5393611257169393,0.014542357332950026,0.0013291325918373086,179.2291442950875,1.4853635313219982,-65.29813702942543,0.09004240877501345,0.048408452133314725,-0.05273582148070946,-3.376625783691406,1.128941566619873,-7.2817319445991515
2026-09-11T19:21:16.477,4.477454944000101,-255.88278198242188,-23029.45037841797,-92117.80151367188,-175.279705657959,-5.107313842773438,-2.133769989013672,-1.4616324424743654,-3.269578656215023,0.5285077493526951,0.0,-0.05017280578613281,-411.015625,-18.062210083007812,0.2899170219898224,104.37012791633606,1479.9667186846643,1,1789168875.7498262,38.99021526833333,-76.93883326666666,-10.940000000000001,0,1,7.896100000000001,8.573184,56.71596099999999,1,1,1789168876.4758048,-0.842527237564034,0.538461990059771,0.013904421718547024,0.003634044614663531,179.49271072472615,1.5668508492992264,-65.17250229014218,0.0624506731631603,0.11482800401551013,-0.04196574373250285,-3.596294747314453,0.10738281927108764,-9.452433957901
2026-09-11T19:21:16.510,4.510860352000009,-255.94937133789062,-23035.443420410156,-92141.77368164062,-175.3253193664551,-5.152927551269531,-1.9786704778671265,-1.3553892773389817,-3.0319194643409544,3.180418126779862,0.0,-0.04583168029785156,-375.453125,-16.499404907226562,0.1831054836511612,65.91797411441803,-1151.0757121129668,1,1789168875.7498262,38.99021526833333,-76.93883326666666,-10.940000000000001,0,1,7.896100000000001,8.573184,56.71596099999999,1,1,1789168876.5038047,-0.8428273358099068,0.5380071693434203,0.013141774736882267,0.004202559151278506,179.59553505076576,1.528518023174312,-65.10852013207096,0.09917816021165257,-0.024823643418190152,-0.04653222318742082,7.230835430259704,0.5853589481544494,-9.652391554698944
2026-09-11T19:21:16.544,4.544280864000029,-256.0182189941406,-23041.639709472656,-92166.55883789062,-175.37248001098635,-5.200088195800782,-2.0061330795288086,-1.374201159477234,-3.074000446217861,-0.5628843190146445,0.0,-0.04633903503417969,-379.609375,-16.682052612304688,-0.030517585575580597,-10.986330807209015,-2301.110914206809,1,1789168875.7498262,38.99021526833333,-76.93883326666666,-10.940000000000001,0,1,7.896100000000001,8.573184,56.71596099999999,1,1,1789168876.5358047,-0.8431699831202512,0.537499985334732,0.011661242838718637,0.004707520113045279,179.73650939861258,1.4168056713619186,-65.03626157002434,0.04137652057702957,-0.03128956469805354,-0.025443409835573336,0.5142607344818115,-0.5576061281967163,-9.392024992904663
2026-09-11T19:21:16.577,4.577688256000101,-256.0850524902344,-23047.654724121094,-92190.61889648438,-175.41826095581055,-5.245869140625,-1.9810277223587036,-1.357003989815712,-3.0355314732813854,0.5147713913580877,0.0,-0.04596900939941406,-376.578125,-16.548843383789062,-0.1220703199505806,-43.945315182209015,-986.5775926157014,1,1789168875.7498262,38.99021526833333,-76.93883326666666,-10.940000000000001,0,1,7.896100000000001,8.573184,56.71596099999999,1,1,1789168876.5758047,-0.843765968878255,0.5365837172509182,0.010655359647033054,0.004833989544740947,179.81216385796446,1.3276012644685318,-64.90992288400666,0.010851410091349543,0.006259623362277663,-0.07115620093918282,-2.2149300055313113,-0.619093824710846,-5.0533668283462525
2026-09-11T19:21:16.610,4.611096640000142,-256.1498107910156,-23053.482971191406,-92213.93188476562,-175.46262039184572,-5.290228576660157,-1.930942416191101,-1.3226955550909043,-2.9587856905218834,1.0269408638492157,0.0,-0.05016899108886719,-410.984375,-18.060836791992188,-0.2593994438648224,-93.38379979133606,-1479.822687893775,1,1789168875.7498262,38.99021526833333,-76.93883326666666,-10.940000000000001,0,1,7.896100000000001,8.573184,56.71596099999999,1,1,1789168876.6038046,-0.8440903265308641,0.5361108582217399,0.008699978495808199,0.004580254134969319,179.90853778860537,1.1229650850845427,-64.84297116531702,0.015181397432622276,0.05117863872208012,-0.008175820348042238,6.674994499092103,0.22006122962951663,-9.773013351688384
2026-09-11T19:21:16.644,4.644503296000039,-256.2207336425781,-23059.86602783203,-92239.46411132812,-175.51120254516604,-5.3388107299804695,-2.11488938331604,-1.4486992275714876,-3.2406478784258366,-3.7718133919471173,0.0,-0.05471992492675781,-448.265625,-19.699172973632812,0.0,0.0,2795.365085078346,1,1789168875.7498262,38.99021526833333,-76.93883326666666,-10.940000000000001,0,1,7.896100000000001,8.573184,56.71596099999999,1,1,1789168876.6358047,-0.8443291616827967,0.5357360982209795,0.00898692153651988,0.00378616379509892,179.8145734511024,1.1020152751032934,-64.79293179059417,-0.027816010420734425,0.0807389311972577,-0.047339787032318593,-2.148833183441162,1.5063014648437498,-13.480221312332153
2026-09-11T19:21:16.678,4.677908959999968,-256.28887939453125,-23065.999145507812,-92263.99658203125,-175.55788238525392,-5.3854905700683595,-2.090445041656494,-1.4319548535346986,-3.20319178045521,0.5012435626732216,0.0,-0.05408477783203125,-443.0625,-19.47052001953125,-0.03051757998764515,-10.986328795552254,-328.87622876095566,1,1789168875.7498262,38.99021526833333,-76.93883326666666,-10.940000000000001,0,1,7.896100000000001,8.573184,56.71596099999999,1,1,1789168876.6758046,-0.8448403839185695,0.5349269624147817,0.00954594732651114,0.002597204585341233,179.66622934008635,1.0834265208080733,-64.68462303195794,0.0498638821965528,0.0785440051299496,-0.06473670541742248,-2.9851443092346193,1.2674114669036864,-7.059611318435668
2026-09-11T19:21:16.711,4.711327520000168,-256.360107421875,-23072.40966796875,-92289.638671875,-175.6066735839844,-5.4342817687988285,-2.1431736946105957,-1.4680739808082581,-3.2839879670907672,-1.0808104021640415,0.0,-0.05315399169921875,-435.4375,-19.13543701171875,0.045776382088661194,16.47949755191803,821.8734244475459,1,1789168875.7498262,38.99021526833333,-76.93883326666666,-10.940000000000001,0,1,7.896100000000001,8.573184,56.71596099999999,1,1,1789168876.7038047,-0.8450829253995739,0.5345175366175731,0.011057535122657029,0.001892924560371468,179.5059102305089,1.1868335028210673,-64.6320741821151,0.0023710297888342967,0.06905499905270684,-0.022240381592313344,-1.1624803101730348,-0.0675678196144104,-9.290918429737092
