timestamp,time_s,drive_pos_turns,drive_encoder_count,drive_wheel_angle_deg,drive_distance_m,drive_distance_since_start_m,drive_velocity_turns_s,drive_velocity_mps,drive_velocity_mph,drive_acceleration_mps2,drive_iq_A,steer_pos_turns,steer_encoder_count,steer_angle_deg,steer_velocity_turns_s,steer_velocity_deg_s,steer_acceleration_deg_s2,gps_received,gps_ros_stamp_s,gps_latitude_deg,gps_longitude_deg,gps_altitude_m,gps_status,gps_service,gps_cov_x_m2,gps_cov_y_m2,gps_cov_z_m2,gps_covariance_type,imu_received,imu_ros_stamp_s,imu_qx,imu_qy,imu_qz,imu_qw,imu_roll_deg,imu_pitch_deg,imu_yaw_deg,imu_gyro_x_rad_s,imu_gyro_y_rad_s,imu_gyro_z_rad_s,imu_accel_x_mps2,imu_accel_y_mps2,imu_accel_z_mps2
2026-09-11T19:08:10.501,3.295999999863852e-05,-356.3018493652344,-32067.166442871094,-128268.66577148438,-244.06676681518556,0.0,0.0,0.0,0.0,0.0,0.0,0.1256408989429474,1029.250244140625,45.23072361946106,0.0,0.0,0.0,1,1789168089.8363364,38.990290783333336,-76.94090590166667,-9.788999999999998,0,1,8.094025,4.977360999999999,34.739236,1,1,1789168090.4965377,0.6996610584509086,-0.7101954486186791,-0.06002178948714783,0.0499420948241834,171.074347636893,0.7478755818865119,-90.91457921132599,2.1642082724729685e-05,-0.016575740972040547,-0.0010224138758182782,-0.10444082422256469,1.0843213083839416,-9.653568352718354
2026-09-11T19:08:10.534,0.03346262399998068,-356.3018493652344,-32067.166442871094,-128268.66577148438,-244.06676681518556,0.0,0.0,0.0,0.0,0.0,0.0,0.1256408989429474,1029.250244140625,45.23072361946106,0.0,0.0,0.0,1,1789168089.8363364,38.990290783333336,-76.94090590166667,-9.788999999999998,0,1,8.094025,4.977360999999999,34.739236,1,1,1789168090.5245376,0.7002957107593775,-0.709563681831925,-0.06020774753995084,0.049802871938336615,171.07100120177302,0.7821023021913637,-90.81434408242775,0.001659284519871009,-0.01933650278284518,-0.0005162683927399227,-0.09787036861419678,1.0736320597076416,-9.657098746776581
2026-09-11T19:08:10.568,0.06687619199999517,-356.3018493652344,-32067.166442871094,-128268.66577148438,-244.06676681518556,0.0,0.0,0.0,0.0,0.0,0.0,0.1256408989429474,1029.250244140625,45.23072361946106,0.0,0.0,0.0,1,1789168089.8363364,38.990290783333336,-76.94090590166667,-9.788999999999998,0,1,8.094025,4.977360999999999,34.739236,1,1,1789168090.5645375,0.7011882962613268,-0.708694417767075,-0.06032189761178483,0.049481957120124063,171.08853268392235,0.8284595852400766,-90.67463036446902,-0.0008171631557837452,-0.0267480434514391,-0.0012250466019748199,-0.10296982669830324,1.0485270352935792,-9.659648475818635
2026-09-11T19:08:10.601,0.100290847999986,-356.3018493652344,-32067.166442871094,-128268.66577148438,-244.06676681518556,0.0,0.0,0.0,0.0,0.0,0.0,0.1256408989429474,1029.250244140625,45.23072361946106,0.0,0.0,0.0,1,1789168089.8363364,38.990290783333336,-76.94090590166667,-9.788999999999998,0,1,8.094025,4.977360999999999,34.739236,1,1,1789168090.5965376,0.7019076462843746,-0.7080095394459998,-0.06044029214089049,0.04893995532197004,171.12345620407504,0.8908188703926468,-90.56507536204359,0.0006723008278682157,-0.02632689550293287,-0.00017191493132144144,-0.12022953098297119,1.0223432793617249,-9.651607022686004
2026-09-11T19:08:10.635,0.13371267200000148,-356.3018493652344,-32067.166442871094,-128268.66577148438,-244.06676681518556,0.0,0.0,0.0,0.0,0.0,0.0,0.1256408989429474,1029.250244140625,45.23072361946106,0.0,0.0,0.0,1,1789168089.8363364,38.990290783333336,-76.94090590166667,-9.788999999999998,0,1,8.094025,4.977360999999999,34.739236,1,1,1789168090.6245375,0.7025296660917704,-0.7074129178345351,-0.060482365401264775,0.048589252075770216,171.14913563383072,0.9302941638762852,-90.46887861922536,0.002314830186920079,-0.01992886753097205,6.51007810993885e-05,-0.12287732652664184,1.0427411116981506,-9.66435566789627
2026-09-11T19:08:10.668,0.16712636799996972,-356.3018493652344,-32067.166442871094,-128268.66577148438,-244.06676681518556,0.0,0.0,0.0,0.0,0.0,0.0,0.1256408989429474,1029.250244140625,45.23072361946106,0.0,0.0,0.0,1,1789168089.8363364,38.990290783333336,-76.94090590166667,-9.788999999999998,0,1,8.094025,4.977360999999999,34.739236,1,1,1789168090.6565375,0.7032539186869227,-0.7066991982749248,-0.0605921553611386,0.04836072495070178,171.15960844855744,0.9666468733647764,-90.35473266234439,0.0006956882398449398,-0.014317459452885083,-0.0010805333399096894,-0.13562597173690796,1.052351628856659,-9.638564177970887
2026-09-11T19:08:10.702,0.2005337599999848,-356.3018493652344,-32067.166442871094,-128268.66577148438,-244.06676681518556,0.0,0.0,0.0,0.0,0.0,0.0,0.1256408989429474,1029.250244140625,45.23072361946106,0.0,0.0,0.0,1,1789168089.8363364,38.990290783333336,-76.94090590166667,-9.788999999999998,0,1,8.094025,4.977360999999999,34.739236,1,1,1789168090.6965375,0.704167091017831,-0.7058044638717758,-0.06073099165052803,0.04796366707524178,171.181690125308,1.0212706063954737,-90.21182162785472,0.0012709487613022706,-0.014427764261611124,-0.0003391174736624982,-0.1454326218986511,1.0316595970153808,-9.641702306022644
2026-09-11T19:08:10.736,0.23395702400000573,-356.3018493652344,-32067.166442871094,-128268.66577148438,-244.06676681518556,0.0,0.0,0.0,0.0,0.0,0.0,0.1256408989429474,1029.250244140625,45.23072361946106,0.0,0.0,0.0,1,1789168089.8363364,38.990290783333336,-76.94090590166667,-9.788999999999998,0,1,8.094025,4.977360999999999,34.739236,1,1,1789168090.7245376,0.7048019229581457,-0.7051910756815122,-0.06072416637823581,0.047669400996028115,171.2070039547835,1.052293061588639,-90.11253393649254,0.0009869836920027935,-0.010943738008780044,-0.0016479398797330461,-0.14896301595687866,1.0355822570800781,-9.646997897109985
2026-09-11T19:08:10.769,0.2673700479999752,-356.3018493652344,-32067.166442871094,-128268.66577148438,-244.06676681518556,0.0,0.0,0.0,0.0,0.0,0.0,0.1256408989429474,1029.250244140625,45.23072361946106,0.0,0.0,0.0,1,1789168089.8363364,38.990290783333336,-76.94090590166667,-9.788999999999998,0,1,8.094025,4.977360999999999,34.739236,1,1,1789168090.7645376,0.7056740782089574,-0.7043693686842045,-0.06056177562056931,0.04711856467505541,171.26618960715484,1.094186888584372,-89.97752864615866,0.0013234831717873,-0.01732535988577211,0.001525417766243044,-0.16220199367523191,0.9936097943878173,-9.65827554479599
2026-09-11T19:08:10.802,0.30078505599999517,-356.3018493652344,-32067.166442871094,-128268.66577148438,-244.06676681518556,0.0,0.0,0.0,0.0,0.0,0.0,0.1257629692554474,1030.250244140625,45.27466893196106,0.0,0.0,0.0,1,1789168089.8363364,38.990290783333336,-76.94090590166667,-9.788999999999998,0,1,8.094025,4.977360999999999,34.739236,1,1,1789168090.7965376,0.7063682532082733,-0.7037113303199172,-0.06051804471115411,0.04660279716072654,171.31269078821276,1.1406176321014851,-89.87072303504573,0.0011496483782886648,-0.02159705323002823,0.0017957692673769656,-0.15210114400863647,0.9824302132034303,-9.664649867401122
2026-09-11T19:08:10.835,0.33419561599998815,-356.3018493652344,-32067.166442871094,-128268.66577148438,-244.06676681518556,0.0,0.0,0.0,0.0,0.0,0.0,0.12612155079841614,1033.187744140625,45.40375828742981,0.015258789993822575,5.493164397776127,164.41401753748755,1,1789168090.8259902,38.990290701666666,-76.94090578833334,-9.764,0,1,11.168964,5.3824,35.928036,1,1,1789168090.8245375,0.7069698377856091,-0.7031328254414809,-0.06054441619269673,0.04617631336470056,171.34617138704536,1.1843874701276071,-89.77780437954831,0.0015554374293773466,-0.022860497075546927,0.0031126201880066874,-0.1679879172706604,0.97556555809021,-9.642682971038818
2026-09-11T19:08:10.868,0.36760492799999156,-356.3018493652344,-32067.166442871094,-128268.66577148438,-244.06676681518556,0.0,0.0,0.0,0.0,0.0,0.0,0.1267242729663849,1038.125244140625,45.62073826789856,0.0457763709127903,16.479493528604507,328.8403284337989,1,1789168090.8259902,38.990290701666666,-76.94090578833334,-9.764,0,1,11.168964,5.3824,35.928036,1,1,1789168090.8645375,0.7078080862928262,-0.7023406231351722,-0.06047749102742665,0.04547345546153666,171.4101693926587,1.2455481653045635,-89.64925076377935,0.0026380651643894294,-0.02311863127191689,0.004310614186575595,-0.16377105770111083,0.9700738339996338,-9.666218931427002
2026-09-11T19:08:10.903,0.40101830399999017,-356.3018493652344,-32067.166442871094,-128268.66577148438,-244.06676681518556,0.0,0.0,0.0,0.0,0.0,0.0,0.12770846486091614,1046.187744140625,45.97504734992981,0.0305175818502903,10.986329466104507,-164.40015108022095,1,1789168090.8259902,38.990290701666666,-76.94090578833334,-9.764,0,1,11.168964,5.3824,35.928036,1,1,1789168090.8965375,0.7084539868730708,-0.7017306636111023,-0.06030566237728045,0.04505831018591719,171.45901849747926,1.272642649887245,-89.54870234215034,0.0029070204021217553,-0.01398253076942737,0.0038875463758921694,-0.15357214153289794,0.9777230211257935,-9.655431616249084
2026-09-11T19:08:10.936,0.43444217600000457,-356.3018493652344,-32067.166442871094,-128268.66577148438,-244.06676681518556,0.0,0.0,0.0,0.0,0.0,0.0,0.1283760368824005,1051.656494140625,46.215373277664185,0.03051757998764515,10.986328795552254,-2.006207580387023e-05,1,1789168090.8259902,38.990290701666666,-76.94090578833334,-9.764,0,1,11.168964,5.3824,35.928036,1,1,1789168090.9245377,0.7090281984249919,-0.7011818310984897,-0.06003533722889631,0.044931190273484446,171.49228706902556,1.26769379362009,-89.45671804402892,0.0002129301687433082,-0.0072773248491155565,0.00043929937272697275,-0.13797956777572631,0.9930213953781128,-9.653862552223206
2026-09-11T19:08:10.969,0.46785731199997826,-356.3018493652344,-32067.166442871094,-128268.66577148438,-244.06676681518556,0.0,0.0,0.0,0.0,0.0,0.0,0.1314850151538849,1077.125244140625,47.33460545539856,0.2899170219898224,104.37012791633606,2794.6556650512302,1,1789168090.8259902,38.990290701666666,-76.94090578833334,-9.764,0,1,11.168964,5.3824,35.928036,1,1,1789168090.9645376,0.7097177627998175,-0.7004614942759093,-0.05994985001496398,0.04539171385138343,171.4628838493531,1.2322207533630298,-89.33981851923693,-0.0025038493449110653,0.03102916157365599,0.01370572155006107,-2.221598527641296,1.0897149659729004,-10.081628632278443
2026-09-11T19:08:11.003,0.5012798079999925,-356.3018493652344,-32067.166442871094,-128268.66577148438,-244.06676681518556,0.0,0.0,0.0,0.0,0.0,0.0,0.1338196098804474,1096.250244140625,48.17505955696106,0.0,0.0,-3122.750853685243,1,1789168090.8259902,38.990290701666666,-76.94090578833334,-9.764,0,1,11.168964,5.3824,35.928036,1,1,1789168090.9965377,0.7097797493062784,-0.7003055798795387,-0.05903741246906103,0.047951915428454846,171.3278718057341,0.9537398435116022,-89.30240411891543,-0.005952794479777059,0.04859171170477413,0.01706059343824457,0.6239971497917176,1.3583191139030455,-9.706916529598235
2026-09-11T19:08:11.037,0.5346999039999787,-356.3018493652344,-32067.166442871094,-128268.66577148438,-244.06676681518556,0.0,0.0,0.0,0.0,0.0,0.0,0.1338196098804474,1096.250244140625,48.17505955696106,0.0,0.0,0.0,1,1789168090.8259902,38.990290701666666,-76.94090578833334,-9.764,0,1,11.168964,5.3824,35.928036,1,1,1789168091.0245376,0.710169867488982,-0.6999221025368483,-0.05728581520828451,0.04986125817708553,171.31388608125394,0.6627737565047543,-89.21756255658751,-0.008843408786930069,0.05540879323013878,-0.006630854894176856,-0.01863263530731201,0.9572271222877503,-9.493033489570617
2026-09-11T19:08:11.070,0.5681138559999681,-356.3018493652344,-32067.166442871094,-128268.66577148438,-244.06676681518556,0.0,0.0,0.0,0.0,0.0,0.0,0.1338196098804474,1096.250244140625,48.17505955696106,0.0,0.0,0.0,1,1789168090.8259902,38.990290701666666,-76.94090578833334,-9.764,0,1,11.168964,5.3824,35.928036,1,1,1789168091.0645375,0.7110588170504462,-0.6991398710403982,-0.056772270425807125,0.048741242568634255,171.4477614615434,0.7209692307042688,-89.08540800432999,0.004309566989024399,0.02161939344445376,0.009667204193871392,-0.10424469121932985,0.951735398197174,-9.589236727657317
2026-09-11T19:08:11.103,0.6015297600000054,-356.3018493652344,-32067.166442871094,-128268.66577148438,-244.06676681518556,0.0,0.0,0.0,0.0,0.0,0.0,0.13363459706306458,1094.734619140625,48.10845494270325,0.0,0.0,0.0,1,1789168090.8259902,38.990290701666666,-76.94090578833334,-9.764,0,1,11.168964,5.3824,35.928036,1,1,1789168091.0955377,0.7115631817539998,-0.6985763054169921,-0.056183488250658345,0.050123841932336266,171.38252815469622,0.5687012734183725,-88.9875313009264,0.0022359413047299357,0.01626419970055956,-0.0019795524376119687,0.015396440753936768,1.1916060611534118,-9.623461936721801
2026-09-11T19:08:11.136,0.6349593599999821,-356.3018493652344,-32067.166442871094,-128268.66577148438,-244.06676681518556,0.0,0.0,0.0,0.0,0.0,0.0,0.1328926384449005,1088.656494140625,47.841349840164185,-0.015258789993822575,-5.493164397776127,-164.32037469129,1,1789168090.8259902,38.990290701666666,-76.94090578833334,-9.764,0,1,11.168964,5.3824,35.928036,1,1,1789168091.1245375,0.7121878693565252,-0.6978647222803883,-0.057243045934130855,0.0499650060553615,171.3107553189616,0.675989896514308,-88.8873905608611,-0.0014477506145292962,0.016511687388492353,-0.007571412828076601,-0.26301435733795164,1.2020011103248596,-9.670926123504639
2026-09-11T19:08:11.172,0.6683723520000058,-356.3018493652344,-32067.166442871094,-128268.66577148438,-244.06676681518556,0.0,0.0,0.0,0.0,0.0,0.0,0.13265803456306458,1086.734619140625,47.75689244270325,0.0,0.0,164.40205048899045,1,1789168090.8259902,38.990290701666666,-76.94090578833334,-9.764,0,1,11.168964,5.3824,35.928036,1,1,1789168091.1645377,0.7130229234713739,-0.6970274373634476,-0.05675903966128438,0.05029387222723076,171.32349687688315,0.6204437735672875,-88.7472077230253,-0.0012007865253720988,0.01945029825007521,-0.0016004669240788003,0.04305119421005249,1.0168515552711488,-9.683184436206817
2026-09-11T19:08:11.204,0.7017863359999978,-356.3018493652344,-32067.166442871094,-128268.66577148438,-244.06676681518556,0.0,0.0,0.0,0.0,0.0,0.0,0.13224604725837708,1083.359619140625,47.60857701301575,-0.015258789993822575,-5.493164397776127,-164.39716969330658,1,1789168090.8259902,38.990290701666666,-76.94090578833334,-9.764,0,1,11.168964,5.3824,35.928036,1,1,1789168091.1955376,0.713707074075295,-0.6964127904005675,-0.05625799713851927,0.049663623904612486,171.41610671043642,0.6377550303083221,-88.64253634674314,-0.001156629695296642,0.005356066408520198,-0.0032812189937493396,-0.14023509731292724,0.9323182308769227,-9.643859769058228
2026-09-11T19:08:11.237,0.7352024639999968,-356.3018493652344,-32067.166442871094,-128268.66577148438,-244.06676681518556,0.0,0.0,0.0,0.0,0.0,0.0,0.13123515248298645,1075.078369140625,47.24465489387512,-0.0457763709127903,-16.479493528604507,-328.77325376622724,1,1789168090.8259902,38.990290701666666,-76.94090578833334,-9.764,0,1,11.168964,5.3824,35.928036,1,1,1789168091.2245376,0.7143253352664529,-0.6958778222410642,-0.05535913536300804,0.04928222845371106,171.52014850181826,0.6016193890634969,-88.54566294598429,-0.001287180323345818,-0.004849048260815846,-0.00792885625888504,0.08355265937805176,0.8932877632331848,-9.65680454727173
2026-09-11T19:08:11.271,0.768615039999986,-356.3018493652344,-32067.166442871094,-128268.66577148438,-244.06676681518556,0.0,0.0,0.0,0.0,0.0,0.0,0.12808993458747864,1049.312744140625,46.11237645149231,-0.0915527492761612,-32.95898973941803,-493.2123823921514,1,1789168090.8259902,38.990290701666666,-76.94090578833334,-9.764,0,1,11.168964,5.3824,35.928036,1,1,1789168091.2645376,0.7153002879319842,-0.6949374842341501,-0.0549029333918838,0.04891890223315682,171.58744681101814,0.6046541820388989,-88.38996657193549,0.00035604716740684323,-0.014176785915174342,-0.01368442853318674,-0.08414105838775636,1.013026961708069,-9.653176086711882
2026-09-11T19:08:11.303,0.8020291839999913,-356.3018493652344,-32067.166442871094,-128268.66577148438,-244.06676681518556,0.0,0.0,0.0,0.0,0.0,0.0,0.1252022087574005,1025.656494140625,45.072795152664185,-0.0762939602136612,-27.46582567691803,164.39637246128848,1,1789168090.8259902,38.990290701666666,-76.94090578833334,-9.764,0,1,11.168964,5.3824,35.928036,1,1,1789168091.2965376,0.7160972952558011,-0.6941043723651503,-0.055552758765051224,0.0483495086272732,171.58302795375485,0.7129583727112505,-88.26548546180285,-0.0012751375515070572,-0.02601203810587309,-0.012682609542541995,-0.15219921051025392,1.0320518630218505,-9.637485446453095
2026-09-11T19:08:11.337,0.8354474559999971,-356.3018493652344,-32067.166442871094,-128268.66577148438,-244.06676681518556,0.0,0.0,0.0,0.0,0.0,0.0,0.12361529469490051,1012.656494140625,44.501506090164185,-0.01525880303233862,-5.493169091641903,657.5042714737708,1,1789168090.8259902,38.990290701666666,-76.94090578833334,-9.764,0,1,11.168964,5.3824,35.928036,1,1,1789168091.3245375,0.7167477946429873,-0.6934394535876961,-0.05619879516485966,0.04749756314201309,171.60224744364552,0.8415537995605706,-88.16792525874264,0.000626049602690366,-0.03616060410744452,-0.007003308156552447,-0.2070183849143982,1.0039067770576477,-9.669651258983611
2026-09-11T19:08:11.370,0.8688552959999924,-356.3018493652344,-32067.166442871094,-128268.66577148438,-244.06676681518556,0.0,0.0,0.0,0.0,0.0,0.0,0.12350276112556458,1011.734619140625,44.46099400520325,0.0,0.0,164.42754430225585,1,1789168090.8259902,38.990290701666666,-76.94090578833334,-9.764,0,1,11.168964,5.3824,35.928036,1,1,1789168091.3645375,0.7175762599241096,-0.6926381983076474,-0.056661671326026175,0.046109569950328964,171.68076700413968,0.999497728026534,-88.0464800738069,0.0016200146117011367,-0.04359221606243637,-0.0012194615483684381,-0.15268954301834106,0.9556580582618713,-9.666905396938324
2026-09-11T19:08:11.404,0.9022682880000161,-356.3018493652344,-32067.166442871094,-128268.66577148438,-244.06676681518556,0.0,0.0,0.0,0.0,0.0,0.0,0.12350276112556458,1011.734619140625,44.46099400520325,0.0,0.0,0.0,1,1789168090.8259902,38.990290701666666,-76.94090578833334,-9.764,0,1,11.168964,5.3824,35.928036,1,1,1789168091.3965375,0.7182289733583789,-0.6919882159109935,-0.056884239732006535,0.045427240054851915,171.72025774803043,1.0796073907023573,-87.94611684155474,0.0006553711341238707,-0.04428109751819853,-0.0024523621319772326,-0.1109132133293152,0.9761539570999146,-9.672200988025665
2026-09-11T19:08:11.437,0.9356890880000037,-356.3018493652344,-32067.166442871094,-128268.66577148438,-244.06676681518556,0.0,0.0,0.0,0.0,0.0,0.0,0.12350276112556458,1011.734619140625,44.46099400520325,0.0,0.0,0.0,1,1789168090.8259902,38.990290701666666,-76.94090578833334,-9.764,0,1,11.168964,5.3824,35.928036,1,1,1789168091.4245377,0.7188125790241253,-0.6913959588919035,-0.057160375852122525,0.044864191702013945,171.7456412581148,1.153863312805874,-87.85570763654934,0.0032485813367370453,-0.03886115205905534,-0.0035000832819494284,-0.1813249614906311,0.9852741417503357,-9.63993710899353
2026-09-11T19:08:11.470,0.9691026240000156,-356.3018493652344,-32067.166442871094,-128268.66577148438,-244.06676681518556,0.0,0.0,0.0,0.0,0.0,0.0,0.12350276112556458,1011.734619140625,44.46099400520325,0.0,0.0,0.0,1,1789168090.8259902,38.990290701666666,-76.94090578833334,-9.764,0,1,11.168964,5.3824,35.928036,1,1,1789168091.4645376,0.7196509622824481,-0.6905317219298771,-0.05766099882777467,0.04408676341815972,171.77141993996625,1.2666246114622621,-87.72521840889549,0.0008588765249064095,-0.021609794133567794,-0.004113217448175036,-0.20329185785293577,1.0133211612129212,-9.647880495624541
2026-09-11T19:08:11.504,1.0025157119999903,-356.2755126953125,-32064.796142578125,-128259.1845703125,-244.0487261962891,0.018040618896484378,0.9469099640846252,0.6486333253979684,1.4509514258186462,19.412552512310686,0.0,0.12350276112556458,1011.734619140625,44.46099400520325,0.0,0.0,0.0,1,1789168090.8259902,38.990290701666666,-76.94090578833334,-9.764,0,1,11.168964,5.3824,35.928036,1,1,1789168091.4955375,0.720288561299616,-0.6898549574309992,-0.05798505623619168,0.04384357902919522,171.76690453964963,1.3202416569093014,-87.62230161784588,0.0015763813804012784,-0.012845797827603466,-0.001565734871964113,-0.19966339729309082,1.0308750650024414,-9.6532741532135
2026-09-11T19:08:11.537,1.0359357439999712,-356.26043701171875,-32063.439331054688,-128253.75732421875,-244.03839935302736,0.028367462158203127,0.3741844594478607,0.2563163547217846,0.573363356124249,-11.738976511943736,0.0,0.12350276112556458,1011.734619140625,44.46099400520325,0.0,0.0,0.0,1,1789168090.8259902,38.990290701666666,-76.94090578833334,-9.764,0,1,11.168964,5.3824,35.928036,1,1,1789168091.5245376,0.7208866609248328,-0.6892029946590139,-0.058298637231465375,0.0438511476548372,171.74247273389824,1.3528065813795442,-87.52330358135062,0.0025427701872305386,-0.005601459701350601,-0.0024975661596038858,-0.2050570548820496,1.0786334512901306,-9.652293488197326
2026-09-11T19:08:11.572,1.0693471679999789,-356.2607727050781,-32063.46954345703,-128253.87817382812,-244.03862930297853,0.028137512207031253,0.06178890913724899,0.042325402759015564,0.09467922950746134,-6.404724083676296,0.0,0.12350276112556458,1011.734619140625,44.46099400520325,0.0,0.0,0.0,1,1789168090.8259902,38.990290701666666,-76.94090578833334,-9.764,0,1,11.168964,5.3824,35.928036,1,1,1789168091.5645375,0.7216253758141119,-0.6883687352859574,-0.05871624344555053,0.044245949165954576,171.67801142970603,1.3653275729847665,-87.39703592571608,0.0008817403381075353,-0.002043431488234961,-0.001000946326018748,-0.2035860573577881,1.150025864467621,-9.636995113945007
2026-09-11T19:08:11.604,1.1027622080000015,-356.26080322265625,-32063.472290039062,-128253.88916015625,-244.03865020751954,0.028116607666015626,0.0,0.0,0.0,-1.2666572525122501,0.0,0.12350276112556458,1011.734619140625,44.46099400520325,0.0,0.0,0.0,1,1789168090.8259902,38.990290701666666,-76.94090578833334,-9.764,0,1,11.168964,5.3824,35.928036,1,1,1789168091.5965376,0.7221969927412131,-0.6877057720456659,-0.05915419668373929,0.044643653359961746,171.61137953406535,1.3774412710391233,-87.29826346859578,-0.0004972443038931845,0.01150887562057581,6.2482787221397e-05,-0.23114274431228637,1.160028647632599,-9.63081692434311
2026-09-11T19:08:11.638,1.1361823999999956,-356.26080322265625,-32063.472290039062,-128253.88916015625,-244.03865020751954,0.028116607666015626,0.0,0.0,0.0,0.0,0.0,0.12350276112556458,1011.734619140625,44.46099400520325,0.0,0.0,0.0,1,1789168090.8259902,38.990290701666666,-76.94090578833334,-9.764,0,1,11.168964,5.3824,35.928036,1,1,1789168091.6245375,0.7227185261857283,-0.687134900800932,-0.05932265337194519,0.04477033399623629,171.58853713915366,1.3878763527898534,-87.21047414356931,0.00039688787190351056,0.028142736056707765,0.0006159266930287989,-0.2590916972732544,1.1188407169532775,-9.665434399414062
2026-09-11T19:08:11.672,1.1696000960000106,-356.26080322265625,-32063.472290039062,-128253.88916015625,-244.03865020751954,0.028116607666015626,0.0,0.0,0.0,0.0,0.0,0.12350276112556458,1011.734619140625,44.46099400520325,0.0,0.0,0.0,1,1789168090.8259902,38.990290701666666,-76.94090578833334,-9.764,0,1,11.168964,5.3824,35.928036,1,1,1789168091.6645377,0.7234360013536555,-0.6864048382625786,-0.05857628775267713,0.04536042844013449,171.60007415033138,1.288183862991791,-87.08540839512479,-0.0026726226835789165,0.03777014674363369,0.0021544344286618003,-0.14798235094070433,1.0665712715911866,-9.651705089187622
2026-09-11T19:08:11.705,1.203016095999999,-356.26080322265625,-32063.472290039062,-128253.88916015625,-244.03865020751954,0.028116607666015626,0.0,0.0,0.0,0.0,0.0,0.12350276112556458,1011.734619140625,44.46099400520325,0.0,0.0,0.0,1,1789168090.8259902,38.990290701666666,-76.94090578833334,-9.764,0,1,11.168964,5.3824,35.928036,1,1,1789168091.6965375,0.7240314087517994,-0.685865404607027,-0.05762263479374032,0.04524155018952012,171.68655457857366,1.2251898153632517,-86.98780127891827,-0.0031087804636523,0.04405490284714007,0.0017596409518606832,-0.22888721477508545,0.9429094130516052,-9.636700914440155
2026-09-11T19:08:11.738,1.2364338559999624,-356.26080322265625,-32063.472290039062,-128253.88916015625,-244.03865020751954,0.028116607666015626,0.0,0.0,0.0,0.0,0.0,0.12350276112556458,1011.734619140625,44.46099400520325,0.0,0.0,0.0,1,1789168090.8259902,38.990290701666666,-76.94090578833334,-9.764,0,1,11.168964,5.3824,35.928036,1,1,1789168091.7365377,0.72476912854577,-0.6852371616758112,-0.05582999832404953,0.04519683454203445,171.83329595779577,1.0879184052872015,-86.86573626995856,-0.0027563984876746443,0.0543574068887374,0.0012648401089202907,-0.0654103565788269,0.9064286744499206,-9.66210013835907
2026-09-11T19:08:11.771,1.2698498560000075,-356.26080322265625,-32063.472290039062,-128253.88916015625,-244.03865020751954,0.028116607666015626,0.0,0.0,0.0,0.0,0.0,0.12350276112556458,1011.734619140625,44.46099400520325,0.0,0.0,0.0,1,1789168090.8259902,38.990290701666666,-76.94090578833334,-9.764,0,1,11.168964,5.3824,35.928036,1,1,1789168091.7645376,0.7253220879793711,-0.6847144750189322,-0.05477472438626492,0.04553774211796146,171.88908808484595,0.9796871106883001,-86.77025303978644,0.00015655603390389138,0.04340860742512657,-0.0012325515177583955,-0.12513285606384278,0.9736042280578613,-9.683968968219757
2026-09-11T19:08:11.804,1.3032659840000065,-356.26080322265625,-32063.472290039062,-128253.88916015625,-244.03865020751954,0.028116607666015626,0.0,0.0,0.0,0.0,0.0,0.12350276112556458,1011.734619140625,44.46099400520325,0.0,0.0,0.0,1,1789168090.8259902,38.990290701666666,-76.94090578833334,-9.764,0,1,11.168964,5.3824,35.928036,1,1,1789168091.7965376,0.7259229966427586,-0.6840765628975228,-0.05425461643243363,0.046168123584119584,171.87837817631876,0.8940959535320437,-86.66358797110924,0.0027890361446869386,0.028797234526205643,0.00035709436495803983,-0.06158576301574707,1.0947163575553893,-9.658765877304077
2026-09-11T19:08:11.839,1.3366779199999996,-356.26080322265625,-32063.472290039062,-128253.88916015625,-244.03865020751954,0.028116607666015626,0.0,0.0,0.0,0.0,0.0,0.12323382496833801,1009.531494140625,44.364176988601685,0.0,0.0,0.0,1,1789168091.830945,38.99029083333333,-76.940905715,-9.725999999999999,0,1,11.168964,5.3824,35.916049,1,1,1789168091.8365376,0.7266047661322287,-0.6832781942980156,-0.054392562680529916,0.04709429005534788,171.79103648165014,0.8415212005891775,-86.54002693474602,-0.00029007372168145755,0.01688222078869075,-0.0014404202316709203,-0.10855961729049683,1.1613035121536255,-9.651116690177918
2026-09-11T19:08:11.872,1.3700939519999906,-356.26080322265625,-32063.472290039062,-128253.88916015625,-244.03865020751954,0.028116607666015626,0.0,0.0,0.0,0.0,0.0,0.12250712513923645,1003.578369140625,44.10256505012512,-0.0305175818502903,-10.986329466104507,-328.7742083233422,1,1789168091.830945,38.99029083333333,-76.940905715,-9.725999999999999,0,1,11.168964,5.3824,35.916049,1,1,1789168091.8645375,0.7270661218305073,-0.6827403974736632,-0.054550449297059496,0.04758836649160376,171.73786919669152,0.821796717382764,-86.45766948895147,0.001104095284811613,0.016653931722529894,0.0002605776573227534,-0.1103248143196106,1.1752289553833009,-9.632778254375458
2026-09-11T19:08:11.904,1.4035092479999776,-356.2887878417969,-32065.99090576172,-128263.96362304688,-244.05781967163088,0.0089471435546875,-0.9469099640846252,-0.6486333253979684,-1.4509514258186462,-19.411269778912686,0.0,0.12215998768806458,1000.734619140625,43.97759556770325,0.0,0.0,328.78144985185236,1,1789168091.830945,38.99029083333333,-76.940905715,-9.725999999999999,0,1,11.168964,5.3824,35.916049,1,1,1789168091.8965375,0.7275862786882709,-0.6821310146956646,-0.054863785936914204,0.04801511061619454,171.6781404938981,0.8211387060819197,-86.36610063776665,0.0016514305382370345,0.020148953549648536,0.00232076430637686,-0.1724009098434448,1.1890563321113585,-9.64415396856308
2026-09-11T19:08:11.939,1.4369295679999823,-356.3021240234375,-32067.191162109375,-128268.7646484375,-244.0669549560547,-0.00018814086914062503,-0.35278892517089844,-0.24166041374206546,-0.540578949852508,12.17740918267226,0.0,0.12215998768806458,1000.734619140625,43.97759556770325,0.0,0.0,0.0,1,1789168091.830945,38.99029083333333,-76.940905715,-9.725999999999999,0,1,11.168964,5.3824,35.916049,1,1,1789168091.9365375,0.7281666971728691,-0.6814721181627486,-0.055102905879281676,0.04829785770395075,171.6363663028784,0.8262862172830003,-86.2659343049518,-0.0018256143975860686,0.023847829833400117,0.006887069228369624,-0.11042288082122802,1.147083869419098,-9.651018623676299
2026-09-11T19:08:11.972,1.4703473280000026,-356.3021545410156,-32067.193908691406,-128268.77563476562,-244.06697586059573,-0.00020904541015625002,-0.0686439573764801,-0.04702111080288887,-0.10518322924769331,5.824426979518031,0.0,0.12215998768806458,1000.734619140625,43.97759556770325,0.0,0.0,0.0,1,1789168091.830945,38.99029083333333,-76.940905715,-9.725999999999999,0,1,11.168964,5.3824,35.916049,1,1,1789168091.9645376,0.7285633894972494,-0.6810863880028619,-0.05461448184708297,0.04831126094472279,171.67408647919305,0.789098959627473,-86.19945066237172,0.0002473131550075965,0.026374193925661912,0.007902152721329526,-0.10424469121932985,1.051469030342102,-9.658079411792755
2026-09-11T19:08:12.005,1.5037695999999983,-356.3021545410156,-32067.193908691406,-128268.77563476562,-244.06697586059573,-0.00020904541015625002,-0.01698123849928379,-0.011632148372009397,-0.026020374847909325,1.0588437084972568,0.0,0.12264063954353333,1004.672119140625,44.150630235672,0.015258789993822575,5.493164397776127,164.3564027537336,1,1789168091.830945,38.99029083333333,-76.940905715,-9.725999999999999,0,1,11.168964,5.3824,35.916049,1,1,1789168091.9965377,0.7290307517820134,-0.6806860080770842,-0.05355498493736496,0.048089343441081046,171.77638500531725,0.7230332236354957,-86.12372142379422,0.001193979741289321,0.027374267587054663,0.008986176719743206,-0.042756994705200196,0.9498721346664429,-9.661511739349365
2026-09-11T19:08:12.040,1.5371912640000005,-356.3018493652344,-32067.166442871094,-128268.66577148438,-244.06676681518556,0.0,0.0,0.0,0.0,0.3480421672603919,0.0,0.12295535206794739,1007.250244140625,44.26392674446106,0.0,0.0,-164.359392691392,1,1789168091.830945,38.99029083333333,-76.940905715,-9.725999999999999,0,1,11.168964,5.3824,35.916049,1,1,1789168092.0365376,0.7296109961206012,-0.6802223353245753,-0.05194005432133224,0.0476193198458579,171.94305589813433,0.6307601843281967,-86.03174234986827,0.00020298179200694053,0.025348812990115245,0.006356140069912949,-0.034715541572570806,0.8816178495407104,-9.661805938854219
2026-09-11T19:08:12.072,1.5707454079999934,-356.3018493652344,-32067.166442871094,-128268.66577148438,-244.06676681518556,0.0,0.0,0.0,0.0,0.0,0.0,0.12307742238044739,1008.250244140625,44.30787205696106,0.0,0.0,0.0,1,1789168091.830945,38.99029083333333,-76.940905715,-9.725999999999999,0,1,11.168964,5.3824,35.916049,1,1,1789168092.0645375,0.730081160416776,-0.679813146451536,-0.050867293569470916,0.04741417046699423,172.04475413626855,0.562020598751746,-85.95519155674805,0.002184105025945704,0.03239034385728637,0.006076014724967859,-0.00951245065689087,0.8786758544921874,-9.673868118553163
2026-09-11T19:08:12.105,1.6041595840000014,-356.3018493652344,-32067.166442871094,-128268.66577148438,-244.06676681518556,0.0,0.0,0.0,0.0,0.0,0.0,0.12319949269294739,1009.250244140625,44.35181736946106,0.0,0.0,0.0,1,1789168091.830945,38.99029083333333,-76.940905715,-9.725999999999999,0,1,11.168964,5.3824,35.916049,1,1,1789168092.0965376,0.7306479665278697,-0.679266483017442,-0.04985657836232902,0.04759112996983035,172.109451689339,0.469893469499777,-85.85819676071846,0.0019399334635916972,0.03453779696894019,0.0033262484884507932,0.02147656385421753,0.9407519500160217,-9.658863943805695
2026-09-11T19:08:12.140,1.637575647999995,-356.3018493652344,-32067.166442871094,-128268.66577148438,-244.06676681518556,0.0,0.0,0.0,0.0,0.0,0.0,0.12319949269294739,1009.250244140625,44.35181736946106,0.0,0.0,0.0,1,1789168091.830945,38.99029083333333,-76.940905715,-9.725999999999999,0,1,11.168964,5.3824,35.916049,1,1,1789168092.1365376,0.7313941244194535,-0.6784924457693567,-0.04904549617930303,0.04801223909737387,172.13793505806763,0.37765597095662046,-85.7282701879496,7.67944870877505e-05,0.029180683362868793,-0.0004855505979048225,-0.007354987621307373,0.9956691909217834,-9.64336943655014
2026-09-11T19:08:12.173,1.6709893119999606,-356.3018493652344,-32067.166442871094,-128268.66577148438,-244.06676681518556,0.0,0.0,0.0,0.0,0.0,0.0,0.12319949269294739,1009.250244140625,44.35181736946106,0.0,0.0,0.0,1,1789168091.830945,38.99029083333333,-76.940905715,-9.725999999999999,0,1,11.168964,5.3824,35.916049,1,1,1789168092.1645377,0.7318985316609964,-0.6779430394401466,-0.048823274839293225,0.04831213575386532,172.13031831987152,0.3415773458844581,-85.64014585078863,0.0023280946892352363,0.027103392487145144,0.0017795377053334183,-0.00951245065689087,1.0455850402450562,-9.661119473342897
2026-09-11T19:08:12.205,1.7044033919999606,-356.3018493652344,-32067.166442871094,-128268.66577148438,-244.06676681518556,0.0,0.0,0.0,0.0,0.0,0.0,0.12319949269294739,1009.250244140625,44.35181736946106,0.0,0.0,0.0,1,1789168091.830945,38.99029083333333,-76.940905715,-9.725999999999999,0,1,11.168964,5.3824,35.916049,1,1,1789168092.1965375,0.7324489749759917,-0.6773134127076855,-0.048797845556983833,0.048824279737483954,172.0894213330508,0.3062579912425742,-85.54180248971166,0.0012130038301360591,0.01841811053044576,-0.0011381292052255023,0.006766588611602783,1.0831445103645325,-9.639642909488678
2026-09-11T19:08:12.239,1.7378223039999625,-356.3018493652344,-32067.166442871094,-128268.66577148438,-244.06676681518556,0.0,0.0,0.0,0.0,0.0,0.0,0.12319949269294739,1009.250244140625,44.35181736946106,0.0,0.0,0.0,1,1789168091.830945,38.99029083333333,-76.940905715,-9.725999999999999,0,1,11.168964,5.3824,35.916049,1,1,1789168092.2365377,0.7330756023978912,-0.676585265878523,-0.04899054138835975,0.04932003669435806,172.03286933026635,0.2915864133899549,-85.43065294503387,0.0009246754377065958,0.0006056292504420323,-0.0003520329101272563,0.005393657588958741,1.09393182554245,-9.642486838035584
2026-09-11T19:08:12.273,1.771235135999973,-356.3018493652344,-32067.166442871094,-128268.66577148438,-244.06676681518556,0.0,0.0,0.0,0.0,0.0,0.0,0.12319949269294739,1009.250244140625,44.35181736946106,0.0,0.0,0.0,1,1789168091.830945,38.99029083333333,-76.940905715,-9.725999999999999,0,1,11.168964,5.3824,35.916049,1,1,1789168092.2645376,0.7335463208550024,-0.6760827871928894,-0.04907469759506075,0.049127732265364835,172.04274988267278,0.31904170448670116,-85.35344987433015,-0.001234820445785988,-0.0010183996185386913,0.0009435249936281345,-0.05550563991546631,0.996453722934723,-9.623069670715333
2026-09-11T19:08:12.306,1.8046466559999885,-356.3018493652344,-32067.166442871094,-128268.66577148438,-244.06676681518556,0.0,0.0,0.0,0.0,0.0,0.0,0.12319949269294739,1009.250244140625,44.35181736946106,0.0,0.0,0.0,1,1789168091.830945,38.99029083333333,-76.940905715,-9.725999999999999,0,1,11.168964,5.3824,35.916049,1,1,1789168092.2965376,0.7340797130765507,-0.6755847101468817,-0.04853031909540776,0.048549792931595614,172.1341756678575,0.32379448964470126,-85.26993121817729,-0.0012397073676915721,0.003572863511757592,-0.0009197885158010117,-0.019907499828338625,0.8733802634048462,-9.646409498100281
2026-09-11T19:08:12.340,1.8380657280000037,-356.3018493652344,-32067.166442871094,-128268.66577148438,-244.06676681518556,0.0,0.0,0.0,0.0,0.0,0.0,0.12319949269294739,1009.250244140625,44.35181736946106,0.0,0.0,0.0,1,1789168091.830945,38.99029083333333,-76.940905715,-9.725999999999999,0,1,11.168964,5.3824,35.916049,1,1,1789168092.3365376,0.7347525743584002,-0.6749760578348666,-0.04726912447015907,0.048079160716790095,172.2723139542315,0.26113541778475985,-85.16153686025116,0.00137584304934713,-0.001454557398612074,-0.0010814060045356865,0.07943386631011963,0.8797545860099792,-9.646409498100281
2026-09-11T19:08:12.372,1.8714870719999794,-356.3018493652344,-32067.166442871094,-128268.66577148438,-244.06676681518556,0.0,0.0,0.0,0.0,0.0,0.0,0.12319949269294739,1009.250244140625,44.35181736946106,0.0,0.0,0.0,1,1789168091.830945,38.99029083333333,-76.940905715,-9.725999999999999,0,1,11.168964,5.3824,35.916049,1,1,1789168092.3645375,0.7352884374359888,-0.6744231592273784,-0.04713961382638581,0.0477720930984138,172.30855444145783,0.27990326230012347,-85.0743162191877,-0.0002853613327010729,-0.0065940284469597765,-0.004912578245588439,-0.014513842239379883,0.9499702011680603,-9.656020015258788
2026-09-11T19:08:12.406,1.904901183999982,-356.3018493652344,-32067.166442871094,-128268.66577148438,-244.06676681518556,0.0,0.0,0.0,0.0,0.0,0.0,0.12319949269294739,1009.250244140625,44.35181736946106,0.0,0.0,0.0,1,1789168091.830945,38.99029083333333,-76.940905715,-9.725999999999999,0,1,11.168964,5.3824,35.916049,1,1,1789168092.3965375,0.7358924400936608,-0.6737694442819788,-0.047402809648872404,0.0474344410986788,172.3169676781386,0.3350094425471927,-84.9757759118836,-0.0008686503687175778,-0.02598044764641199,-0.005569869241889504,-0.041482130184173585,0.9614439818572998,-9.624932934246063
2026-09-11T19:08:12.441,1.9383197760000144,-356.3018493652344,-32067.166442871094,-128268.66577148438,-244.06676681518556,0.0,0.0,0.0,0.0,0.0,0.0,0.12319949269294739,1009.250244140625,44.35181736946106,0.0,0.0,0.0,1,1789168091.830945,38.99029083333333,-76.940905715,-9.725999999999999,0,1,11.168964,5.3824,35.916049,1,1,1789168092.4365375,0.7365702294270672,-0.6730749490753987,-0.0474836031761291,0.04668744454689317,172.37432479044585,0.4069019033286349,-84.86900563258725,-0.0012187634166676404,-0.039552127909919896,-0.003303210142324468,0.06482195756912232,0.9012311498641967,-9.64493850057602
2026-09-11T19:08:12.473,1.971733152000013,-356.3018493652344,-32067.166442871094,-128268.66577148438,-244.06676681518556,0.0,0.0,0.0,0.0,0.0,0.0,0.12319949269294739,1009.250244140625,44.35181736946106,0.0,0.0,0.0,1,1789168091.830945,38.99029083333333,-76.940905715,-9.725999999999999,0,1,11.168964,5.3824,35.916049,1,1,1789168092.4645376,0.7370667517287799,-0.672604307969497,-0.04712284600827499,0.04599441032277362,172.4613048736537,0.4350675948439263,-84.79218696226623,-0.004641877678604118,-0.05251992425223777,-0.00953543183534582,0.04069759817123413,0.7832571484184265,-9.656510347766876
2026-09-11T19:08:12.506,2.0051454079999758,-356.3018493652344,-32067.166442871094,-128268.66577148438,-244.06676681518556,0.0,0.0,0.0,0.0,0.0,0.0,0.12319949269294739,1009.250244140625,44.35181736946106,0.0,0.0,0.0,1,1789168091.830945,38.99029083333333,-76.940905715,-9.725999999999999,0,1,11.168964,5.3824,35.916049,1,1,1789168092.4965377,0.7376813459917988,-0.6720764423728594,-0.046625521930623776,0.044334502228686956,172.6409549869686,0.5269685444064142,-84.70506663229651,0.0011698941976117992,-0.03931720659260146,-0.007988721052228446,-0.11169774534225464,0.6771491936683655,-9.724078167381286
2026-09-11T19:08:12.540,2.0385670079999727,-356.2718505859375,-32064.466552734375,-128257.8662109375,-244.04621765136721,0.020549163818359376,0.9469099640846252,0.6486333253979684,1.4509514258186462,19.407608414858288,0.0,0.12299349904060364,1007.562744140625,44.27765965461731,-0.0305175818502903,-10.986329466104507,-328.71943491949855,1,1789168091.830945,38.99029083333333,-76.940905715,-9.725999999999999,0,1,11.168964,5.3824,35.916049,1,1,1789168092.5365376,0.738513777988983,-0.6711695217523442,-0.04691285284795484,0.04390964619345705,172.65546463330557,0.5930186922842202,-84.56788144738013,0.0059920643879469325,-0.004929333406407585,-0.013417044091781209,-0.03530394058227539,1.0215587473487855,-9.670337724494933
2026-09-11T19:08:12.573,2.0719833279999875,-356.26055908203125,-32063.450317382812,-128253.80126953125,-244.03848297119143,0.028283843994140627,0.3221185505390167,0.22065120711922648,0.49358269309060987,-12.807577802659061,0.0,0.12181666493415833,997.922119140625,43.853999376297,-0.0610351599752903,-21.972657591104507,-328.77133463514616,1,1789168091.830945,38.99029083333333,-76.940905715,-9.725999999999999,0,1,11.168964,5.3824,35.916049,1,1,1789168092.5645375,0.7390751433376884,-0.6704426383987374,-0.04810149840831184,0.04428145173986998,172.53259401396622,0.671802505743679,-84.46853055467847,0.0039336230681448195,0.008055567162579828,-0.014373484521874102,-0.3084191475868225,1.186604669570923,-9.70828946062088
2026-09-11T19:08:12.607,2.1053934400000003,-356.2605285644531,-32063.44757080078,-128253.79028320312,-244.0384620666504,0.028304748535156254,0.06178890913724899,0.042325402759015564,0.09467922950746134,-5.337479992887866,0.0,0.12093928456306458,990.734619140625,43.53814244270325,0.0,0.0,657.6648887347674,1,1789168091.830945,38.99029083333333,-76.940905715,-9.725999999999999,0,1,11.168964,5.3824,35.916049,1,1,1789168092.5955377,0.7395637042159754,-0.669770343262886,-0.049185400266479454,0.04510001211183374,172.37987162364823,0.7069431450032835,-84.37688347287093,0.004989023666825791,0.020463985479633514,-0.0026284658535034606,-0.07492280723571777,1.237991516418457,-9.664944066905976
2026-09-11T19:08:12.641,2.1388100799999847,-356.26080322265625,-32063.472290039062,-128253.88916015625,-244.03865020751954,0.028116607666015626,0.0,0.0,0.0,-1.2665966045369987,0.0,0.12093928456306458,990.734619140625,43.53814244270325,0.0,0.0,0.0,1,1789168091.830945,38.99029083333333,-76.940905715,-9.725999999999999,0,1,11.168964,5.3824,35.916049,1,1,1789168092.6365376,0.7399971876416445,-0.6690778793003956,-0.05055341517598337,0.04672585930067739,172.1365479903763,0.704314213600304,-84.28583156868397,0.006838025476388584,0.02739974939413378,0.0026056020403023347,-0.2784107980918884,1.3783246802330018,-9.575703550434113
2026-09-11T19:08:12.674,2.17222329599997,-356.26080322265625,-32063.472290039062,-128253.88916015625,-244.03865020751954,0.028116607666015626,0.0,0.0,0.0,0.0,0.0,0.12093928456306458,990.734619140625,43.53814244270325,0.0,0.0,0.0,1,1789168091.830945,38.99029083333333,-76.940905715,-9.725999999999999,0,1,11.168964,5.3824,35.916049,1,1,1789168092.6645377,0.7402407499731276,-0.66865035730997,-0.05143275253380826,0.04801045422891627,171.9596983300922,0.6841750708594276,-84.2303141148579,0.0007464773210779748,0.023845909971222927,-0.000450294947014537,-0.01500417474746704,1.4007819091033935,-9.637583512954711
2026-09-11T19:08:12.706,2.2056372160000137,-356.26080322265625,-32063.472290039062,-128253.88916015625,-244.03865020751954,0.028116607666015626,0.0,0.0,0.0,0.0,0.0,0.1213245689868927,993.890869140625,43.67684483528137,0.015258789993822575,5.493164397776127,164.3974845743617,1,1789168091.830945,38.99029083333333,-76.940905715,-9.725999999999999,0,1,11.168964,5.3824,35.916049,1,1,1789168092.6965375,0.740519037279583,-0.6682079251086852,-0.05185262955886001,0.04940677136078564,171.80872288268745,0.6169571937233708,-84.1672563922703,-0.0011758283170685798,0.02139476956972209,0.0024750514122531585,-0.11493393989562987,1.340667143611908,-9.642781037540436
2026-09-11T19:08:12.740,2.2390529279999782,-356.26080322265625,-32063.472290039062,-128253.88916015625,-244.03865020751954,0.028116607666015626,0.0,0.0,0.0,0.0,0.0,0.12160494923591614,996.187744140625,43.77778172492981,0.015258789993822575,5.493164397776127,0.0,1,1789168091.830945,38.99029083333333,-76.940905715,-9.725999999999999,0,1,11.168964,5.3824,35.916049,1,1,1789168092.7365377,0.7408710482764805,-0.6677478799943987,-0.052024946415025204,0.05016237174624663,171.7313863045047,0.5784633415744672,-84.09855705252046,-0.002567728395534058,0.018531556931825392,0.006969448769063757,-0.016965504779815673,1.243679373512268,-9.63120919034958
2026-09-11T19:08:12.774,2.272463135999999,-356.26080322265625,-32063.472290039062,-128253.88916015625,-244.03865020751954,0.028116607666015626,0.0,0.0,0.0,0.0,0.0,0.1217670738697052,997.515869140625,43.83614659309387,0.015258789993822575,5.493164397776127,0.0,1,1789168091.830945,38.99029083333333,-76.940905715,-9.725999999999999,0,1,11.168964,5.3824,35.916049,1,1,1789168092.7645376,0.7411123199884221,-0.667517097851364,-0.05154892316273834,0.05016135722080541,171.76830986118804,0.5408777215966863,-84.05741162215719,-0.0037170277079723235,0.010200053214505261,0.005107182457185807,-0.052661711368560786,1.1453186723899842,-9.641800372524262
2026-09-11T19:08:12.808,2.3058734719999734,-356.26080322265625,-32063.472290039062,-128253.88916015625,-244.03865020751954,0.028116607666015626,0.0,0.0,0.0,0.0,0.0,0.12185671925544739,998.250244140625,43.86841893196106,0.0,0.0,-164.41511985333904,1,1789168091.830945,38.99029083333333,-76.940905715,-9.725999999999999,0,1,11.168964,5.3824,35.916049,1,1,1789168092.7955375,0.7414046736689895,-0.6672881075131116,-0.05051848473927205,0.0499356999850519,171.86704033161794,0.4736285740155245,-84.01013774505765,-0.003341432852943144,0.001882163065350685,0.003745302041854632,0.030400615501403806,1.0471541042709351,-9.667395729446412
2026-09-11T19:08:12.841,2.339287296000009,-356.26080322265625,-32063.472290039062,-128253.88916015625,-244.03865020751954,0.028116607666015626,0.0,0.0,0.0,0.0,0.0,0.12185671925544739,998.250244140625,43.86841893196106,0.0,0.0,0.0,1,1789168091.830945,38.99029083333333,-76.940905715,-9.725999999999999,0,1,11.168964,5.3824,35.916049,1,1,1789168092.8365376,0.7418330334836778,-0.6669744568057558,-0.049309734540857665,0.04896299092765535,172.04324409437064,0.44949294340765905,-83.94803036630994,-0.003272317814564168,-0.009699841850883687,0.0041123447835490394,-0.03363681005477905,0.9697796344947816,-9.662296271362305
2026-09-11T19:08:12.874,2.372712607999972,-356.26080322265625,-32063.472290039062,-128253.88916015625,-244.03865020751954,0.028116607666015626,0.0,0.0,0.0,0.0,0.0,0.12185671925544739,998.250244140625,43.86841893196106,0.0,0.0,0.0,1,1789168092.8525019,38.99029113,-76.94090530333334,-9.684000000000001,0,1,7.182400000000001,7.096896000000001,43.099225000000004,1,1,1789168092.8645375,0.7421456049448207,-0.6667359207813421,-0.04863088043260224,0.04814717509150213,172.16523609526328,0.4571957292229354,-83.90369883096268,-0.0016858135245013228,-0.020476900916098273,0.0005038765550507629,0.014611908740997314,0.9334950288963317,-9.646899830608367
2026-09-11T19:08:12.907,2.406128351999996,-356.26080322265625,-32063.472290039062,-128253.88916015625,-244.03865020751954,0.028116607666015626,0.0,0.0,0.0,0.0,0.0,0.12185671925544739,998.250244140625,43.86841893196106,0.0,0.0,0.0,1,1789168092.8525019,38.99029113,-76.94090530333334,-9.684000000000001,0,1,7.182400000000001,7.096896000000001,43.099225000000004,1,1,1789168092.8965375,0.7425326809489936,-0.6664367311528536,-0.04764181369497464,0.04730284009288113,172.3135231576989,0.4413255092884713,-83.84676667019309,-0.0006346017160251383,-0.02949501716115297,-0.00040945424251786973,0.03530394058227539,0.8755377264404297,-9.658962010307313
2026-09-11T19:08:12.941,2.4395446080000056,-356.26080322265625,-32063.472290039062,-128253.88916015625,-244.03865020751954,0.028116607666015626,0.0,0.0,0.0,0.0,0.0,0.12185671925544739,998.250244140625,43.86841893196106,0.0,0.0,0.0,1,1789168092.8525019,38.99029113,-76.94090530333334,-9.684000000000001,0,1,7.182400000000001,7.096896000000001,43.099225000000004,1,1,1789168092.9365375,0.7431136521781537,-0.6659249850923366,-0.0471286641184783,0.04587922399763133,172.47490063982534,0.5122118582608899,-83.76250315318384,-0.001198517597344506,-0.036592747630238315,-0.003875678136978608,0.003530394058227539,0.8761261254501344,-9.666120864925386
2026-09-11T19:08:12.976,2.472957535999967,-356.26080322265625,-32063.472290039062,-128253.88916015625,-244.03865020751954,0.028116607666015626,0.0,0.0,0.0,0.0,0.0,0.12185671925544739,998.250244140625,43.86841893196106,0.0,0.0,0.0,1,1789168092.8525019,38.99029113,-76.94090530333334,-9.684000000000001,0,1,7.182400000000001,7.096896000000001,43.099225000000004,1,1,1789168092.9645376,0.743559428702291,-0.665499549987229,-0.04682948687918071,0.045130079917396405,172.5622045530202,0.5484961347789389,-83.69392325050173,7.923794804054255e-05,-0.03881996228870827,-0.006775891755017586,-0.06276256103515625,0.8877960391426086,-9.65680454727173
2026-09-11T19:08:13.009,2.5063722559999633,-356.26080322265625,-32063.472290039062,-128253.88916015625,-244.03865020751954,0.028116607666015626,0.0,0.0,0.0,0.0,0.0,0.12185671925544739,998.250244140625,43.86841893196106,0.0,0.0,0.0,1,1789168092.8525019,38.99029113,-76.94090530333334,-9.684000000000001,0,1,7.182400000000001,7.096896000000001,43.099225000000004,1,1,1789168093.0045376,0.7441792031923583,-0.664809927496967,-0.04774244717879748,0.04411045879203712,172.58001896647326,0.7109288491220915,-83.59789619421298,0.0009435249936281345,-0.030221597728758213,-0.0003569198320328404,-0.07335374320983887,1.033522860546112,-9.652979953708648
2026-09-11T19:08:13.041,2.5397964160000015,-356.26080322265625,-32063.472290039062,-128253.88916015625,-244.03865020751954,0.028116607666015626,0.0,0.0,0.0,0.0,0.0,0.12185671925544739,998.250244140625,43.86841893196106,0.0,0.0,0.0,1,1789168092.8525019,38.99029113,-76.94090530333334,-9.684000000000001,0,1,7.182400000000001,7.096896000000001,43.099225000000004,1,1,1789168093.0365376,0.7445967186927553,-0.6642601045433871,-0.04850533373187483,0.04451373522351931,172.48758077820997,0.7503914940209643,-83.52203074915238,0.0005401794034922449,-0.027117355121161098,-0.0024148375530593544,-0.05942829998016358,1.145514805393219,-9.648763094139099
2026-09-11T19:08:13.074,2.573199520000003,-356.2651062011719,-32063.85955810547,-128255.43823242188,-244.04159774780274,0.0251690673828125,-0.3419397175312042,-0.23422870650887492,-0.5239546942306609,-7.0121838529995735,0.0,0.12185671925544739,998.250244140625,43.86841893196106,0.0,0.0,0.0,1,1789168092.8525019,38.99029113,-76.94090530333334,-9.684000000000001,0,1,7.182400000000001,7.096896000000001,43.099225000000004,1,1,1789168093.0645375,0.7449645566967035,-0.6637679648713606,-0.04945091538048635,0.04465988182080657,172.4031662019746,0.8245583181911382,-83.45721097799448,0.0013753194505715315,-0.020562422049445993,-0.0006419320988835144,-0.1447461563873291,1.130510630645752,-9.63385698589325
2026-09-11T19:08:13.107,2.6066020160000107,-356.3018493652344,-32067.166442871094,-128268.66577148438,-244.06676681518556,0.0,-0.6111025214195251,-0.41860522717237475,-0.9363932247055616,-5.519842608871394,0.0,0.1215839684009552,996.015869140625,43.77022862434387,-0.0305175818502903,-10.986329466104507,-328.907440512886,1,1789168092.8525019,38.99029113,-76.94090530333334,-9.684000000000001,0,1,7.182400000000001,7.096896000000001,43.099225000000004,1,1,1789168093.0965376,0.7453651153275243,-0.6633345492417517,-0.04927106242978848,0.04461482984466289,172.42126580599444,0.8171082656663189,-83.3888199395875,0.0004214970143566306,-0.02026501794490616,-0.0028026497128524944,0.02353596038818359,0.9938059273910522,-9.669847391986847
2026-09-11T19:08:13.142,2.6400256960000092,-356.30218505859375,-32067.196655273438,-128268.78662109375,-244.06699676513674,-0.000229949951171875,-0.12030667066574097,-0.08241006940603257,-0.18434607508507622,10.058591925436012,0.0,0.11939051747322083,978.047119140625,42.9805862903595,-0.0762939527630806,-27.465822994709015,-493.04844734646935,1,1789168092.8525019,38.99029113,-76.94090530333334,-9.684000000000001,0,1,7.182400000000001,7.096896000000001,43.099225000000004,1,1,1789168093.1365376,0.7459911383253301,-0.6627182425295871,-0.048786426295049735,0.04383648215734443,172.52575053324315,0.8414766721096812,-83.28899860480696,0.00013526301702956054,-0.014468081367332195,-0.007625518034888426,-0.11012868131637574,0.9397712849998474,-9.663276936378479
2026-09-11T19:08:13.176,2.673436928000001,-356.3019714355469,-32067.17742919922,-128268.70971679688,-244.06685043334963,-8.36181640625e-05,-0.01698123849928379,-0.011632148372009397,-0.026020374847909325,2.1183870452319944,0.0,0.11727145314216614,960.687744140625,42.21772313117981,-0.030517585575580597,-10.986330807209015,493.23210193219074,1,1789168092.8525019,38.99029113,-76.94090530333334,-9.684000000000001,0,1,7.182400000000001,7.096896000000001,43.099225000000004,1,1,1789168093.1645377,0.7464456124721044,-0.6622420039941445,-0.04874863096933053,0.04333643669685359,172.5720894424726,0.8811284280541497,-83.21568312703019,0.0014287265256825582,-0.0016032594508819911,-0.0036444220110893595,-0.18505148855209352,0.9750752255821229,-9.662688537368775
2026-09-11T19:08:13.208,2.706847295999978,-356.3018493652344,-32067.166442871094,-128268.66577148438,-244.06676681518556,0.0,0.0,0.0,0.0,0.3481598398442475,0.0,0.11678889393806458,956.734619140625,42.04400181770325,0.0,0.0,328.82998496803583,1,1789168092.8525019,38.99029113,-76.94090530333334,-9.684000000000001,0,1,7.182400000000001,7.096896000000001,43.099225000000004,1,1,1789168093.1965375,0.7469468020128444,-0.661681170618507,-0.049038397520641354,0.042938781774923954,172.58478279459047,0.9416745589443714,-83.13313596211897,2.1991148575128552e-05,0.009367182095453565,7.592182246175333e-05,-0.1995653307914734,0.9924329963684082,-9.63954484298706
2026-09-11T19:08:13.241,2.740250816000014,-356.3018493652344,-32067.166442871094,-128268.66577148438,-244.06676681518556,0.0,0.0,0.0,0.0,0.0,0.0,0.11678889393806458,956.734619140625,42.04400181770325,0.0,0.0,0.0,1,1789168092.8525019,38.99029113,-76.94090530333334,-9.684000000000001,0,1,7.182400000000001,7.096896000000001,43.099225000000004,1,1,1789168093.2365263,0.7474773860148923,-0.6610914066020899,-0.04888437708052774,0.04296541854401941,172.594978720645,0.9323463152248186,-83.04135103392606,0.000825191670342919,0.01659563772551328,0.00231779724664847,-0.09463417406082154,1.0406817151641847,-9.648468894634247
2026-09-11T19:08:13.274,2.7736511999999607,-356.3018493652344,-32067.166442871094,-128268.66577148438,-244.06676681518556,0.0,0.0,0.0,0.0,0.0,0.0,0.11678889393806458,956.734619140625,42.04400181770325,0.0,0.0,0.0,1,1789168092.8525019,38.99029113,-76.94090530333334,-9.684000000000001,0,1,7.182400000000001,7.096896000000001,43.099225000000004,1,1,1789168093.2645264,0.7478272314371293,-0.6606689145832515,-0.04905129616489628,0.04318550183811842,172.5638577535252,0.934028624145273,-82.97875575475658,0.001676214213615354,0.0254233385491754,0.0048876200372849204,-0.2282007492637634,1.1004042146492006,-9.672593254032135
2026-09-11T19:08:13.308,2.8070512959999974,-356.3018493652344,-32067.166442871094,-128268.66577148438,-244.06676681518556,0.0,0.0,0.0,0.0,0.0,0.0,0.1173115074634552,961.015869140625,42.23214268684387,0.015258789993822575,5.493164397776127,164.46552721794853,1,1789168092.8525019,38.99029113,-76.94090530333334,-9.684000000000001,0,1,7.182400000000001,7.096896000000001,43.099225000000004,1,1,1789168093.2965262,0.7481728756172347,-0.660231044340869,-0.04900021229443094,0.043946506963625676,172.50282274053794,0.8761761764259199,-82.91149869260528,0.0019008380883470243,0.019947891619818792,0.004549898827024017,-0.013729310226440429,1.1369830197525024,-9.648861160640717
2026-09-11T19:08:13.342,2.840460511999993,-356.3018493652344,-32067.166442871094,-128268.66577148438,-244.06676681518556,0.0,0.0,0.0,0.0,0.0,0.0,0.11746218800544739,962.250244140625,42.28638768196106,0.0,0.0,-164.42063165375902,1,1789168092.8525019,38.99029113,-76.94090530333334,-9.684000000000001,0,1,7.182400000000001,7.096896000000001,43.099225000000004,1,1,1789168093.3365262,0.7485672913878104,-0.6597533019969527,-0.048547695889900766,0.04489668130515014,172.4560167260937,0.7701338687492405,-82.83375782868444,0.0009937904760855712,-0.0041657518586600654,0.0016837191293989297,-0.03628460559844971,1.0879497689437867,-9.639054510478973
2026-09-11T19:08:13.375,2.873869920000004,-356.3018493652344,-32067.166442871094,-128268.66577148438,-244.06676681518556,0.0,0.0,0.0,0.0,0.0,0.0,0.11758425831794739,963.250244140625,42.33033299446106,0.0,0.0,0.0,1,1789168092.8525019,38.99029113,-76.94090530333334,-9.684000000000001,0,1,7.182400000000001,7.096896000000001,43.099225000000004,1,1,1789168093.3645263,0.7488993102649668,-0.6593784007995213,-0.04854944016483438,0.044865348582217676,172.4589659313372,0.7764274640695717,-82.77664112811522,0.0005319763560078716,-0.006220877052883389,-0.0009258971681829918,-0.06884268413543701,1.0663751385879516,-9.652489621200562
2026-09-11T19:08:13.407,2.9072703360000105,-356.3018493652344,-32067.166442871094,-128268.66577148438,-244.06676681518556,0.0,0.0,0.0,0.0,0.0,0.0,0.11770632863044739,964.250244140625,42.37427830696106,0.0,0.0,0.0,1,1789168092.8525019,38.99029113,-76.94090530333334,-9.684000000000001,0,1,7.182400000000001,7.096896000000001,43.099225000000004,1,1,1789168093.3965263,0.7492871540984132,-0.6589710941277597,-0.048333085853133936,0.044606844980090425,172.4981021086922,0.78162334821546,-82.7121756231949,-0.0007471754527787725,-0.00894463788354574,-0.0013980087308474581,-0.1118938783454895,1.0217548803520202,-9.6296401263237
2026-09-11T19:08:13.441,2.9406703999999877,-356.3018493652344,-32067.166442871094,-128268.66577148438,-244.06676681518556,0.0,0.0,0.0,0.0,0.0,0.0,0.11770632863044739,964.250244140625,42.37427830696106,0.0,0.0,0.0,1,1789168092.8525019,38.99029113,-76.94090530333334,-9.684000000000001,0,1,7.182400000000001,7.096896000000001,43.099225000000004,1,1,1789168093.4365263,0.7492619838019686,-0.6587043156527209,-0.049935893560044,0.047132904684296026,172.15886529199145,0.7297867884256886,-82.68984642635579,-0.004110424921371846,-0.00757804507923418,0.022243174119116534,0.5421116209411622,1.849141954498291,-10.955106962184907
2026-09-11T19:08:13.476,2.974072031999981,-356.3018493652344,-32067.166442871094,-128268.66577148438,-244.06676681518556,0.0,0.0,0.0,0.0,0.0,0.0,0.11770632863044739,964.250244140625,42.37427830696106,0.0,0.0,0.0,1,1789168092.8525019,38.99029113,-76.94090530333334,-9.684000000000001,0,1,7.182400000000001,7.096896000000001,43.099225000000004,1,1,1789168093.4645262,0.7494914528428075,-0.6586682640011146,-0.04906817992712818,0.04484410587774813,172.42212173064215,0.8295334515263623,-82.67425854870464,-0.0013576916251263889,-0.006184923270292306,0.0008075638448977763,-0.23094661130905153,0.2464411185646057,-9.088018837890624
2026-09-11T19:08:13.509,3.0074837440000124,-356.3018493652344,-32067.166442871094,-128268.66577148438,-244.06676681518556,0.0,0.0,0.0,0.0,0.0,0.0,0.11770632863044739,964.250244140625,42.37427830696106,0.0,0.0,0.0,1,1789168092.8525019,38.99029113,-76.94090530333334,-9.684000000000001,0,1,7.182400000000001,7.096896000000001,43.099225000000004,1,1,1789168093.5045261,0.7498230881376515,-0.6585320896052967,-0.04727576300449525,0.043195204457667044,172.70054347799902,0.8025144062234928,-82.63362734434712,0.0014618877814704505,-0.03758775983680028,-0.007746818417902031,-0.08571012241363525,0.5728064359474182,-9.437429783153535
2026-09-11T19:08:13.542,3.0408936320000066,-356.3018493652344,-32067.166442871094,-128268.66577148438,-244.06676681518556,0.0,0.0,0.0,0.0,0.0,0.0,0.11786273121833801,965.531494140625,42.430583238601685,0.015258789993822575,5.493164397776127,164.41732452910577,1,1789168092.8525019,38.99029113,-76.94090530333334,-9.684000000000001,0,1,7.182400000000001,7.096896000000001,43.099225000000004,1,1,1789168093.5365262,0.7502480899010298,-0.6581903234419487,-0.04722631060363908,0.04102410649859093,172.89189185888353,0.9660273318710823,-82.58075381841986,2.426007660272118e-05,-0.017214007879494873,0.006869965001700081,-0.4157039003562927,0.7914947345542908,-9.481363575878143
2026-09-11T19:08:13.574,3.0742985599999884,-356.3018493652344,-32067.166442871094,-128268.66577148438,-244.06676681518556,0.0,0.0,0.0,0.0,0.0,0.0,0.11831668019294739,969.250244140625,42.59400486946106,0.0,0.0,-164.44173739213358,1,1789168092.8525019,38.99029113,-76.94090530333334,-9.684000000000001,0,1,7.182400000000001,7.096896000000001,43.099225000000004,1,1,1789168093.5645263,0.7505104870605234,-0.6578957893996527,-0.046667916021388825,0.041584188300414916,172.88631161648763,0.8785733054472611,-82.5300750819026,-0.000849800812796039,0.0032719687487137695,-0.0015594516866569335,0.3284247139167786,1.0137134272193908,-9.755753647403717
2026-09-11T19:08:13.608,3.1076974079999786,-356.3018493652344,-32067.166442871094,-128268.66577148438,-244.06676681518556,0.0,0.0,0.0,0.0,0.0,0.0,0.11831668019294739,969.250244140625,42.59400486946106,0.0,0.0,0.0,1,1789168092.8525019,38.99029113,-76.94090530333334,-9.684000000000001,0,1,7.182400000000001,7.096896000000001,43.099225000000004,1,1,1789168093.5965261,0.7509191039612572,-0.6573614383426937,-0.046684955722015455,0.04262573864792214,172.79573065015742,0.806305227216599,-82.44915738289146,-0.0006065019150680296,0.029906740331698434,-0.007893600607994754,-0.3322493074798584,1.228479065761566,-9.709466258640289
2026-09-11T19:08:13.643,3.1411038719999738,-356.3018493652344,-32067.166442871094,-128268.66577148438,-244.06676681518556,0.0,0.0,0.0,0.0,0.0,0.0,0.11831668019294739,969.250244140625,42.59400486946106,0.0,0.0,0.0,1,1789168092.8525019,38.99029113,-76.94090530333334,-9.684000000000001,0,1,7.182400000000001,7.096896000000001,43.099225000000004,1,1,1789168093.6365263,0.7513129469137693,-0.6567535711879221,-0.04808031782932295,0.043495810937261195,172.61554993787126,0.866039904257379,-82.37197402992405,-0.0015318754844754231,0.05182074535388884,0.007487287958130474,-0.1630845921897888,1.1434554088592528,-9.646801764106751
2026-09-11T19:08:13.676,3.174513472000001,-356.3018493652344,-32067.166442871094,-128268.66577148438,-244.06676681518556,0.0,0.0,0.0,0.0,0.0,0.0,0.11831668019294739,969.250244140625,42.59400486946106,0.0,0.0,0.0,1,1789168092.8525019,38.99029113,-76.94090530333334,-9.684000000000001,0,1,7.182400000000001,7.096896000000001,43.099225000000004,1,1,1789168093.6645262,0.751612580437395,-0.6564180511259231,-0.04718529593327814,0.04435559639971636,172.60937227931018,0.7275897694315322,-82.31142555548983,-0.004662298030852452,0.06560186512763606,0.005952969012702259,-0.0539365758895874,1.0093985011482238,-9.654745150737762
2026-09-11T19:08:13.708,3.2079122239999833,-356.3018493652344,-32067.166442871094,-128268.66577148438,-244.06676681518556,0.0,0.0,0.0,0.0,0.0,0.0,0.11831668019294739,969.250244140625,42.59400486946106,0.0,0.0,0.0,1,1789168092.8525019,38.99029113,-76.94090530333334,-9.684000000000001,0,1,7.182400000000001,7.096896000000001,43.099225000000004,1,1,1789168093.7045262,0.7520913221605547,-0.6560170775783323,-0.045100150341985425,0.044342005993225,172.7685791587094,0.5535223392679082,-82.22857449159,0.000968308669006454,0.06250530196874772,0.007343298294840942,-0.045993189258575436,0.7866894759750366,-9.674162318058015
2026-09-11T19:08:13.742,3.2413154239999926,-356.3018493652344,-32067.166442871094,-128268.66577148438,-244.06676681518556,0.0,0.0,0.0,0.0,0.0,0.0,0.11850741505622864,970.812744140625,42.66266942024231,0.015258789993822575,5.493164397776127,164.45024422135,1,1789168092.8525019,38.99029113,-76.94090530333334,-9.684000000000001,0,1,7.182400000000001,7.096896000000001,43.099225000000004,1,1,1789168093.7365263,0.7524809406841252,-0.65564143062397,-0.04375886701739621,0.044630817983114204,172.84515649520512,0.420084967274703,-82.15795215089857,0.001001818990644745,0.04670378905289187,0.004085292180143127,0.007551120624542236,0.9918445973587036,-9.683870901718139
2026-09-11T19:08:13.776,3.274716191999971,-356.3018493652344,-32067.166442871094,-128268.66577148438,-244.06676681518556,0.0,0.0,0.0,0.0,0.0,0.0,0.12002947926521301,983.281494140625,43.210612535476685,0.0610351599752903,21.972657591104507,493.3866548619163,1,1789168092.8525019,38.99029113,-76.94090530333334,-9.684000000000001,0,1,7.182400000000001,7.096896000000001,43.099225000000004,1,1,1789168093.7645264,0.7527483796571283,-0.6552415085046019,-0.044270095396005474,0.04548187671820932,172.73312313855922,0.40366689598689753,-82.1025270926833,0.0009562658971676931,0.0284394420295468,0.006440614005709475,-0.052563644866943364,1.2199472801208495,-9.662394337863923
2026-09-11T19:08:13.809,3.308118400000012,-356.3018493652344,-32067.166442871094,-128268.66577148438,-244.06676681518556,0.0,0.0,0.0,0.0,0.0,0.0,0.12112429738044739,992.250244140625,43.60474705696106,0.0,0.0,-657.8205126762159,1,1789168092.8525019,38.99029113,-76.94090530333334,-9.684000000000001,0,1,7.182400000000001,7.096896000000001,43.099225000000004,1,1,1789168093.8045263,0.753000181529223,-0.6547584074910838,-0.04472292564348905,0.04777043393757513,172.50098109723567,0.2748234548261456,-82.03407346868862,0.00037367499285198596,0.022754206524100474,0.003891037034396158,0.11012868131637574,1.302519274482727,-9.628953660812378
2026-09-11T19:08:13.843,3.3415290880000157,-356.3018493652344,-32067.166442871094,-128268.66577148438,-244.06676681518556,0.0,0.0,0.0,0.0,0.0,0.0,0.12112429738044739,992.250244140625,43.60474705696106,0.0,0.0,0.0,1,1789168093.8314285,38.99029118333333,-76.94090531,-9.675999999999998,0,1,7.263024999999999,5.139289,31.359999999999996,1,1,1789168093.8365262,0.7532579958966771,-0.6543542048043199,-0.045065074642054746,0.048909153745835356,172.37664242228217,0.2225049836461974,-81.97642883654862,-0.0005370378108386552,0.018841701939904785,0.0009286896949861828,-0.006080123100280762,1.214553622531891,-9.641211973514556
2026-09-11T19:08:13.875,3.3749382720000085,-356.3018493652344,-32067.166442871094,-128268.66577148438,-244.06676681518556,0.0,0.0,0.0,0.0,0.0,0.0,0.12112429738044739,992.250244140625,43.60474705696106,0.0,0.0,0.0,1,1789168093.8314285,38.99029118333333,-76.94090531,-9.675999999999998,0,1,7.263024999999999,5.139289,31.359999999999996,1,1,1789168093.8645263,0.7534662270940089,-0.6540948896805988,-0.04544446538973671,0.04881926349183988,172.35593147753002,0.26452857647508227,-81.9411101792932,-0.0027204447050835617,-0.009307317302110162,0.002781531228903363,0.10512728973388673,1.1606170466423034,-9.579233944492339
2026-09-11T19:08:13.909,3.4083415359999663,-356.3018493652344,-32067.166442871094,-128268.66577148438,-244.06676681518556,0.0,0.0,0.0,0.0,0.0,0.0,0.12216189503669739,1000.750244140625,43.97828221321106,0.0762939527630806,27.465822994709015,822.2496758024533,1,1789168093.8314285,38.99029118333333,-76.94090531,-9.675999999999998,0,1,7.263024999999999,5.139289,31.359999999999996,1,1,1789168093.9045262,0.753771885558234,-0.653899650025222,-0.04503734822610139,0.04706197513532427,172.539051458346,0.3637249691360797,-81.90721239896246,-0.0025459117798841283,-0.020738874836822623,0.006630331295401259,0.10404855821609496,0.8598470861816405,-9.656314214763642
2026-09-11T19:08:13.942,3.441743391999978,-356.3018493652344,-32067.166442871094,-128268.66577148438,-244.06676681518556,0.0,0.0,0.0,0.0,0.0,0.0,0.12307742238044739,1008.250244140625,44.30787205696106,0.0,0.0,-822.2843363763777,1,1789168093.8314285,38.99029118333333,-76.94090531,-9.675999999999998,0,1,7.263024999999999,5.139289,31.359999999999996,1,1,1789168093.9365263,0.7540809840783633,-0.6536539186188607,-0.04424264022291522,0.046271080727824335,172.66759864172178,0.3572140479629244,-81.86181312855996,0.0008515461420480334,0.0007466518540031741,0.002626545991326267,0.03422520906448364,0.9739964940643311,-9.668278327960968
2026-09-11T19:08:13.975,3.4751472319999834,-356.3018493652344,-32067.166442871094,-128268.66577148438,-244.06676681518556,0.0,0.0,0.0,0.0,0.0,0.0,0.12394335865974426,1015.343994140625,44.619609117507935,0.0915527418255806,32.958987057209015,986.6825807213687,1,1789168093.8314285,38.99029118333333,-76.94090531,-9.675999999999998,0,1,7.263024999999999,5.139289,31.359999999999996,1,1,1789168093.9645262,0.7543980273734963,-0.6532924688421351,-0.04439569154496199,0.046060710170056904,172.67450798995284,0.3897182473835677,-81.80866523707505,-0.00032044245066615895,-0.0050790826562286985,0.002046224015038152,-0.10346015920639039,1.0236181438827514,-9.641604239521026
2026-09-11T19:08:14.010,3.5085569279999618,-356.3018493652344,-32067.166442871094,-128268.66577148438,-244.06676681518556,0.0,0.0,0.0,0.0,0.0,0.0,0.1281757652759552,1050.015869140625,46.14327549934387,0.0762939602136612,27.46582567691803,-164.41817909072105,1,1789168093.8314285,38.99029118333333,-76.94090531,-9.675999999999998,0,1,7.263024999999999,5.139289,31.359999999999996,1,1,1789168094.0045261,0.7546883673526792,-0.6529704089120641,-0.045143286101773504,0.04513531862845742,172.69876253178603,0.5267946077787884,-81.76754826172176,0.00033265975543011924,0.009047088710637807,0.021891664807764874,-0.073157610206604,1.0426430451965332,-9.662198204860687
2026-09-11T19:08:14.042,3.541964287999974,-356.3018493652344,-32067.166442871094,-128268.66577148438,-244.06676681518556,0.0,0.0,0.0,0.0,0.0,0.0,0.1319141685962677,1080.640869140625,47.48910069465637,0.1525879055261612,54.93164598941803,822.1487813610468,1,1789168093.8314285,38.99029118333333,-76.94090531,-9.675999999999998,0,1,7.263024999999999,5.139289,31.359999999999996,1,1,1789168094.0365262,0.754853501451495,-0.6527631748395958,-0.044434369347719486,0.04606534207427403,172.67147085361424,0.3978284597222839,-81.72901285608093,-0.00048171087355043494,0.020640089201159742,0.0124653160506687,0.07541313974380492,1.0751030572319031,-9.658471677799225
2026-09-11T19:08:14.076,3.5753650880000123,-356.3027648925781,-32067.24884033203,-128268.99536132812,-244.06739395141602,-0.00062713623046875,-0.02583135850727558,-0.017694480577483775,-0.03958142577282515,-0.5297621786742712,0.0,0.13587763905525208,1113.109619140625,48.91595005989075,0.1068115383386612,38.45215380191803,-493.3861520526816,1,1789168093.8314285,38.99029118333333,-76.94090531,-9.675999999999998,0,1,7.263024999999999,5.139289,31.359999999999996,1,1,1789168094.0645263,0.7550987427035699,-0.6524653502055671,-0.044513262723276506,0.04618901374075378,172.65495713151563,0.39822923566953694,-81.6848082048512,0.0016479398797330461,0.03152082082394279,0.01267510462675842,-0.14670748641967774,1.0860865054130555,-9.683772835216521
2026-09-11T19:08:14.110,3.6087657919999856,-356.3036193847656,-32067.325744628906,-128269.30297851562,-244.06797927856448,-0.0012124633789062501,-0.02583135850727558,-0.017694480577483775,-0.03958142577282515,0.0,0.0,0.1379890739917755,1130.406494140625,49.676066637039185,0.01525880303233862,5.493169091641903,-986.7751503172649,1,1789168093.8314285,38.99029118333333,-76.94090531,-9.675999999999998,0,1,7.263024999999999,5.139289,31.359999999999996,1,1,1789168094.1045263,0.7552286275624109,-0.6522365041961936,-0.04357780562542129,0.04814807951516647,172.55512351168366,0.1727208260679174,-81.64084869735633,0.000916297857297023,0.03885399620912217,0.011747985728099031,0.27958759611129763,1.2157304205513,-9.64376170255661
2026-09-11T19:08:14.143,3.642177599999968,-356.30450439453125,-32067.405395507812,-128269.62158203125,-244.06858551025394,-0.0018186950683593752,-0.02583135850727558,-0.017694480577483775,-0.03958142577282515,0.0,0.0,0.1380920708179474,1131.250244140625,49.71314549446106,0.0,0.0,-164.4080168198252,1,1789168093.8314285,38.99029118333333,-76.94090531,-9.675999999999998,0,1,7.263024999999999,5.139289,31.359999999999996,1,1,1789168094.1365263,0.7554491739913477,-0.6518692360324909,-0.043815300815672045,0.04942938442504755,172.42599451743345,0.10069598020302807,-81.58780047412434,-0.00016353735091186868,0.040008007910540815,0.002989574475741087,-0.07198081218719482,1.268882464427948,-9.657687145786285
2026-09-11T19:08:14.176,3.67557990399996,-356.30535888671875,-32067.482299804688,-128269.92919921875,-244.06917083740237,-0.002404022216796875,-0.02583135850727558,-0.017694480577483775,-0.03958142577282515,0.0,0.0,0.1380920708179474,1131.250244140625,49.71314549446106,0.0,0.0,0.0,1,1789168093.8314285,38.99029118333333,-76.94090531,-9.675999999999998,0,1,7.263024999999999,5.139289,31.359999999999996,1,1,1789168094.1645262,0.7556270743805791,-0.6515532746215641,-0.04424369517224131,0.05048316779352582,172.30225265258994,0.06179473100270229,-81.54447040707386,0.0011669271378834088,0.039556142167199486,0.006044598798431962,0.05933023347854614,1.3242900378417968,-9.63503378391266
2026-09-11T19:08:14.209,3.70898092799996,-356.30621337890625,-32067.559204101562,-128270.23681640625,-244.0697561645508,-0.0029893493652343754,-0.02583135850727558,-0.017694480577483775,-0.03958142577282515,0.0,0.0,0.13739779591560364,1125.562744140625,49.46320652961731,-0.015258791856467724,-5.493165068328381,-164.46097785290706,1,1789168093.8314285,38.99029118333333,-76.94090531,-9.675999999999998,0,1,7.263024999999999,5.139289,31.359999999999996,1,1,1789168094.2045262,0.7557861226026634,-0.6512099255339405,-0.044288222684640756,0.052454962575026444,172.12736492180304,-0.07869786033083782,-81.49310017409796,-0.002977880769752725,0.02084184926269029,0.006126280207425296,0.03187161302566528,1.3596920449256897,-9.602475705375673
2026-09-11T19:08:14.244,3.742389887999991,-356.3070983886719,-32067.63885498047,-128270.55541992188,-244.07036239624026,-0.0035955810546875002,-0.02583135850727558,-0.017694480577483775,-0.03958142577282515,0.0,0.0,0.13717463612556458,1123.734619140625,49.38286900520325,0.0,0.0,164.42191161662208,1,1789168093.8314285,38.99029118333333,-76.94090531,-9.675999999999998,0,1,7.263024999999999,5.139289,31.359999999999996,1,1,1789168094.2365263,0.755862723631199,-0.65102488683856,-0.045167960174329225,0.052896078449693205,172.0230154013116,-0.033906050175072346,-81.47430514431676,-0.004134335932124168,-0.001383522498055905,0.010399718880933412,0.0041187930679321295,1.3360580180358888,-9.579724277000427
2026-09-11T19:08:14.277,3.7758009599999696,-356.3079528808594,-32067.715759277344,-128270.86303710938,-244.07094772338868,-0.004180908203125,-0.02583135850727558,-0.017694480577483775,-0.03958142577282515,0.0,0.0,0.13717463612556458,1123.734619140625,49.38286900520325,0.0,0.0,0.0,1,1789168093.8314285,38.99029118333333,-76.94090531,-9.675999999999998,0,1,7.263024999999999,5.139289,31.359999999999996,1,1,1789168094.2645264,0.7559022449134476,-0.6509081471161704,-0.045812688746429374,0.05321257090600722,171.94713628688893,-0.000754202997820221,-81.46349222083562,-0.003746698305256227,-0.017136166194855924,0.012285023538937685,0.08159132934570312,1.3205635107803344,-9.600318242340089
2026-09-11T19:08:14.310,3.8092126399999984,-356.3377990722656,-32070.401916503906,-128281.60766601562,-244.09139236450198,-0.024625549316406252,-0.7030919194221497,-0.48161796480417257,-1.0773487043758323,-13.885069060468936,0.0,0.13717463612556458,1123.734619140625,49.38286900520325,0.0,0.0,0.0,1,1789168093.8314285,38.99029118333333,-76.94090531,-9.675999999999998,0,1,7.263024999999999,5.139289,31.359999999999996,1,1,1789168094.3045263,0.755827564077658,-0.6509423018289924,-0.045671359250677314,0.05397165936120864,171.89165176671213,-0.07021759593466417,-81.46713986792636,-0.001737475270360355,-0.031547524361498304,0.011952712849357967,0.21613856956481933,1.4216700739479065,-9.530789092693329
2026-09-11T19:08:14.343,3.8426156799999944,-356.3437805175781,-32070.94024658203,-128283.76098632812,-244.09548965454104,-0.02872283935546875,-0.20413875579833984,-0.1398350477218628,-0.31280209315019386,10.232090165516377,0.0,0.13656428456306458,1118.734619140625,49.16314244270325,0.0,0.0,0.0,1,1789168093.8314285,38.99029118333333,-76.94090531,-9.675999999999998,0,1,7.263024999999999,5.139289,31.359999999999996,1,1,1789168094.3365262,0.75581763239078,-0.6508492175059939,-0.04670528123973887,0.0543472109987992,171.78145122352902,-0.008154869987495657,-81.4641721817585,-0.003402344843837746,-0.04792988285241788,0.00582329104927908,0.08786758544921874,1.3923481899642944,-9.463613539085388
2026-09-11T19:08:14.376,3.8760182400000076,-356.3445739746094,-32071.011657714844,-128284.04663085938,-244.09603317260743,-0.029266357421875003,-0.07283525168895721,-0.0498921474069357,-0.11160555522310228,2.692694820842822,0.0,0.13448718190193176,1101.718994140625,48.415385484695435,-0.0457763746380806,-16.479494869709015,-493.36023555387703,1,1789168093.8314285,38.99029118333333,-76.94090531,-9.675999999999998,0,1,7.263024999999999,5.139289,31.359999999999996,1,1,1789168094.3645263,0.7557429469895386,-0.6508834092998906,-0.04811769596264844,0.053740793713572786,171.72832343066023,0.1587803665518454,-81.48481527992308,-0.0036459928074161546,-0.05068453601084053,0.015219271077390554,0.15827933361053467,1.4938470191383362,-9.76977715713501
2026-09-11T19:08:14.411,3.9094170239999926,-356.3470153808594,-32071.231384277344,-128284.92553710938,-244.09770553588868,-0.030938720703125002,-0.07283525168895721,-0.0498921474069357,-0.11160555522310228,0.0,0.0,0.13306239247322083,1090.047119140625,47.9024612903595,-0.0457763709127903,-16.479493528604507,4.015429146902152e-05,1,1789168093.8314285,38.99029118333333,-76.94090531,-9.675999999999998,0,1,7.263024999999999,5.139289,31.359999999999996,1,1,1789168094.4045262,0.7556004130364181,-0.650926834121735,-0.04839250965514091,0.054958506609318274,171.6017107976115,0.09069164429721834,-81.49446064099382,-0.005350655887839016,-0.032466963811448916,0.006344795429774987,-0.18465922254562378,1.4379491132164002,-9.664159534893036
2026-09-11T19:08:14.444,3.9428279360000147,-356.3547668457031,-32071.92901611328,-128287.71606445312,-244.10301528930665,-0.036248474121093756,-0.4852103292942047,-0.3323690755665303,-0.7434884474913429,-8.45463087506883,0.0,0.12883952260017395,1055.453369140625,46.38222813606262,-0.1831054836511612,-65.91797411441803,-1479.710598315329,1,1789168093.8314285,38.99029118333333,-76.94090531,-9.675999999999998,0,1,7.263024999999999,5.139289,31.359999999999996,1,1,1789168094.4365263,0.7555223144912045,-0.6509523339005858,-0.05004455996021667,0.05424604422095594,171.53974717980685,0.2862729848462388,-81.51705297158003,-0.004934918460013967,0.0018685494971851292,0.017952805751864073,-0.30341775600433346,1.5166965140151978,-9.591982589702607
2026-09-11T19:08:14.476,3.9762302720000093,-356.3851013183594,-32074.659118652344,-128298.63647460938,-244.1237944030762,-0.057027587890625,-0.5864875316619873,-0.40174395918846134,-0.8986756424222908,-2.0769470620839865,0.0,0.12406161427497864,1016.312744140625,44.66218113899231,-0.1373291164636612,-49.43848192691803,493.36346378596517,1,1789168093.8314285,38.99029118333333,-76.94090531,-9.675999999999998,0,1,7.263024999999999,5.139289,31.359999999999996,1,1,1789168094.4645262,0.7553636429033264,-0.6510704697521799,-0.04979759658790523,0.05525585734164213,171.4703719563963,0.18791181186940684,-81.53207761676717,-0.007374539688451641,0.026880688474590665,0.014337879805133418,0.25977816278457644,1.43108445810318,-9.628659461307526
2026-09-11T19:08:14.510,4.009631296000009,-356.3879699707031,-32074.91729736328,-128299.66918945312,-244.12575942993166,-0.058992614746093755,-0.2220260500907898,-0.15208784431219102,-0.34021081852225943,7.474504819860372,0.0,0.12068560719490051,988.656494140625,43.446818590164185,-0.061035171151161194,-21.97266161441803,822.3047386960407,1,1789168093.8314285,38.99029118333333,-76.94090531,-9.675999999999998,0,1,7.263024999999999,5.139289,31.359999999999996,1,1,1789168094.5045261,0.7552454784402183,-0.6511804202424285,-0.05072526260904525,0.054729108541465246,171.44651732895582,0.30613295876633007,-81.55939319983466,-0.007463202414452952,0.04354997909453811,0.02728176513669896,-0.34235015714645384,1.3643992370033264,-9.631993722362518
2026-09-11T19:08:14.543,4.043035487999987,-356.40020751953125,-32076.018676757812,-128304.07470703125,-244.13414215087892,-0.06737533569335938,-0.5639657378196716,-0.3863165304064751,-0.8641654670867812,-7.011954849691937,0.0,0.12020686268806458,984.734619140625,43.27447056770325,0.0,0.0,657.7815626982598,1,1789168093.8314285,38.99029118333333,-76.94090531,-9.675999999999998,0,1,7.263024999999999,5.139289,31.359999999999996,1,1,1789168094.5365262,0.7549808507585583,-0.651588489958394,-0.04937570273974094,0.05475759966050826,171.54527141898842,0.18315066968747748,-81.60540497250223,-0.0075684457683482115,0.04030453935045466,0.03467899410542653,0.14376549137115477,1.309580062599182,-9.56403363674164
2026-09-11T19:08:14.578,4.076436383999976,-356.42694091796875,-32078.424682617188,-128313.69873046875,-244.15245452880862,-0.08568771362304688,-0.5414363741874695,-0.3708839163184166,-0.8296436925519332,0.4620419191168857,0.0,0.12020686268806458,984.734619140625,43.27447056770325,0.0,0.0,0.0,1,1789168093.8314285,38.99029118333333,-76.94090531,-9.675999999999998,0,1,7.263024999999999,5.139289,31.359999999999996,1,1,1789168094.5765262,0.7546317815480316,-0.6519483891616789,-0.0485468815293005,0.056012252596337034,171.49837978967378,0.01351284802185102,-81.6503862405351,-0.01190244736690053,0.041307405538650595,0.029164626333750446,0.04001113265991211,1.5136564524650573,-9.447726765823365
2026-09-11T19:08:14.612,4.109848032000002,-356.4357604980469,-32079.21844482422,-128316.87377929688,-244.15849594116213,-0.0917291259765625,-0.3606168031692505,-0.2470225101709366,-0.5525736179557452,3.707132499042939,0.0,0.12020686268806458,984.734619140625,43.27447056770325,0.0,0.0,0.0,1,1789168093.8314285,38.99029118333333,-76.94090531,-9.675999999999998,0,1,7.263024999999999,5.139289,31.359999999999996,1,1,1789168094.6045263,0.7544223779698179,-0.6521525153435744,-0.04894108934787954,0.0561136536224214,171.4599365842417,0.03753935532147685,-81.685665278462,-0.004577125963355129,0.036802012607552434,0.03954933538311671,-0.16563432123184202,1.486295898513794,-9.82940159011841
2026-09-11T19:08:14.644,4.143259711999974,-356.4558410644531,-32081.02569580078,-128324.10278320312,-244.1722511291504,-0.10548431396484376,-0.5950531363487244,-0.4076113983988762,-0.9118007301334909,-4.806369755369211,0.0,0.12045672535896301,986.781494140625,43.364421129226685,0.015258789993822575,5.493164397776127,164.40850618049544,1,1789168093.8314285,38.99029118333333,-76.94090531,-9.675999999999998,0,1,7.263024999999999,5.139289,31.359999999999996,1,1,1789168094.6365263,0.7539155715229227,-0.6525497977382794,-0.04867554497938017,0.05848729612450856,171.27361242634868,-0.1682919201691864,-81.74265288635281,-0.003658210112180115,0.031338259384184185,0.04150829293555514,0.33146477546691894,1.659187140865326,-9.58649086561203
2026-09-11T19:08:14.677,4.176663103999999,-356.4792175292969,-32083.12957763672,-128332.51831054688,-244.1882640075684,-0.12149719238281251,-0.7000958323478699,-0.4795656451582909,-1.0727577960770633,-2.154100001561532,0.0,0.12051394581794739,987.250244140625,43.38502049446106,0.0,0.0,-164.44929897454685,1,1789168093.8314285,38.99029118333333,-76.94090531,-9.675999999999998,0,1,7.263024999999999,5.139289,31.359999999999996,1,1,1789168094.6645262,0.7536067682978526,-0.6528698791407306,-0.04940449097369423,0.058283410659162836,171.2365638106088,-0.09395646780247886,-81.79933472916825,-0.002337694000121205,0.017915106640020995,0.04175996941369272,0.6320386029243469,2.0916604129981997,-9.819398806953432
2026-09-11T19:08:14.710,4.21006159999996,-356.4978332519531,-32084.80499267578,-128339.21997070312,-244.2010157775879,-0.13424896240234377,-0.5712285041809082,-0.39129152536392214,-0.8752942138598822,2.6430567350838636,0.0,0.12051394581794739,987.250244140625,43.38502049446106,0.0,0.0,0.0,1,1789168093.8314285,38.99029118333333,-76.94090531,-9.675999999999998,0,1,7.263024999999999,5.139289,31.359999999999996,1,1,1789168094.7045262,0.7529792871123479,-0.653444413643145,-0.05011164876134279,0.05934150416670204,171.09152397302935,-0.11955813959358719,-81.89435635059263,-0.004681845718474789,0.029116106180545005,0.052357783164727494,-0.08100293033599854,1.506497597846985,-9.7640893000412
2026-09-11T19:08:14.744,4.243464127999971,-356.5216369628906,-32086.947326660156,-128347.78930664062,-244.2173213195801,-0.15055450439453127,-0.7013934254646301,-0.48045449644327165,-1.0747460997746758,-2.669347993041766,0.0,0.12051394581794739,987.250244140625,43.38502049446106,0.0,0.0,0.0,1,1789168093.8314285,38.99029118333333,-76.94090531,-9.675999999999998,0,1,7.263024999999999,5.139289,31.359999999999996,1,1,1789168094.7365263,0.7524780949712586,-0.65407191058164,-0.04977114015596918,0.059071871344012906,171.14068435404064,-0.13585518400688448,-81.98537129551531,-0.003797487386489262,0.019263198954261415,0.051499081172746285,-0.3797134942626953,1.316640850715637,-9.749575457801818
2026-09-11T19:08:14.779,4.276874432,-356.5484924316406,-32089.364318847656,-128357.45727539062,-244.23571731567384,-0.16895050048828125,-0.7803025841712952,-0.5345072701573372,-1.1956587109818733,-1.6178474076147058,0.0,0.12032893300056458,985.734619140625,43.31841588020325,0.0,0.0,0.0,1,1789168093.8314285,38.99029118333333,-76.94090531,-9.675999999999998,0,1,7.263024999999999,5.139289,31.359999999999996,1,1,1789168094.7765262,0.7518342467940763,-0.6549480963612094,-0.048655177086677735,0.05848871825468621,171.27559933648382,-0.19783656184617093,-82.10534468306201,0.04354299777753013,0.01582926365096257,0.06468102941428386,0.4447315848350525,-0.07747253627777101,-11.506240701274873
2026-09-11T19:08:14.812,4.310282879999988,-356.5709228515625,-32091.383056640625,-128365.5322265625,-244.25108215332034,-0.18431533813476564,-0.7028085589408875,-0.48142386287450795,-1.0769145107250075,1.5889216788174996,0.0,0.12025836110115051,985.156494140625,43.293009996414185,-0.015258789993822575,-5.493164397776127,-164.42441138774163,1,1789168093.8314285,38.99029118333333,-76.94090531,-9.675999999999998,0,1,7.263024999999999,5.139289,31.359999999999996,1,1,1789168094.8045263,0.7515647176983992,-0.6555172742056757,-0.04778929869185817,0.05624732224228181,171.5352625644881,-0.10935944099285147,-82.18199990001723,0.031061450164817882,-0.007683637498979837,0.03687514190321099,-0.12591738807678224,0.7047058806228637,-8.47078827671051
2026-09-11T19:08:14.844,4.343692159999989,-356.5891418457031,-32093.02276611328,-128372.09106445312,-244.26356216430665,-0.19679534912109375,-0.5986146330833435,-0.41005102366209034,-0.9172580164237873,2.1363177899199255,0.0,0.11959651112556458,979.734619140625,43.05474400520325,0.0,0.0,164.42031668374779,1,1789168094.8327239,38.990291418333335,-76.94090614333334,-9.658000000000001,0,1,7.327849,6.260003999999999,37.687321000000004,1,1,1789168094.8365262,0.7514401471361667,-0.6558671345452733,-0.04588774506427197,0.055410485905330195,171.7513764015692,-0.21314339395952991,-82.21442286341285,0.03595936764468957,0.040868629764699224,0.04523160382883465,0.9350640929222107,1.152085261001587,-9.469987861690521
2026-09-11T19:08:14.877,4.377093215999992,-356.6141662597656,-32095.274963378906,-128381.09985351562,-244.28070388793947,-0.21393707275390628,-0.703657329082489,-0.48200527042150504,-1.0782150823673597,-2.1542506548119156,0.0,0.11860468983650208,971.609619140625,42.69768834114075,-0.0305175818502903,-10.986329466104507,-328.92162050516333,1,1789168094.8327239,38.990291418333335,-76.94090614333334,-9.658000000000001,0,1,7.327849,6.260003999999999,37.687321000000004,1,1,1789168094.8645263,0.7513172579926637,-0.6561149411390255,-0.04402534720643198,0.055653667083772174,171.87102717135417,-0.39399172963748114,-82.23252693116389,0.02571829919276244,0.06017214582468171,0.028401393851853328,0.631352137413025,1.24819043258667,-9.704562933559417
2026-09-11T19:08:14.912,4.4104920959999845,-356.6364440917969,-32097.27996826172,-128389.11987304688,-244.29596420288087,-0.2291973876953125,-0.6778838634490967,-0.46435044646263124,-1.0387223659239233,0.5286052693646477,0.0,0.11825373768806458,968.734619140625,42.57134556770325,0.0,0.0,328.94305036895963,1,1789168094.8327239,38.990291418333335,-76.94090614333334,-9.658000000000001,0,1,7.327849,6.260003999999999,37.687321000000004,1,1,1789168094.9045262,0.7508380168374575,-0.6565580158943634,-0.04323371863464499,0.05748643152493429,171.77244823949798,-0.6052446649872921,-82.29155093152096,0.011075161301455218,0.023841895713943337,0.04551138010792934,0.35156840829849245,1.7651970291137695,-9.610811358013153
2026-09-11T19:08:14.945,4.443902079999987,-356.66192626953125,-32099.573364257812,-128398.29345703125,-244.31341949462893,-0.2466526794433594,-0.7830960750579834,-0.5364208114147186,-1.1999391808668531,-2.157150537757897,0.0,0.11825373768806458,968.734619140625,42.57134556770325,0.0,0.0,0.0,1,1789168094.8327239,38.990291418333335,-76.94090614333334,-9.658000000000001,0,1,7.327849,6.260003999999999,37.687321000000004,1,1,1789168094.9365263,0.7505351545133488,-0.656766840455172,-0.04433590661783342,0.05821191031506366,171.62658291873254,-0.5679245954239049,-82.33447744360187,0.0052523938509517355,0.024809331718323797,0.053000238862386605,0.14111769582748412,1.5560211811637878,-9.520884376029967
2026-09-11T19:08:14.979,4.477311552000003,-356.6899719238281,-32102.09747314453,-128408.38989257812,-244.33263076782228,-0.26586395263671875,-0.8347587585449219,-0.5718097496032716,-1.2791019810380972,-1.0592486522545252,0.0,0.11825373768806458,968.734619140625,42.57134556770325,0.0,0.0,0.0,1,1789168094.8327239,38.990291418333335,-76.94090614333334,-9.658000000000001,0,1,7.327849,6.260003999999999,37.687321000000004,1,1,1789168094.9765263,0.7500658076772347,-0.6571126062520732,-0.045311174519517425,0.05959198202583326,171.4337510313358,-0.592710189668731,-82.39707921441321,0.0011051424823628096,-0.003795916590162467,0.051414781769874955,0.16092712915420535,1.4471673643684388,-9.761637637500764
2026-09-11T19:08:15.011,4.510910911999986,-356.7155456542969,-32104.39910888672,-128417.59643554688,-244.35014877319338,-0.2833819580078125,-0.7826617956161499,-0.5361233299970627,-1.1992737338874868,1.0621160523958657,0.0,0.11825373768806458,968.734619140625,42.57134556770325,0.0,0.0,0.0,1,1789168094.8327239,38.990291418333335,-76.94090614333334,-9.658000000000001,0,1,7.327849,6.260003999999999,37.687321000000004,1,1,1789168095.0045261,0.7497821829297373,-0.6574776159079606,-0.0450346172638261,0.05934430039188987,171.47637063394794,-0.6017766612687268,-82.4496508075725,0.003156427952231745,0.014438934368823889,0.05367288875610522,0.2544825716972351,1.2515246936416626,-9.609732626495362
2026-09-11T19:08:15.044,4.544314527999973,-356.7449645996094,-32107.046813964844,-128428.18725585938,-244.37030075073244,-0.303533935546875,-0.860956609249115,-0.5897552773356438,-1.3192449833027093,-1.6055731013852574,0.0,0.11825373768806458,968.734619140625,42.57134556770325,0.0,0.0,0.0,1,1789168094.8327239,38.990291418333335,-76.94090614333334,-9.658000000000001,0,1,7.327849,6.260003999999999,37.687321000000004,1,1,1789168095.0365262,0.7494634131649147,-0.6578654582323784,-0.045592600928532,0.058642526654903555,171.49508792648078,-0.5052300011148699,-82.51458716912789,0.005927487205623141,0.03199537584756005,0.05637989442594842,-0.1378815012741089,1.3540041878318787,-9.689656825313568
2026-09-11T19:08:15.080,4.577719167999987,-356.7747497558594,-32109.727478027344,-128438.90991210938,-244.39070358276368,-0.323936767578125,-0.8869895935058594,-0.6075878715515137,-1.359135360485668,-0.5338358448365867,0.0,0.11825373768806458,968.734619140625,42.57134556770325,0.0,0.0,0.0,1,1789168094.8327239,38.990291418333335,-76.94090614333334,-9.658000000000001,0,1,7.327849,6.260003999999999,37.687321000000004,1,1,1789168095.0765262,0.7487980939150514,-0.6583175202278467,-0.04604964399484298,0.06163511497671582,171.20228372167477,-0.6982913108125406,-82.58792849717577,0.001905899543177808,0.03582131210085682,0.057075233599942966,0.2930227068328857,1.7913807850456238,-9.485188169441223
2026-09-11T19:08:15.113,4.611129472000016,-356.8077087402344,-32112.693786621094,-128450.77514648438,-244.41328048706058,-0.34651367187500004,-0.965427041053772,-0.6613175231218339,-1.4793251680427548,-1.608176075568606,0.0,0.11825373768806458,968.734619140625,42.57134556770325,0.0,0.0,0.0,1,1789168094.8327239,38.990291418333335,-76.94090614333334,-9.658000000000001,0,1,7.327849,6.260003999999999,37.687321000000004,1,1,1789168095.1045263,0.7483418076812376,-0.6586272283709206,-0.04733057107301185,0.06288505360353355,170.99755019506364,-0.6873783075777012,-82.6489001339919,-0.00139434353941827,0.030805759429400715,0.061566140298249576,0.23202534282684326,1.6628156014251707,-9.49901554616928
2026-09-11T19:08:15.146,4.644538463999993,-356.8419494628906,-32115.775451660156,-128463.10180664062,-244.4367353820801,-0.3699685668945313,-1.017524003982544,-0.6970039427280427,-1.559153415193365,-1.0681681029536423,0.0,0.11825373768806458,968.734619140625,42.57134556770325,0.0,0.0,0.0,1,1789168094.8327239,38.990291418333335,-76.94090614333334,-9.658000000000001,0,1,7.327849,6.260003999999999,37.687321000000004,1,1,1789168095.1365263,0.747810374863532,-0.6591942161154002,-0.047535513364661414,0.06311104226381313,170.96301629917934,-0.693855552528304,-82.73746520875616,-0.0008827875356587319,0.010393784761476631,0.0675897951456576,0.04609125576019287,1.3492969957542418,-9.744770199222565
2026-09-11T19:08:15.178,4.677944448000005,-356.87615966796875,-32118.854370117188,-128475.41748046875,-244.46016937255862,-0.3934025573730469,-1.0180113315582275,-0.697337762117386,-1.5599001479003785,-0.009992802168113659,0.0,0.11825373768806458,968.734619140625,42.57134556770325,0.0,0.0,0.0,1,1789168094.8327239,38.990291418333335,-76.94090614333334,-9.658000000000001,0,1,7.327849,6.260003999999999,37.687321000000004,1,1,1789168095.1765263,0.7470700997396529,-0.6599509885285796,-0.04776111529959183,0.06379525594019406,170.8875799512715,-0.7357944103570356,-82.85519754992818,0.0021956241990088664,0.0013842206297567028,0.06595023284633413,-0.1410196293258667,1.6846844312858582,-9.618068279132844
2026-09-11T19:08:15.212,4.7113476480000145,-356.9143981933594,-32122.295837402344,-128489.18334960938,-244.4863627624512,-0.41959594726562505,-1.122413158416748,-0.7688530135154724,-1.7198752091881522,-2.1409700686780475,0.0,0.11825373768806458,968.734619140625,42.57134556770325,0.0,0.0,0.0,1,1789168094.8327239,38.990291418333335,-76.94090614333334,-9.658000000000001,0,1,7.327849,6.260003999999999,37.687321000000004,1,1,1789168095.2045262,0.7465137710537119,-0.6604832208938385,-0.04830710993388079,0.06438577230027814,170.79570591243635,-0.7407174904935823,-82.94240891506725,-0.0014233160050013756,0.006393839181756027,0.06884957379974711,-0.706569144153595,1.4047045691680908,-9.352994525260925
2026-09-11T19:08:15.245,4.7447526400000015,-356.9520263671875,-32125.682373046875,-128502.7294921875,-244.51213806152344,-0.44537124633789066,-1.1486788988113403,-0.7868450456857682,-1.7601222389176971,-0.5386030977137415,0.0,0.11825373768806458,968.734619140625,42.57134556770325,0.0,0.0,0.0,1,1789168094.8327239,38.990291418333335,-76.94090614333334,-9.658000000000001,0,1,7.327849,6.260003999999999,37.687321000000004,1,1,1789168095.2365263,0.7458525459302368,-0.6610795073798315,-0.04906440963154378,0.0653494327391738,170.65567586186748,-0.7570546577766376,-83.04188596076685,-0.0038229691935683795,0.020423842906837644,0.07208838129267298,0.2613472268104553,1.7145947142791749,-9.486561100463867
2026-09-11T19:08:15.280,4.778174432000014,-356.9931945800781,-32129.38751220703,-128517.55004882812,-244.54033828735353,-0.4735714721679688,-1.2016876935958862,-0.8231560701131821,-1.8413476872610532,-1.0864475617405562,0.0,0.11759188771247864,963.312744140625,42.33307957649231,-0.0305175818502903,-10.986329466104507,-328.7175465067908,1,1789168094.8327239,38.990291418333335,-76.94090614333334,-9.658000000000001,0,1,7.327849,6.260003999999999,37.687321000000004,1,1,1789168095.2765262,0.744992851719615,-0.6618454509845055,-0.04938969703477772,0.06713350672060032,170.47813621928657,-0.8751737546849875,-83.16235198683985,0.0009930923443847734,0.046697505867584685,0.07315896625584631,0.11385520837783814,1.7699042211914062,-9.909227722434997
2026-09-11T19:08:15.312,4.811584831999994,-357.0366516113281,-32133.29864501953,-128533.19458007812,-244.5701063537598,-0.5033395385742188,-1.3063596487045288,-0.8948563593626023,-2.001736666433879,-2.1460470167811114,0.0,0.1162128746509552,952.015869140625,41.83663487434387,-0.0610351637005806,-21.972658932209015,-328.82962987905466,1,1789168094.8327239,38.990291418333335,-76.94090614333334,-9.658000000000001,0,1,7.327849,6.260003999999999,37.687321000000004,1,1,1789168095.3045263,0.7443468356314898,-0.6626126671051518,-0.04812178113578177,0.06765009872502271,170.5312777314598,-1.032126625973045,-83.26505110010156,-0.01587987819927041,0.0380132711084365,0.08007989487170462,0.5970288618469238,1.3548867863464356,-9.405165904121398
2026-09-11T19:08:15.345,4.844994783999994,-357.07940673828125,-32137.146606445312,-128548.58642578125,-244.59939361572268,-0.5326268005371094,-1.280311107635498,-0.8770131087303162,-1.9618224515262959,0.5340699271967331,0.0,0.11290362477302551,924.906494140625,40.645304918289185,-0.1373291164636612,-49.43848192691803,-822.0850779644762,1,1789168094.8327239,38.990291418333335,-76.94090614333334,-9.658000000000001,0,1,7.327849,6.260003999999999,37.687321000000004,1,1,1789168095.3365262,0.7437243878198607,-0.6633005781274949,-0.047732484950704944,0.0680293164608852,170.52933713640113,-1.1029055004020933,-83.36584427852475,-0.011485313675673885,0.03710814335835224,0.0737768128110523,-0.1859340870666504,1.421768140449524,-9.425269536952973
2026-09-11T19:08:15.379,4.878399263999995,-357.1247863769531,-32141.23077392578,-128564.92309570312,-244.6304786682129,-0.5637118530273438,-1.333319902420044,-0.9133241331577302,-2.0430478998696517,-1.0870106173606748,0.0,0.1065082848072052,872.515869140625,38.34298253059387,-0.2441406399011612,-87.89063036441803,-1151.1075292145922,1,1789168094.8327239,38.990291418333335,-76.94090614333334,-9.658000000000001,0,1,7.327849,6.260003999999999,37.687321000000004,1,1,1789168095.3765264,0.7429991519117155,-0.6640399232538524,-0.047165891093965746,0.06912755818630746,170.47938166406522,-1.2444752442442406,-83.47253165076927,-0.01608530345223014,0.03377665888214546,0.06279781915138198,0.25713036724090577,1.6155475476455687,-9.719959374313355
2026-09-11T19:08:15.413,4.9118006079999645,-357.1717529296875,-32145.457763671875,-128581.8310546875,-244.66265075683594,-0.5958839416503907,-1.412229061126709,-0.9673769068717958,-2.163960511076849,-1.6182813995183871,0.0,0.09802821278572083,803.047119140625,35.2901566028595,-0.1983642876148224,-71.41114354133606,493.3779557821704,1,1789168094.8327239,38.990291418333335,-76.94090614333334,-9.658000000000001,0,1,7.327849,6.260003999999999,37.687321000000004,1,1,1789168095.4045262,0.7425432065486178,-0.6644220429178541,-0.0468589332108255,0.07054910114030619,170.38141895162588,-1.3843543565937662,-83.52739847565226,-0.008937482033612562,0.031002807101950875,0.05674798436519403,0.01441577573776245,1.4671729306983947,-9.668768660469055
2026-09-11T19:08:15.446,4.9452237759999775,-357.22088623046875,-32149.879760742188,-128599.51904296875,-244.69630706787112,-0.6295402526855469,-1.4910112619400024,-1.0213427144289018,-2.2846785845313633,-1.614622753806133,0.0,0.09307864308357239,762.500244140625,33.50831151008606,-0.09155276417732239,-32.95899510383606,1150.4639068769618,1,1789168094.8327239,38.990291418333335,-76.94090614333334,-9.658000000000001,0,1,7.327849,6.260003999999999,37.687321000000004,1,1,1789168095.4365263,0.7422113376820867,-0.6647900651888907,-0.04717548778866173,0.0703631494052086,170.37386264252902,-1.348012244166419,-83.58735821554542,-0.003301115747222075,0.020914804025423648,0.05333726194094671,-0.18456115604400636,1.4829616374588013,-9.820673671474458
2026-09-11T19:08:15.479,4.978627391999964,-357.26837158203125,-32154.153442382812,-128616.61376953125,-244.7288345336914,-0.6620677185058594,-1.4394644498825073,-0.9860331481695176,-2.2056933343090472,1.0570582017048118,0.0,0.09096339344978333,745.172119140625,32.746821641922,-0.015258789993822575,-5.493164397776127,822.2412419682566,1,1789168094.8327239,38.990291418333335,-76.94090614333334,-9.658000000000001,0,1,7.327849,6.260003999999999,37.687321000000004,1,1,1789168095.4765263,0.7416439044253846,-0.665406568340435,-0.04626282125432619,0.07112080713593813,170.3797968069901,-1.4914300632781166,-83.67171162297826,-0.006883927635716034,0.012092513722442712,0.05690122427351914,0.769037505683899,1.6466346286582947,-10.135369075164794
2026-09-11T19:08:15.513,5.012029183999971,-357.3191833496094,-32158.726501464844,-128634.90600585938,-244.76364059448244,-0.6968737792968751,-1.4925422668457031,-1.0223914527893068,-2.2870245454306226,-1.0885135929168746,0.0,0.09066584706306458,742.734619140625,32.63970494270325,0.0,0.0,164.45717636272514,1,1789168094.8327239,38.990291418333335,-76.94090614333334,-9.658000000000001,0,1,7.327849,6.260003999999999,37.687321000000004,1,1,1789168095.5045261,0.7413246335108491,-0.6658995170878603,-0.04557467303059405,0.07027496047892443,170.5059446218599,-1.4910542630858075,-83.74010857355206,-0.003627317784419815,-0.008164301174979073,0.05418845901714434,0.09365350904464721,0.9020156818771363,-9.467830398654938
2026-09-11T19:08:15.547,5.045449375999965,-357.3691101074219,-32163.21990966797,-128652.87963867188,-244.797840423584,-0.7310736083984376,-1.4672561883926392,-1.005070489048958,-2.2482786530264782,0.51827840307895,0.0,0.09040072560310364,740.562744140625,32.54426121711731,0.0,0.0,0.0,1,1789168094.8327239,38.990291418333335,-76.94090614333334,-9.658000000000001,0,1,7.327849,6.260003999999999,37.687321000000004,1,1,1789168095.5365262,0.7410156053530635,-0.6665404181357372,-0.04433306929588131,0.0682225958277472,170.7780905157686,-1.4464849195632203,-83.8258294656723,-0.000984016632274403,0.006007772351214882,0.054507679737334114,-0.20790098342895508,0.6750897971343994,-10.317576635169983
2026-09-11T19:08:15.580,5.078867935999995,-357.4192199707031,-32167.72979736328,-128670.91918945312,-244.83216567993165,-0.7653988647460938,-1.5201324224472046,-1.0412907093763353,-2.329300978382995,-1.0838354593179735,0.0,0.0897388756275177,735.140869140625,32.30599522590637,-0.0610351599752903,-21.972657591104507,-657.4986352220152,1,1789168094.8327239,38.990291418333335,-76.94090614333334,-9.658000000000001,0,1,7.327849,6.260003999999999,37.687321000000004,1,1,1789168095.5765262,0.7403467590628185,-0.6669866959182096,-0.044452455383480506,0.07098875279697506,170.53299704691653,-1.65473989828395,-83.89505994050744,-0.025763328687463897,0.018479546120115962,0.057400388439589514,0.1869147520828247,2.114215708370209,-9.334656089458466
2026-09-11T19:08:15.613,5.112285119999967,-357.4710388183594,-32172.393493652344,-128689.57397460938,-244.8676615905762,-0.800894775390625,-1.5461759567260742,-1.0591305303573608,-2.3692075213792045,-0.5338517147656775,0.0,0.08846285939216614,724.687744140625,31.84662938117981,-0.0762939527630806,-27.465822994709015,-164.38145726489125,1,1789168094.8327239,38.990291418333335,-76.94090614333334,-9.658000000000001,0,1,7.327849,6.260003999999999,37.687321000000004,1,1,1789168095.6045263,0.7400636856247641,-0.6675194787245958,-0.04327661255798568,0.06964640369925927,170.7391858576853,-1.657555363026325,-83.96512733083094,-0.020475679185621876,0.022917569342087142,0.055173697379895144,0.30008349494934083,0.6838177157783508,-8.652701637210846
2026-09-11T19:08:15.646,5.145692639999993,-357.5204772949219,-32176.84295654297,-128707.37182617188,-244.9015269470215,-0.8347601318359376,-1.494369626045227,-1.0236431938409807,-2.2898246104173667,1.0622559386734745,0.0,0.08585551381111145,703.328369140625,30.907984972000122,-0.0762939527630806,-27.465822994709015,0.0,1,1789168094.8327239,38.990291418333335,-76.94090614333334,-9.658000000000001,0,1,7.327849,6.260003999999999,37.687321000000004,1,1,1789168095.6365263,0.7396601721224804,-0.668026989488241,-0.04140740053530758,0.07020112728389072,170.83623894504484,-1.8646011577320858,-84.02434621055953,-0.013312324336661548,0.025380054383725942,0.05477628590921604,1.5367020803451539,1.1653242387199403,-10.58078712551117
2026-09-11T19:08:15.679,5.179098207999971,-357.5712890625,-32181.416015625,-128725.6640625,-244.93633300781252,-0.8695661926269532,-1.495313048362732,-1.0242894381284715,-2.2912702177175874,-0.01934540635534937,0.0,0.08204272389411926,672.093994140625,29.535380601882935,-0.1373291164636612,-49.43848192691803,-657.7543878979571,1,1789168094.8327239,38.990291418333335,-76.94090614333334,-9.658000000000001,0,1,7.327849,6.260003999999999,37.687321000000004,1,1,1789168095.6765263,0.7395193477179892,-0.6683098529916234,-0.039656708160914315,0.07000300167074852,170.98815893091555,-2.0008077270384232,-84.05108189678087,-0.018572921235097656,0.03561449058449549,0.042539258924708195,0.39599253353118896,1.0145960257339477,-10.204407892303466
2026-09-11T19:08:15.714,5.21251619200001,-357.6236267089844,-32186.126403808594,-128744.50561523438,-244.97218429565433,-0.90541748046875,-1.5478345155715942,-1.0602666431665422,-2.3717489333539303,-1.0765821492412255,0.0,0.07880976796150208,645.609619140625,28.371516466140747,-0.01525880303233862,-5.493169091641903,1315.019865807138,1,1789168094.8327239,38.990291418333335,-76.94090614333334,-9.658000000000001,0,1,7.327849,6.260003999999999,37.687321000000004,1,1,1789168095.7045262,0.7393972893534264,-0.6683223993589071,-0.04019954778024186,0.07085771214358445,170.8734748522797,-2.0209385889891576,-84.05793894583827,-0.009170832554604205,0.03950762201399404,0.039420879150169924,0.5603519902420044,1.5338581517982481,-9.3241629737854
2026-09-11T19:08:15.748,5.245939264000015,-357.6768493652344,-32190.916442871094,-128763.66577148438,-245.00864181518557,-0.941875,-1.5490480661392212,-1.0610979253053665,-2.373608458539203,-0.024871506090888475,0.0,0.07841494679450989,642.375244140625,28.22938084602356,-0.015258789993822575,-5.493164397776127,0.00014043789200649488,1,1789168094.8327239,38.990291418333335,-76.94090614333334,-9.658000000000001,0,1,7.327849,6.260003999999999,37.687321000000004,1,1,1789168095.7365263,0.739217673698115,-0.6685145045392442,-0.04046528466586834,0.07076827573077107,170.86125501258124,-1.9939478196981821,-84.09011311291346,-0.010891552664145415,0.05003474993032304,0.04352973327521497,-0.3721623736381531,1.1876834010887145,-9.626305865268707
2026-09-11T19:08:15.780,5.279358271999968,-357.7301940917969,-32195.71746826172,-128782.86987304688,-245.04518295288088,-0.9784161376953125,-1.6540910005569458,-1.133052335381508,-2.534565889811889,-2.1530983228539498,0.0,0.07772639393806458,636.734619140625,27.981501817703247,0.0,0.0,164.37245527407188,1,1789168094.8327239,38.990291418333335,-76.94090614333334,-9.658000000000001,0,1,7.327849,6.260003999999999,37.687321000000004,1,1,1789168095.7765262,0.7385537885265568,-0.6687505435715543,-0.04158015244080982,0.07471347166890051,170.4390588823081,-2.20706304688311,-84.13623824160119,-0.03694896933057036,0.04194253085345133,0.0626032149397846,0.44836004539489743,1.966135290927887,-10.265601389312744
2026-09-11T19:08:15.813,5.312758271999996,-357.78704833984375,-32200.834350585938,-128803.33740234375,-245.084128112793,-1.017361297607422,-1.7330107688903809,-1.187112376689911,-2.6554947581646156,-1.6185641110286346,0.0,0.07772639393806458,636.734619140625,27.981501817703247,0.0,0.0,0.0,1,1789168094.8327239,38.990291418333335,-76.94090614333334,-9.658000000000001,0,1,7.327849,6.260003999999999,37.687321000000004,1,1,1789168095.8045263,0.7382736013406499,-0.6687980280416985,-0.04267849343551858,0.07641880298144478,170.20908402745857,-2.2466091248581392,-84.15407078970757,-0.03027186321121565,0.05488624165209168,0.04074785298046121,0.4333558706474304,1.8324706492233276,-9.349169931697846
2026-09-11T19:08:15.847,5.346167072000014,-357.8470153808594,-32206.231384277344,-128824.92553710938,-245.12520553588868,-1.0584387207031252,-1.8117929697036743,-1.241078184247017,-2.7762128316191297,-1.6153171486876876,0.0,0.07765582203865051,636.156494140625,27.956095933914185,-0.015258789993822575,-5.493164397776127,-164.4226789879668,1,1789168094.8327239,38.990291418333335,-76.94090614333334,-9.658000000000001,0,1,7.327849,6.260003999999999,37.687321000000004,1,1,1789168095.8365262,0.7376767940137909,-0.6691543225708525,-0.0425035248464013,0.07911315019584157,169.99322075224322,-2.4742325957757703,-84.20635238507072,-0.03064082581508725,0.07191803715767833,0.058993699513735134,1.3464530672073365,1.6624233354187012,-9.637289313449859
2026-09-11T19:08:15.882,5.379585759999998,-357.90679931640625,-32211.611938476562,-128846.44775390625,-245.1661575317383,-1.0993907165527346,-1.8394254446029663,-1.260006429553032,-2.8185541104890626,-0.5663970203146307,0.0,0.07479289174079895,612.703369140625,26.925441026687622,-0.1068115383386612,-38.45215380191803,-986.2442656084613,1,1789168094.8327239,38.990291418333335,-76.94090614333334,-9.658000000000001,0,1,7.327849,6.260003999999999,37.687321000000004,1,1,1789168095.8765264,0.7373647415105504,-0.669568046390738,-0.04128906930467344,0.07916490374859123,170.08343475131014,-2.5861995835123452,-84.25797379906307,-0.011739433614764259,0.09487505094086056,0.047667210799992726,0.16985118080139158,1.6709551210594178,-9.77242495267868
2026-09-11T19:08:15.914,5.412995391999971,-357.9652099609375,-32216.868896484375,-128867.4755859375,-245.2061688232422,-1.1394020080566407,-1.761714220046997,-1.206774240732193,-2.6994770954102356,1.5933186220333664,0.0,0.07087519764900208,580.609619140625,25.515071153640747,-0.1220703274011612,-43.94531786441803,-164.41857433522262,1,1789168095.8952515,38.990292806666666,-76.94091069333334,-9.640999999999998,0,1,6.604899999999999,7.011904,41.770369,1,1,1789168095.9045262,0.7372110103493427,-0.6698589762833286,-0.039966424302199564,0.0788134699201142,170.21606821453085,-2.674417593710141,-84.29010244198626,-0.017568135184724522,0.08580265495606883,0.05322433913834267,0.6724420015907289,1.1313932291603088,-10.126543090019227
2026-09-11T19:08:15.947,5.446403712000006,-358.0256652832031,-32222.30987548828,-128889.23950195312,-245.24758071899416,-1.1808139038085939,-1.7631444931030273,-1.207753977775574,-2.7016687047592445,-0.02932613921860806,0.0,0.06893733143806458,564.734619140625,24.817439317703247,0.0,0.0,1315.4004111661995,1,1789168095.8952515,38.990292806666666,-76.94091069333334,-9.640999999999998,0,1,6.604899999999999,7.011904,41.770369,1,1,1789168095.9365263,0.7368704769233555,-0.6701025551305565,-0.03947480893283781,0.08016361584884843,170.1393414032409,-2.823535375199829,-84.32251576596097,-0.019497422139879053,0.08019822819498984,0.05536254200496093,0.7135318657684326,1.8758160429382325,-9.397418650493622
2026-09-11T19:08:15.980,5.4798113279999825,-358.0876159667969,-32227.88543701172,-128911.54174804688,-245.29001693725587,-1.2232501220703127,-1.7904282808303833,-1.2264433723688126,-2.7434756898013855,-0.559435147759472,0.0,0.06893733143806458,564.734619140625,24.817439317703247,0.0,0.0,0.0,1,1789168095.8952515,38.990292806666666,-76.94091069333334,-9.640999999999998,0,1,6.604899999999999,7.011904,41.770369,1,1,1789168095.9765263,0.7364500093978583,-0.6708564432421611,-0.03726730435041861,0.07876651728256563,170.43120132400082,-2.911364785307789,-84.41910256267417,-0.0018463838156848012,0.046798385898349955,0.06434610073082614,0.6498867062187195,0.8919148322105408,-9.798902908115387
2026-09-11T19:08:16.015,5.513213759999985,-358.1474914550781,-32233.27423095703,-128933.09692382812,-245.33103164672855,-1.2642648315429688,-1.7655978202819824,-1.209434506893158,-2.705427941332222,0.5092103914964423,0.0,0.06969645619392395,570.953369140625,25.090724229812622,0.1831054836511612,65.91797411441803,1973.448343953306,1,1789168095.8952515,38.990292806666666,-76.94091069333334,-9.640999999999998,0,1,6.604899999999999,7.011904,41.770369,1,1,1789168096.0045261,0.7360884461660834,-0.6715403319011455,-0.03651352944703552,0.07664296587567943,170.67300514183225,-2.8191335125168955,-84.51896402422318,0.008004778081346793,0.030510624252888474,0.08250956772340594,-0.4674830132102966,0.6031089849472046,-10.059073336906435
2026-09-11T19:08:16.049,5.546624575999999,-358.20648193359375,-32238.583374023438,-128954.33349609375,-245.37144012451174,-1.304673309326172,-1.6888673305511475,-1.1568741214275362,-2.5878537075598045,1.5731547971052104,0.0,0.07997706532478333,655.172119140625,28.791743516921997,0.2441406548023224,87.89063572883606,657.6511514836607,1,1789168095.8952515,38.990292806666666,-76.94091069333334,-9.640999999999998,0,1,6.604899999999999,7.011904,41.770369,1,1,1789168096.0435262,0.7353998685046068,-0.672628095753278,-0.03635330526924423,0.07373544197146323,170.93706152363777,-2.620741962392132,-84.68699398059827,-0.008189782982058191,0.017146289104517494,0.09424585974551661,-0.013337044219970704,0.8731841304016112,-9.414384155273437
2026-09-11T19:08:16.081,5.58004153600001,-358.26422119140625,-32243.779907226562,-128975.11962890625,-245.4109915161133,-1.3442247009277344,-1.6898102760314941,-1.1575200390815736,-2.5892985842017993,-0.019329036933258437,0.0,0.0900440514087677,737.640869140625,32.41585850715637,0.2593994438648224,93.38379979133606,164.38251901125068,1,1789168095.8952515,38.990292806666666,-76.94091069333334,-9.640999999999998,0,1,6.604899999999999,7.011904,41.770369,1,1,1789168096.0765262,0.7345338879865974,-0.6736589959402316,-0.03429926612767717,0.07393973851180684,171.08189919421105,-2.8219491280678963,-84.82928666617437,-0.03047746299710058,0.012275773293902118,0.10120815266464718,0.8737725294113159,0.8522959655570984,-9.77281721868515
2026-09-11T19:08:16.114,5.613444479999998,-358.322021484375,-32248.98193359375,-128995.927734375,-245.4505847167969,-1.3838179016113283,-1.69100821018219,-1.1583406239748002,-2.5911341803301693,-0.02456624461684735,0.0,0.09481051564216614,776.687744140625,34.13178563117981,0.2593994438648224,93.38379979133606,0.0,1,1789168095.8952515,38.990292806666666,-76.94091069333334,-9.640999999999998,0,1,6.604899999999999,7.011904,41.770369,1,1,1789168096.1045263,0.7338450217506872,-0.6745272012189351,-0.033370601167627044,0.07328670988108914,171.21244551781786,-2.859676986099279,-84.95671052898923,0.016440827020861384,0.009275028710948267,0.11728595120109375,0.2712519434738159,0.9062325414466859,-8.799114924125671
2026-09-11T19:08:16.148,5.646844703999989,-358.38043212890625,-32254.238891601562,-129016.95556640625,-245.4905960083008,-1.4238291931152345,-1.7440170049667358,-1.194651648402214,-2.6723596286735254,-1.0871491289227357,0.0,0.10077288746833801,825.531494140625,36.278239488601685,0.1983642876148224,71.41114354133606,-657.8595475888513,1,1789168095.8952515,38.990292806666666,-76.94091069333334,-9.640999999999998,0,1,6.604899999999999,7.011904,41.770369,1,1,1789168096.1365263,0.7328740100132952,-0.675559857881543,-0.03448554019918345,0.07297473112846792,171.1566064049162,-2.7541505487828886,-85.12642562861865,-0.018117739366177537,0.01219164842395599,0.11715801856692255,0.5848686156463623,1.6120171535873413,-14.076073376159668
2026-09-11T19:08:16.182,5.680266079999967,-358.4402160644531,-32259.61944580078,-129038.47778320312,-245.5315480041504,-1.4647811889648439,-1.7705901861190796,-1.2128542774915696,-2.71307775029431,-0.5446403250831835,0.0,0.10429385304450989,854.375244140625,37.54578709602356,0.04577639698982239,16.47950291633606,-1643.6079898396608,1,1789168095.8952515,38.990292806666666,-76.94091069333334,-9.640999999999998,0,1,6.604899999999999,7.011904,41.770369,1,1,1789168096.1765263,0.7316433523467774,-0.6768849351428848,-0.03555726300907661,0.07252910168122415,171.11615499914458,-2.6455551373538766,-85.34179453319334,0.007633721082372798,0.035145520614484616,0.1282508076938229,0.16180972766876223,1.772355883731842,-8.849521105957031
2026-09-11T19:08:16.215,5.713675711999997,-358.4998779296875,-32264.989013671875,-129059.9560546875,-245.57241638183595,-1.5056495666503908,-1.822349190711975,-1.248309195637703,-2.792388143427214,-1.0612184577819272,0.0,0.1049366295337677,859.640869140625,37.77718663215637,-0.0305175818502903,-10.986329466104507,-822.0932329459959,1,1789168095.8952515,38.990292806666666,-76.94091069333334,-9.640999999999998,0,1,6.604899999999999,7.011904,41.770369,1,1,1789168096.2045262,0.730677961833201,-0.6778045077215505,-0.03533834487147047,0.07376968744254409,171.03151614608382,-2.771959761667266,-85.48289832695531,0.0010623819156889483,0.07487898823368673,0.11282977655490183,-0.07394214221954346,1.5080666618728638,-8.208950717391968
2026-09-11T19:08:16.248,5.747090047999961,-358.5619201660156,-32270.572814941406,-129082.29125976562,-245.61491531372073,-1.5481484985351563,-1.8742820024490356,-1.2838831716775896,-2.8719648614835096,-1.0646321399271408,0.0,0.10562136769294739,865.250244140625,38.02369236946106,0.0,0.0,328.7908958034129,1,1789168095.8952515,38.990292806666666,-76.94091069333334,-9.640999999999998,0,1,6.604899999999999,7.011904,41.770369,1,1,1789168096.2365263,0.7295519580072831,-0.6789133942565683,-0.035706471592984276,0.07453584072876691,170.94232116967217,-2.8147736241682244,-85.6588650465981,0.00625770350010047,0.029619982735595768,0.1304762770230409,0.2159424365615845,1.002631912536621,-9.386337135810852
2026-09-11T19:08:16.281,5.780500095999969,-358.6244812011719,-32276.20330810547,-129104.81323242188,-245.65776962280276,-1.5910028076171876,-1.8742820024490356,-1.2838831716775896,-2.8719648614835096,0.0,0.0,0.10733416676521301,879.281494140625,38.640300035476685,0.0915527492761612,32.95898973941803,986.4993231799807,1,1789168095.8952515,38.990292806666666,-76.94091069333334,-9.640999999999998,0,1,6.604899999999999,7.011904,41.770369,1,1,1789168096.2765262,0.7281630384869326,-0.6804694820984507,-0.03583958079083654,0.0738606645169233,170.9948309062654,-2.769939810148758,-85.90346738542621,0.023350934595357333,-0.0026797785335120937,0.13422349892707272,0.21859023210525513,1.2009223788070678,-10.368375083007813
2026-09-11T19:08:16.314,5.81390444799996,-358.6849670410156,-32281.647033691406,-129126.58813476562,-245.69920242309573,-1.6324356079101563,-1.8221476078033447,-1.2481711113452911,-2.792079257662155,1.069084062229621,0.0,0.11130908131599426,911.843994140625,40.071269273757935,0.1220703274011612,43.94531786441803,328.88912573436494,1,1789168095.8952515,38.990292806666666,-76.94091069333334,-9.640999999999998,0,1,6.604899999999999,7.011904,41.770369,1,1,1789168096.3045263,0.7270524429860723,-0.6818330231258966,-0.03460677312858216,0.07280690198471307,171.1849882151705,-2.806462244488111,-86.10698680306675,0.035005196142624276,-0.049050035166347844,0.1389062173101735,1.8051100952720642,0.9142739945793151,-9.29248749376297
2026-09-11T19:08:16.349,5.84730470400001,-358.74481201171875,-32287.033081054688,-129148.13232421875,-245.74019622802737,-1.673429412841797,-1.7706007957458496,-1.212861545085907,-2.7130940074398393,1.0571645396769207,0.0,0.11443904042243958,937.484619140625,41.19805455207825,0.0,0.0,-1315.7179952259153,1,1789168095.8952515,38.990292806666666,-76.94091069333334,-9.640999999999998,0,1,6.604899999999999,7.011904,41.770369,1,1,1789168096.3445263,0.7256603712585825,-0.6835963224384592,-0.033863235308356984,0.07047251115095331,171.44599345861795,-2.70554279395456,-86.37826508604921,0.021842271989933437,-0.06778597015358176,0.1306241064106848,0.09443804105758667,0.43276747163772583,-9.091451165447234
2026-09-11T19:08:16.383,5.880853663999972,-358.8030700683594,-32292.276306152344,-129169.10522460938,-245.7801029968262,-1.7133361816406252,-1.6926350593566895,-1.1594550156593324,-2.593627003532863,1.5918982116475542,0.0,0.11687663197517395,957.453369140625,42.07558751106262,0.1068115383386612,38.45215380191803,1146.1503963747825,1,1789168095.8952515,38.990292806666666,-76.94091069333334,-9.640999999999998,0,1,6.604899999999999,7.011904,41.770369,1,1,1789168096.3765264,0.7245640281040429,-0.6850321349510691,-0.03237133393805681,0.06848386672125893,171.7350408789034,-2.689138457562472,-86.59281303704294,0.01491279126074035,-0.1451864355576247,0.1260146918561678,0.8025762492370605,0.43247327213287357,-9.15048719942093
