timestamp,time_s,drive_pos_turns,drive_encoder_count,drive_wheel_angle_deg,drive_distance_m,drive_distance_since_start_m,drive_velocity_turns_s,drive_velocity_mps,drive_velocity_mph,drive_acceleration_mps2,drive_iq_A,steer_pos_turns,steer_encoder_count,steer_angle_deg,steer_velocity_turns_s,steer_velocity_deg_s,steer_acceleration_deg_s2,gps_received,gps_ros_stamp_s,gps_latitude_deg,gps_longitude_deg,gps_altitude_m,gps_status,gps_service,gps_cov_x_m2,gps_cov_y_m2,gps_cov_z_m2,gps_covariance_type,imu_received,imu_ros_stamp_s,imu_qx,imu_qy,imu_qz,imu_qw,imu_roll_deg,imu_pitch_deg,imu_yaw_deg,imu_gyro_x_rad_s,imu_gyro_y_rad_s,imu_gyro_z_rad_s,imu_accel_x_mps2,imu_accel_y_mps2,imu_accel_z_mps2
2026-09-11T19:02:23.749,7.104000005142552e-06,-1.1576259136199951,-104.18633222579956,-416.74532890319824,-0.7929737508296967,-0.003079418540000916,-0.8229960799217224,-0.5637523147463799,-1.2610780125858518,-7.614779069395069,0.0,-0.07156562805175781,-586.265625,-25.763626098632812,0.0,0.0,0.0,1,1789167743.2074978,38.99037829666667,-76.9398068,-6.551000000000002,0,1,11.431160999999998,12.802083999999999,68.046001,1,1,1789167743.7362943,-0.8362064530826673,0.5467562398085628,0.02600569566379859,-0.03376515728303731,175.12922694437347,0.37641536391598646,-66.37359592625096,-0.0065833819385226105,0.06707492301631927,-0.07865884779473085,0.27566493604660036,0.9690931689834595,-9.597474313793183
2026-09-11T19:02:23.783,0.03343292799999631,-1.1904933452606201,-107.14440107345581,-428.57760429382324,-0.8154879415035249,-0.02559360921382904,-0.9808143973350525,-0.671857862174511,-1.5029032350002467,-3.234192444385507,0.0,-0.07156562805175781,-586.265625,-25.763626098632812,0.0,0.0,0.0,1,1789167743.2074978,38.99037829666667,-76.9398068,-6.551000000000002,0,1,11.431160999999998,12.802083999999999,68.046001,1,1,1789167743.7762942,-0.8367459732451399,0.5459116345931307,0.025699313061752414,-0.03429590036802701,175.0978481244117,0.31871121505929867,-66.25628430661004,-0.0044186500672740445,0.062076125505682325,-0.08109550196344012,0.8103235028648376,0.8632794137382507,-9.426250201969147
2026-09-11T19:02:23.817,0.06685235199999795,-1.2192350625991821,-109.73115563392639,-438.92462253570557,-0.8351760178804398,-0.045281685590744025,-0.9035375118255615,-0.6189231956005097,-1.384491758233064,1.5839491001998947,0.0,-0.07156562805175781,-586.265625,-25.763626098632812,0.0,0.0,0.0,1,1789167743.2074978,38.99037829666667,-76.9398068,-6.551000000000002,0,1,11.431160999999998,12.802083999999999,68.046001,1,1,1789167743.8082943,-0.8370675043472128,0.5454839069670826,0.024859137611983224,-0.03387216678993051,175.19136568683578,0.2672347186881872,-66.1926258225115,0.00027872908154349447,0.07151207357366446,-0.08419398498450566,-0.5044540843200683,1.0299924664878846,-10.12948508506775
2026-09-11T19:02:23.850,0.10026499200000671,-1.2538222074508667,-112.843998670578,-451.375994682312,-0.8588682121038438,-0.06897387981414796,-1.0348409414291382,-0.7088660448789597,-1.5856881819948079,-2.6918809551842173,0.0,-0.07156562805175781,-586.265625,-25.763626098632812,0.0,0.0,0.0,1,1789167743.2074978,38.99037829666667,-76.9398068,-6.551000000000002,0,1,11.431160999999998,12.802083999999999,68.046001,1,1,1789167743.8482943,-0.8374955154024887,0.5448884956861516,0.0235496795451142,-0.03381126355114653,175.27934780710368,0.14889843113174486,-66.10353069550708,0.0059308033312019314,0.046805541748283136,-0.08382083359042927,-0.16730145175933836,0.9611497823524475,-9.704562933559417
2026-09-11T19:02:23.884,0.13369935999999427,-1.2848783731460571,-115.63905358314514,-462.55621433258057,-0.8801416856050492,-0.0902473533153534,-0.957520604133606,-0.6559016138315201,-1.4672101239967774,1.5841313658885146,0.0,-0.07156562805175781,-586.265625,-25.763626098632812,0.0,0.0,0.0,1,1789167743.2074978,38.99037829666667,-76.9398068,-6.551000000000002,0,1,11.431160999999998,12.802083999999999,68.046001,1,1,1789167743.8762944,-0.837853814203072,0.544354875494221,0.02268799487241528,-0.03411759721470318,175.3038355568865,0.050092864906928006,-66.02573935305135,-0.00973544656762437,0.03633216997291556,-0.08754187555568119,-0.9480088711357118,0.9103513345146179,-9.286505437164307
2026-09-11T19:02:23.917,0.16711305600000514,-1.3229609727859497,-119.06648755073547,-476.2659502029419,-0.9062282663583756,-0.11633393406867981,-1.0636762380599976,-0.7286182230710984,-1.6298725462399284,-2.1762515957395006,0.0,-0.07134056091308594,-584.421875,-25.682601928710938,0.015258789993822575,5.493164397776127,164.39858666860258,1,1789167743.2074978,38.99037829666667,-76.9398068,-6.551000000000002,0,1,11.431160999999998,12.802083999999999,68.046001,1,1,1789167743.9082942,-0.8383034354277545,0.5437456724096976,0.021683504592332554,-0.0334338079545925,175.43235807841063,-0.000244308702016427,-65.93699711090909,-0.007061253087718659,0.03892974349865872,-0.09059812160884845,-0.27350747301101686,0.7153951292991638,-10.469579712677003
2026-09-11T19:02:23.951,0.20052553600000067,-1.3562076091766357,-122.05868482589722,-488.23473930358887,-0.9290022122859956,-0.13910787999629975,-1.0378448963165283,-0.710923753976822,-1.5902911461543066,0.529576646040006,0.0,-0.06953620910644531,-569.640625,-25.033035278320312,0.0610351637005806,21.972658932209015,493.213749306699,1,1789167743.2074978,38.99037829666667,-76.9398068,-6.551000000000002,0,1,11.431160999999998,12.802083999999999,68.046001,1,1,1789167743.9482944,-0.8390541072458391,0.5424614495384056,0.02224824608089734,-0.03505419268652311,175.24113604193298,-0.03988542008921541,-65.76492822641563,-0.023560723171447053,0.048662397539479894,-0.09745604383870977,-1.6763487786483766,0.9166275906181335,-10.274721573963166
2026-09-11T19:02:23.984,0.2339465600000068,-1.3948050737380981,-125.53245663642883,-502.12982654571533,-0.9554414755105973,-0.1655471432209015,-1.0918283462524414,-0.7479024171829224,-1.6730100599116893,-1.1064491383056863,0.0,-0.06473159790039062,-530.28125,-23.303375244140625,0.1525879055261612,54.93164598941803,986.1752607341706,1,1789167743.2074978,38.99037829666667,-76.9398068,-6.551000000000002,0,1,11.431160999999998,12.802083999999999,68.046001,1,1,1789167743.9762943,-0.839465916893379,0.541857025602064,0.020043679199071275,-0.03586347869640428,175.3001978854704,-0.2987292128797356,-65.67047051509094,-0.003907792195215303,0.0047579420738617425,-0.083782959945661,0.1933871411895752,0.7474628753280639,-9.008094639072418
2026-09-11T19:02:24.018,0.26736243199999876,-1.4327656030654907,-128.94890427589417,-515.7956171035767,-0.9814444380998613,-0.19155010581016543,-1.1710076332092285,-0.8021402287483216,-1.7943365890039387,-1.6231152538952818,0.0,-0.059116363525390625,-484.28125,-21.281890869140625,0.1220703274011612,43.94531786441803,-328.77574240775886,1,1789167743.2074978,38.99037829666667,-76.9398068,-6.551000000000002,0,1,11.431160999999998,12.802083999999999,68.046001,1,1,1789167744.0082943,-0.8399685032948944,0.5411834980098036,0.021171068758354367,-0.03354282042460346,175.45369731547368,-0.0423748110199862,-65.58489330747912,-0.0010377727732358284,-0.013385104566469713,-0.07615761644369777,-0.7961038601303101,0.9877258042907715,-10.069860652084351
2026-09-11T19:02:24.051,0.30077488000000585,-1.4709416627883911,-132.3847496509552,-529.5389986038208,-1.007595039010048,-0.2177007067203522,-1.1451762914657593,-0.7844457596540452,-1.7547551889183166,0.5295771532296184,0.0,-0.052829742431640625,-432.78125,-19.018707275390625,0.2441406399011612,87.89063036441803,1315.237737144871,1,1789167743.2074978,38.99037829666667,-76.9398068,-6.551000000000002,0,1,11.431160999999998,12.802083999999999,68.046001,1,1,1789167744.0482943,-0.8404949459959009,0.5402296451415635,0.02364551024763161,-0.034074420181377046,175.2489124807377,0.16798229148678276,-65.46887991083535,-0.0012742648868810601,-0.021909816231985613,-0.08566267955005888,0.6104639725685119,1.5570999126815797,-9.904226330852508
2026-09-11T19:02:24.084,0.3341960000000057,-1.5143256187438965,-136.28930568695068,-545.1572227478027,-1.0373130488395692,-0.24741871654987338,-1.276479959487915,-0.8743887722492218,-1.9559519780091734,-2.6912028260925145,0.0,-0.0458221435546875,-375.375,-16.4959716796875,0.09155276417732239,32.95899510383606,-1643.6204190817723,1,1789167743.2074978,38.99037829666667,-76.9398068,-6.551000000000002,0,1,11.431160999999998,12.802083999999999,68.046001,1,1,1789167744.0762944,-0.8408221701925451,0.5395699030527074,0.023139316910885877,-0.0367010877943449,175.02685806025224,-0.039734823528352455,-65.37623521794286,-0.008348084345214078,0.004278849194189298,-0.08318919893413253,0.7164738608169555,1.7624511670684813,-9.728687292957305
2026-09-11T19:02:24.118,0.367609568000006,-1.5589046478271484,-140.30141830444336,-561.2056732177734,-1.0678496837615967,-0.277955351471901,-1.35538911819458,-0.9284415459632874,-2.076864589216371,-1.6176893684046292,0.0,-0.044696807861328125,-366.15625,-16.090850830078125,0.0610351599752903,21.972657591104507,-328.7986937740818,1,1789167743.2074978,38.99037829666667,-76.9398068,-6.551000000000002,0,1,11.431160999999998,12.802083999999999,68.046001,1,1,1789167744.1082942,-0.8412989266868702,0.5386570263070828,0.024534794359096314,-0.03824614792744221,174.79125583980627,0.004530933116490147,-65.26049996967288,-0.01117586679929529,0.01924417486541468,-0.10051002096384945,-1.1328642266845703,1.2390702479362488,-9.046046375198365
2026-09-11T19:02:24.151,0.4010237760000024,-1.6065640449523926,-144.59076404571533,-578.3630561828613,-1.100496370792389,-0.3106020385026932,-1.4070518016815186,-0.9638304841518402,-2.1560273893876145,-1.0590985184672532,0.0,-0.04292869567871094,-351.671875,-15.454330444335938,0.0457763746380806,16.479494869709015,-164.3960174485083,1,1789167743.2074978,38.99037829666667,-76.9398068,-6.551000000000002,0,1,11.431160999999998,12.802083999999999,68.046001,1,1,1789167744.1482942,-0.841524443910559,0.5381391637051851,0.02437543384500063,-0.040604051676850855,174.5732162015989,-0.15333595041586476,-65.189043891899,0.000476474885794452,0.022859449877995732,-0.09772761707032009,1.424121736488342,1.2851615036964417,-9.518726912994385
2026-09-11T19:02:24.185,0.4344443840000025,-1.6578736305236816,-149.20862674713135,-596.8345069885254,-1.135643436908722,-0.3457491046190262,-1.48557448387146,-1.0176185214519502,-2.276347802102606,-1.6094272521945063,0.0,-0.0403900146484375,-330.875,-14.5404052734375,0.0915527418255806,32.958987057209015,493.09372790285374,1,1789167744.1604004,38.99037747333333,-76.93980917333333,-6.584000000000003,0,1,19.918369000000002,26.091663999999998,123.81012900000002,1,1,1789167744.1762943,-0.841754849597229,0.5377119272286501,0.025717406560452256,-0.040660441406871264,174.48482584085178,-0.02473488896036641,-65.13958568003578,0.002150943770157812,0.04409417275530994,-0.09107250209954051,-0.04344346021652221,1.5325832872772216,-10.256481204662323
2026-09-11T19:02:24.218,0.46786140800000453,-1.7122083902359009,-154.09875512123108,-616.3950204849243,-1.1728627473115922,-0.3829684150218964,-1.6161463260650635,-1.1070602333545685,-2.476423213481047,-2.6765313363216574,0.0,-0.03810310363769531,-312.140625,-13.717117309570312,0.0457763746380806,16.479494869709015,-493.14661256187884,1,1789167744.1604004,38.99037747333333,-76.93980917333333,-6.584000000000003,0,1,19.918369000000002,26.091663999999998,123.81012900000002,1,1,1789167744.2082944,-0.8419644014456318,0.5372967087881098,0.026247541421174175,-0.04146396017155149,174.37438638639472,-0.020506598971358248,-65.0866810149599,-0.01486322390998371,0.029470058952849452,-0.1010193080395814,-0.2702712784576416,1.446775098361969,-8.207479719867706
2026-09-11T19:02:24.252,0.5012755839999983,-1.7683783769607544,-159.1540539264679,-636.6162157058716,-1.2113391882181168,-0.42144485592842107,-1.6939538717269897,-1.160358402132988,-2.5956478215215344,-1.5950765560829483,0.0,-0.036956787109375,-302.75,-13.304443359375,0.0,0.0,-493.1887253395714,1,1789167744.1604004,38.99037747333333,-76.93980917333333,-6.584000000000003,0,1,19.918369000000002,26.091663999999998,123.81012900000002,1,1,1789167744.2482944,-0.8423942794351814,0.5365538938806141,0.025323221794512036,-0.04290141459646857,174.29221649432347,-0.19329156097991265,-64.97967649054043,-0.010204242004710047,0.06816418300248894,-0.10824881086719232,-0.8185610890007019,1.744603063774109,-8.80794090927124
2026-09-11T19:02:24.285,0.5346978879999966,-1.827929973602295,-164.51369762420654,-658.0547904968262,-1.2521320319175722,-0.4622376996278763,-1.7725929021835327,-1.21422613799572,-2.71614651484368,-1.6117301746383084,0.0,-0.03555488586425781,-291.265625,-12.799758911132812,0.0610351637005806,21.972658932209015,657.4250216924034,1,1789167744.1604004,38.99037747333333,-76.93980917333333,-6.584000000000003,0,1,19.918369000000002,26.091663999999998,123.81012900000002,1,1,1789167744.2762942,-0.8427679215007006,0.535967027100059,0.0234655116211336,-0.04394253196246333,174.30556955521072,-0.4326752268482873,-64.88797110463267,-0.002411346894555366,0.07787955828371539,-0.10077880166865659,-0.4619912891197204,0.9433997455596923,-10.841447886810304
2026-09-11T19:02:24.319,0.5681157759999991,-1.8897440433502197,-170.07696390151978,-680.3078556060791,-1.2944746696949005,-0.5045803374052048,-1.8251773118972778,-1.2502464586496354,-2.7967216773658596,-1.0778754376671775,0.0,-0.033599853515625,-275.25,-12.095947265625,0.0610351637005806,21.972658932209015,0.0,1,1789167744.1604004,38.99037747333333,-76.93980917333333,-6.584000000000003,0,1,19.918369000000002,26.091663999999998,123.81012900000002,1,1,1789167744.3082943,-0.8434074846054046,0.5350375854008823,0.02156103991349845,-0.04397406824284655,174.41895748554379,-0.6122785763128741,-64.75028991544963,0.013963157614730236,0.08072008164133615,-0.10556781060320382,0.4297274100875854,1.0373474541091918,-10.467029983634948
2026-09-11T19:02:24.352,0.6015279679999992,-1.952939510345459,-175.7645559310913,-703.0582237243652,-1.3377635645866395,-0.5478692322969437,-1.8518835306167603,-1.2685402184724808,-2.8376436526317095,-0.5475174996853053,0.0,-0.02925872802734375,-239.6875,-10.53314208984375,0.1373291164636612,49.43848192691803,822.0299642330834,1,1789167744.1604004,38.99037747333333,-76.93980917333333,-6.584000000000003,0,1,19.918369000000002,26.091663999999998,123.81012900000002,1,1,1789167744.3482943,-0.8439499479208749,0.534142149640094,0.021988933545941176,-0.044239531911225066,174.36634984478576,-0.5812916238877185,-64.63144185531951,-0.047299469926597525,0.0460765177197251,-0.09717853648764267,-0.8663194752883911,1.2988908139228823,-9.259929415225983
2026-09-11T19:02:24.385,0.634951135999998,-2.0195960998535156,-181.7636489868164,-727.0545959472656,-1.3834233283996582,-0.5935289961099625,-1.9822754859924316,-1.3578587079048159,-3.037443423194377,-2.6723525858571624,0.0,-0.021970748901367188,-179.984375,-7.9094696044921875,0.3356933891773224,120.84962010383606,2136.5759875581102,1,1789167744.1604004,38.99037747333333,-76.93980917333333,-6.584000000000003,0,1,19.918369000000002,26.091663999999998,123.81012900000002,1,1,1789167744.3762944,-0.8443714505005092,0.5332024548277849,0.022566638352198756,-0.04714597097071092,174.04828713651446,-0.6971604256349397,-64.50682118196346,-0.09558382915009545,-0.011112162281597497,-0.0859068511124129,-0.8340555962562561,2.1848235895347594,-8.515604667949676
2026-09-11T19:02:24.419,0.6683641919999985,-2.086409091949463,-187.77681827545166,-751.1072731018066,-1.429190227985382,-0.6392958956956863,-1.9575889110565186,-1.3409484040737154,-2.999616150844922,0.5060986888209268,0.0,-0.0057582855224609375,-47.171875,-2.0729827880859375,0.3662109971046448,131.83595895767212,328.80377220915915,1,1789167744.1604004,38.99037747333333,-76.93980917333333,-6.584000000000003,0,1,19.918369000000002,26.091663999999998,123.81012900000002,1,1,1789167744.4082942,-0.8450657441253226,0.5323454925814487,0.021468922514544207,-0.044846961995144916,174.33790034006506,-0.6567875499766266,-64.38491774585177,0.009115331084390785,-0.08241654167427465,-0.10436999113756011,0.9500682676696777,0.5275977787017823,-9.377511150665283
2026-09-11T19:02:24.452,0.7017842559999963,-2.1517586708068848,-193.65828037261963,-774.6331214904785,-1.4739546895027162,-0.6840603572130204,-1.9582884311676025,-1.341427575349808,-3.0006880264625235,-0.014337832389925118,0.0,-0.0011425018310546875,-9.359375,-0.4113006591796875,0.2899170219898224,104.37012791633606,-821.8365782105597,1,1789167744.1604004,38.99037747333333,-76.93980917333333,-6.584000000000003,0,1,19.918369000000002,26.091663999999998,123.81012900000002,1,1,1789167744.4482944,-0.8452025559759284,0.5321874997657801,0.02580570635767575,-0.04175128721592885,174.37347831925402,-0.04680655276275672,-64.39139377502843,-0.04121280869319251,-0.14889543475103784,-0.058749702484306325,-0.3955022010231018,0.4583628285598755,-10.92745220872879
2026-09-11T19:02:24.486,0.7352160639999994,-2.2189853191375732,-199.7086787223816,-798.8347148895264,-1.5200049436092378,-0.730110611319542,-1.9850631952285767,-1.3597682887315752,-3.0417150338483663,-0.5486007033112157,0.0,0.005504608619958162,45.093753814697266,1.9816591031849384,0.1983642876148224,71.41114354133606,-985.8570728510085,1,1789167744.1604004,38.99037747333333,-76.93980917333333,-6.584000000000003,0,1,19.918369000000002,26.091663999999998,123.81012900000002,1,1,1789167744.4762943,-0.84541329138539,0.5319489189720975,0.025960070638146142,-0.040407784965293375,174.49449102258566,0.051808138039288965,-64.36014107422399,-0.01840990748296139,-0.18205319988042612,-0.04322953664387195,1.5146371174812316,0.6845041812896728,-10.283939825115203
2026-09-11T19:02:24.519,0.768632224000001,-2.2849767208099365,-205.6479048728943,-822.5916194915771,-1.5652090537548067,-0.7753147214651108,-1.9600046873092651,-1.3426032108068466,-3.0033178480825993,0.5136759557270414,0.0,0.007755280006676912,63.531253814697266,2.7919008024036884,0.015258789993822575,5.493164397776127,-1972.63776399074,1,1789167744.1604004,38.99037747333333,-76.93980917333333,-6.584000000000003,0,1,19.918369000000002,26.091663999999998,123.81012900000002,1,1,1789167744.5082943,-0.8456170851471555,0.5317510091687908,0.02793399816879605,-0.03731355385790313,174.67434240888548,0.4331540527641199,-64.34612904460475,-0.009420763703489793,-0.13052113198481713,-0.058500469467121535,0.031381280517578124,0.9290820363235474,-9.771640420665742
2026-09-11T19:02:24.552,0.802046304000001,-2.351229667663574,-211.61067008972168,-846.4426803588867,-1.6105923223495484,-0.8206979900598527,-1.960731029510498,-1.3431007552146912,-3.0044308232254155,-0.014890262064511491,0.0,0.0083503732457757,68.40625762939453,3.006134368479252,-0.03051757998764515,-10.986328795552254,-493.19009212069807,1,1789167744.1604004,38.99037747333333,-76.93980917333333,-6.584000000000003,0,1,19.918369000000002,26.091663999999998,123.81012900000002,1,1,1789167744.5482943,-0.8459146722444155,0.5314534484760297,0.02879386445054388,-0.034007539672292114,174.94297926476642,0.7200811641195787,-64.31071751208536,-0.03781849236391393,-0.11606334806007172,-0.062379638262604134,-0.05903603397369385,-0.7540333309364319,-9.503722738246918
2026-09-11T19:02:24.586,0.8354710400000016,-2.4156315326690674,-217.40683794021606,-869.6273517608643,-1.6547075998783112,-0.8648132675886154,-1.9091525077819824,-1.307769467830658,-2.925396984231068,1.0570401329133186,0.0,0.003953934647142887,32.39063262939453,1.4234164729714394,-0.2899170219898224,-104.37012791633606,-2793.8530051750317,1,1789167744.1604004,38.99037747333333,-76.93980917333333,-6.584000000000003,0,1,19.918369000000002,26.091663999999998,123.81012900000002,1,1,1789167744.5762944,-0.8463133379409403,0.5308853141167268,0.03014136350937288,-0.031717747149567814,175.0835828178135,0.993621852294874,-64.24207035599252,-0.029121865767076587,-0.060817044983293614,-0.08173568873307165,-1.547685528526306,0.9844896097373962,-8.531785640716553
2026-09-11T19:02:24.619,0.8688874240000075,-2.481416702270508,-223.3275032043457,-893.3100128173828,-1.699770441055298,-0.9098761087656022,-1.935710072517395,-1.3259613996744157,-2.9660911767949494,-0.5444015679181375,0.0,-0.0014972686767578125,-12.265625,-0.5390167236328125,0.0,0.0,3123.322018214706,1,1789167744.1604004,38.99037747333333,-76.93980917333333,-6.584000000000003,0,1,19.918369000000002,26.091663999999998,123.81012900000002,1,1,1789167744.6082942,-0.8469163053531922,0.529897664912716,0.031509224176679396,-0.030796188704669426,175.09089157096892,1.1880383181436944,-64.1176215446547,-0.018755482674856265,-0.04823007948376091,-0.1014149741810085,-1.1301183646392823,1.0752011237335206,-8.094899376010895
2026-09-11T19:02:24.653,0.9023003840000001,-2.5465824604034424,-229.19242143630981,-916.7696857452393,-1.7444089853763582,-0.9545146530866624,-1.9359378814697266,-1.3261174488067629,-2.9664402487624404,-0.004670317515932716,0.0,-0.0047321319580078125,-38.765625,-1.7035675048828125,-0.2441406548023224,-87.89063572883606,-2630.435487572951,1,1789167744.1604004,38.99037747333333,-76.93980917333333,-6.584000000000003,0,1,19.918369000000002,26.091663999999998,123.81012900000002,1,1,1789167744.6482942,-0.8477529249817015,0.5286359369214686,0.030489861560802856,-0.030485943025171887,175.18486500792983,1.1152645075131986,-63.94000444969151,-0.0194838085717135,-0.04970610443217251,-0.09631215504695269,1.6116248875808716,0.30567328554153445,-9.788900124950409
2026-09-11T19:02:24.686,0.9357236799999953,-2.6130831241607666,-235.177481174469,-940.709924697876,-1.7899619400501252,-1.0000676077604294,-2.0152339935302734,-1.3804352855682374,-3.0879457891200692,-1.625149020655604,0.0,-0.008935928344726562,-73.203125,-3.2169342041015625,-0.1373291313648224,-49.43848729133606,1150.4595009871427,1,1789167744.1604004,38.99037747333333,-76.93980917333333,-6.584000000000003,0,1,19.918369000000002,26.091663999999998,123.81012900000002,1,1,1789167744.6762943,-0.8483336523526416,0.5276815992926613,0.03168553569762648,-0.029633948125773805,175.1964335754391,1.2884176024302145,-63.81902712701976,-0.015163246008401535,-0.026552392042290533,-0.11202622696728363,1.1434554088592528,0.3517645413017273,-10.276879036998748
2026-09-11T19:02:24.719,0.9691375360000052,-2.682039737701416,-241.38357639312744,-965.5343055725098,-1.83719722032547,-1.0473028880357742,-2.0683698654174805,-1.4168333578109742,-3.1693659578806654,-1.0893107411106953,0.0,-0.010858535766601562,-88.953125,-3.9090728759765625,-0.030517607927322388,-10.98633885383606,1150.7845259609849,1,1789167744.1604004,38.99037747333333,-76.93980917333333,-6.584000000000003,0,1,19.918369000000002,26.091663999999998,123.81012900000002,1,1,1789167744.7082944,-0.8489476319065548,0.5267501680538006,0.030016620486155162,-0.030350967532122106,175.22918284436486,1.0881307837656284,-63.68240480196387,0.012138415881770163,-0.0011913617474113294,-0.11823802830805666,0.3605905264472961,1.2263216027259827,-10.236769837837219
2026-09-11T19:02:24.753,1.0025526720000073,-2.752885341644287,-247.75968074798584,-991.0387229919434,-1.8857264590263367,-1.095832126736641,-2.1473686695098877,-1.4709475386142732,-3.2904159328343585,-1.619451161392716,0.0,-0.011857986450195312,-97.140625,-4.2688751220703125,0.0610351599752903,21.972657591104507,986.3493132255537,1,1789167744.1604004,38.99037747333333,-76.93980917333333,-6.584000000000003,0,1,19.918369000000002,26.091663999999998,123.81012900000002,1,1,1789167744.7482944,-0.8500381026171274,0.5249456318356786,0.02920031419746523,-0.03185356128415875,175.1342241208045,0.92823129472295,-63.43469626173318,0.022033385543026817,-0.05003178287059465,-0.13908319369632574,-1.2399528464508056,3.416440783348084,-13.358030451316832
2026-09-11T19:02:24.787,1.0359761600000041,-2.825439929962158,-254.28959369659424,-1017.158374786377,-1.9354263520240784,-1.1455320197343828,-2.174672842025757,-1.4896508967876436,-3.332254153515663,-0.5595872631058794,0.0,-0.011322021484375,-92.75,-4.075927734375,0.0,0.0,-657.4016928187324,1,1789167744.1604004,38.99037747333333,-76.93980917333333,-6.584000000000003,0,1,19.918369000000002,26.091663999999998,123.81012900000002,1,1,1789167744.7762942,-0.8504701226632808,0.5242032574907571,0.02911391993922062,-0.032617402700948914,175.0656879759284,0.8780773316109544,-63.33460478375289,-0.09576778685325567,0.013997366068069323,-0.09383692910177432,0.5748658324813842,1.0001802499961854,-7.762748135032654
2026-09-11T19:02:24.820,1.0693927680000002,-2.9011318683624268,-261.1018681526184,-1044.4074726104736,-1.9872753298282624,-1.1973809975385667,-2.253941774368286,-1.5439501154422761,-3.4537180463544077,-1.6249171266766205,0.0,-0.011199951171875,-91.75,-4.031982421875,0.0,0.0,0.0,1,1789167744.1604004,38.99037747333333,-76.93980917333333,-6.584000000000003,0,1,19.918369000000002,26.091663999999998,123.81012900000002,1,1,1789167744.8162944,-0.8517280905859066,0.522111673285035,0.02755576689049404,-0.03463148910260034,174.9645151577747,0.6174904020580019,-63.04397660961182,-0.0032977996216432856,0.019767424575162576,-0.13282409393282366,-1.9632913623809813,1.4411853077697754,-10.47615016828537
2026-09-11T19:02:24.853,1.1028076160000069,-2.976263999938965,-267.86375999450684,-1071.4550399780273,-2.038740839958191,-1.2488465076684954,-2.2288897037506104,-1.5267894470691683,-3.4153307244746927,0.5135641608516179,0.0,-0.011507034301757812,-94.265625,-4.1425323486328125,0.0,0.0,0.0,1,1789167744.1604004,38.99037747333333,-76.93980917333333,-6.584000000000003,0,1,19.918369000000002,26.091663999999998,123.81012900000002,1,1,1789167744.8482943,-0.8525052483963174,0.5208419817369583,0.026360067364514607,-0.035546847477509726,174.94745113466263,0.45353581496598067,-62.866080338002,0.0013809045041779135,0.012579111517898731,-0.1127746241505388,1.6957659459686278,0.7119628017425537,-10.915488095531463
2026-09-11T19:02:24.887,1.1362350720000052,-3.0556445121765137,-275.00800609588623,-1100.032024383545,-2.093116490840912,-1.3032221585512163,-2.3610455989837646,-1.6173162353038788,-3.6178333824800397,-2.708156679189559,0.0,-0.011199951171875,-91.75,-4.031982421875,0.0,0.0,0.0,1,1789167744.1604004,38.99037747333333,-76.93980917333333,-6.584000000000003,0,1,19.918369000000002,26.091663999999998,123.81012900000002,1,1,1789167744.8762944,-0.8531608533147108,0.5197845916848902,0.025447042777670938,-0.0359580955023748,174.96227509624052,0.34606365538564254,-62.71858995437632,0.00441393767829366,0.035575918808026415,-0.11955836988719036,0.806989241809845,-0.17897136545181272,-8.22719108669281
2026-09-11T19:02:24.920,1.1696524160000052,-3.1338396072387695,-282.04556465148926,-1128.182258605957,-2.1466801309585573,-1.3567857986688614,-2.336125612258911,-1.6002460443973543,-3.579648452928938,0.5108183016138108,0.0,-0.01056671142578125,-86.5625,-3.80401611328125,-0.03051757998764515,-10.986328795552254,-328.7612802367606,1,1789167744.1604004,38.99037747333333,-76.93980917333333,-6.584000000000003,0,1,19.918369000000002,26.091663999999998,123.81012900000002,1,1,1789167744.9162943,-0.8541780288435116,0.5182786162143027,0.02412193787626344,-0.03442823157082814,175.19178461602078,0.3163904069860152,-62.50844595261076,0.033699166263356915,0.023454432620000597,-0.11761896002237426,-0.44041665876388547,0.12885938312530518,-9.767913893604279
2026-09-11T19:02:24.953,1.2030654400000032,-3.2111172676086426,-289.00055408477783,-1156.0022163391113,-2.1996153283119204,-1.4097209960222246,-2.337137460708618,-1.6009391605854035,-3.5811989096845958,-0.020743892802078612,0.0,-0.010711669921875,-87.75,-3.856201171875,0.0,0.0,328.8037860791332,1,1789167744.1604004,38.99037747333333,-76.93980917333333,-6.584000000000003,0,1,19.918369000000002,26.091663999999998,123.81012900000002,1,1,1789167744.9482944,-0.8550208411649122,0.5170039164442917,0.024339486015879975,-0.032463841044963054,175.37209631549212,0.4614462711345875,-62.338685229197864,0.017507397726755122,0.059853274170342335,-0.13133602621257331,-1.2267138687324524,0.7235346489334106,-8.587389347133636
2026-09-11T19:02:24.987,1.236490975999999,-3.287294387817383,-295.85649490356445,-1183.4259796142578,-2.2517966556549074,-1.4619023233652115,-2.2859675884246826,-1.5658877980709076,-3.502791244789965,1.048640252605085,0.0,-0.010467529296875,-85.75,-3.768310546875,0.0,0.0,0.0,1,1789167744.1604004,38.99037747333333,-76.93980917333333,-6.584000000000003,0,1,19.918369000000002,26.091663999999998,123.81012900000002,1,1,1789167744.9762943,-0.8557577948496056,0.515901242674215,0.023723844270493278,-0.03101102343313446,175.55184173609123,0.493120968884599,-62.187251264075066,-0.013416695025930809,0.05825106191701155,-0.11218557552799072,-0.5819266205978393,0.4367881982040406,-10.014747278175355
2026-09-11T19:02:25.021,1.269907583999995,-3.3651578426361084,-302.86420583724976,-1211.456823348999,-2.3051331222057345,-1.5152387899160387,-2.3394272327423096,-1.6025076544284822,-3.5847075304860425,-1.0958579745011507,0.0,-0.010652542114257812,-87.265625,-3.8349151611328125,0.0,0.0,0.0,1,1789167744.1604004,38.99037747333333,-76.93980917333333,-6.584000000000003,0,1,19.918369000000002,26.091663999999998,123.81012900000002,1,1,1789167745.0162942,-0.8569704299846591,0.5140236252895873,0.02372302226895814,-0.02861141364010508,175.78890601313677,0.6443603183389619,-61.93560514363557,0.0016795303391941433,0.08606619967311999,-0.11722189761754555,-0.2895903792762756,0.014317709236145018,-10.050737684268952
2026-09-11T19:02:25.054,1.3033230080000067,-3.439603805541992,-309.5643424987793,-1238.2573699951172,-2.356128606796265,-1.566234274506569,-2.2626469135284424,-1.549913135766983,-3.467056942929003,1.5739593387018114,0.0,-0.009843826293945312,-80.640625,-3.5437774658203125,0.0610351637005806,21.972658932209015,657.5603808648754,1,1789167744.1604004,38.99037747333333,-76.93980917333333,-6.584000000000003,0,1,19.918369000000002,26.091663999999998,123.81012900000002,1,1,1789167745.0482943,-0.8578454671312868,0.5127269104365811,0.021342121318727564,-0.02750970181734358,176.03851126031475,0.48166580797224173,-61.74945906595633,-0.01568562305352344,0.05883103482744926,-0.10311195781272259,1.2686863314247132,-0.4637564861488342,-9.733198352031708
2026-09-11T19:02:25.088,1.3367503359999944,-3.513303518295288,-316.1973166465759,-1264.7892665863037,-2.4066129100322726,-1.6167185777425768,-2.2365357875823975,-1.5320270144939423,-3.4270468291292517,0.535074812831207,0.0,-0.008363723754882812,-68.515625,-3.0109405517578125,0.0305175818502903,10.986329466104507,-328.6631066087169,1,1789167744.1604004,38.99037747333333,-76.93980917333333,-6.584000000000003,0,1,19.918369000000002,26.091663999999998,123.81012900000002,1,1,1789167745.0762944,-0.8584413784651688,0.5118081602330388,0.021697680921420125,-0.025690805754692857,176.19722759956935,0.6276790064096365,-61.62816441968107,0.013777803648168436,0.036890675333553745,-0.1021604043045353,-0.1022833611869812,0.20750871742248536,-11.964701596336363
2026-09-11T19:02:25.120,1.370163551999994,-3.5860097408294678,-322.7408766746521,-1290.9635066986084,-2.4564166724681855,-1.6665223401784899,-2.210571527481079,-1.5142414963245392,-3.387261758063121,0.5322899229276022,0.0,-0.005901336669921875,-48.34375,-2.124481201171875,0.1525879055261612,54.93164598941803,1315.2076269256474,1,1789167744.1604004,38.99037747333333,-76.93980917333333,-6.584000000000003,0,1,19.918369000000002,26.091663999999998,123.81012900000002,1,1,1789167745.1162944,-0.859017450374948,0.5108718344209189,0.022459186973693375,-0.024383881299120662,176.28199183399133,0.7833488519486379,-61.50671938704106,0.01848530570664754,0.02492469798188062,-0.07410022232144686,-0.9537947947311401,0.868575004825592,-9.322103577251434
2026-09-11T19:02:25.154,1.4035779520000062,-3.658714771270752,-329.2843294143677,-1317.1373176574707,-2.5062196183204652,-1.7163252860307694,-2.1842637062072754,-1.4962206387519839,-3.3469502477451285,0.5393141152481778,0.0,-0.0008754730224609375,-7.171875,-0.3151702880859375,0.1525879055261612,54.93164598941803,0.0,1,1789167744.1604004,38.99037747333333,-76.93980917333333,-6.584000000000003,0,1,19.918369000000002,26.091663999999998,123.81012900000002,1,1,1789167745.1482942,-0.8593805365100317,0.5102641516569385,0.023039036165993683,-0.023765349021149202,176.30951851218282,0.8792604324776444,-61.42845846873832,-0.018714292904509197,0.011910475881459704,-0.05771856196222808,-1.1417882783317566,0.8471965074729919,-8.73772529411316
2026-09-11T19:02:25.188,1.4369989759999982,-3.7337777614593506,-336.03999853134155,-1344.1599941253662,-2.5576377665996555,-1.7677434343099596,-2.2366151809692383,-1.5320813989639284,-3.4271684837238876,-1.073000043683676,0.0,0.005077362526208162,41.593753814697266,1.8278505094349384,0.1678466945886612,60.42481005191803,164.36253007990805,1,1789167745.1625931,38.99037381833333,-76.93981627666666,-6.804000000000002,0,1,42.107121,38.019556,382.9066240000001,1,1,1789167745.1762943,-0.8594853884270984,0.5099893654992462,0.02345570474478197,-0.025407559365696088,176.12349403925467,0.8253456479950108,-61.39483345306303,-0.06716951986177737,-0.005572138169917096,-0.07170894671328942,-0.21407917303085325,0.894464561252594,-9.412128625736237
2026-09-11T19:02:25.221,1.470416991999997,-3.8090598583221436,-342.8153872489929,-1371.2615489959717,-2.6092060029506685,-1.8193116706609727,-2.263664722442627,-1.5506103348731997,-3.4686165329124865,-0.5544594840481237,0.0,0.010999680496752262,90.10938262939453,3.9598849788308144,0.09155276417732239,32.95899510383606,-821.8864623226864,1,1789167745.1625931,38.99037381833333,-76.93981627666666,-6.804000000000002,0,1,42.107121,38.019556,382.9066240000001,1,1,1789167745.2162943,-0.8597515021971096,0.5094762815919514,0.02307244673509506,-0.02699879935679219,175.98949236812015,0.6968854471569118,-61.325135218430155,-0.0005044001538263612,0.05928621669636939,-0.03898838656152573,0.31116500963211063,1.6136842841148378,-9.889418289108276
2026-09-11T19:02:25.254,1.5038334719999966,-3.8850839138031006,-349.65755224227905,-1398.6302089691162,-2.661282480955124,-1.8713881486654282,-2.238166093826294,-1.5331437742710115,-3.429544949604084,0.5226930126149851,0.0,0.01614380069077015,132.25001525878906,5.811768248677254,0.1678467094898224,60.42481541633606,821.9244011487834,1,1789167745.1625931,38.99037381833333,-76.93981627666666,-6.804000000000002,0,1,42.107121,38.019556,382.9066240000001,1,1,1789167745.2482944,-0.8599108794224766,0.5093228438399238,0.019367253269625538,-0.027720564468738832,176.13512414575655,0.2905361181155584,-61.28608709111898,0.09918583966036135,0.03702611288350851,-0.009890606338126667,1.3087955305862427,0.13307624269485474,-10.46624545162201
2026-09-11T19:02:25.288,1.537256671999998,-3.963012933731079,-356.6711640357971,-1426.6846561431885,-2.7146638596057895,-1.9247695273160936,-2.3429067134857178,-1.6048910987377167,-3.5900391435614596,-2.1466324130155767,0.0,0.025228502228856087,206.67189025878906,9.082260802388191,0.2288818657398224,82.39747166633606,657.407317372336,1,1789167745.1625931,38.99037381833333,-76.93981627666666,-6.804000000000002,0,1,42.107121,38.019556,382.9066240000001,1,1,1789167745.2762942,-0.8598202598542499,0.509364117475482,0.019124353236802245,-0.029859264657180935,175.93834263336103,0.141436881456168,-61.29066682437693,-0.04255898114525573,0.05905618230095653,-0.011325616049116404,0.887207640132904,3.247864467067718,-6.3763820016670225
2026-09-11T19:02:25.321,1.570673216000003,-4.0496063232421875,-364.4645690917969,-1457.8582763671875,-2.7739803314208986,-1.9840859991312028,-2.6044692993164062,-1.7840614700317383,-3.9908318495699184,-5.361726553589597,0.0,0.03441810980439186,281.9531555175781,12.39051952958107,0.3051758110523224,109.86329197883606,821.9228269834231,1,1789167745.1625931,38.99037381833333,-76.93981627666666,-6.804000000000002,0,1,42.107121,38.019556,382.9066240000001,1,1,1789167745.3162944,-0.8596900089363475,0.5092006957167554,0.020809288228101828,-0.034852740782248,175.34720794263745,0.01632899128753293,-61.277803503730176,0.039684598400146265,0.025145482132257906,0.0045839327474379065,-0.9498721346664429,3.1416584458160397,-12.898883090744018
2026-09-11T19:02:25.354,1.6040891199999976,-4.14240026473999,-372.8160238265991,-1491.2640953063965,-2.8375441813468933,-2.0476498490571977,-2.7346439361572266,-1.8732310962677003,-4.190298622646068,-2.6684786452575517,0.0,0.045804981142282486,375.2344055175781,16.489793211221695,0.3356934189796448,120.84963083267212,328.77574863268194,1,1789167745.1625931,38.99037381833333,-76.93981627666666,-6.804000000000002,0,1,42.107121,38.019556,382.9066240000001,1,1,1789167745.3482943,-0.859341171252482,0.5097495910519945,0.019304855931485655,-0.03626883442021817,175.2955174016519,-0.2175601614190127,-61.342755817756704,0.013161876955139639,0.08348765023622355,0.020340939767367915,-0.06796008562088013,1.071670729675293,-16.872635802783964
2026-09-11T19:02:25.388,1.6375094400000023,-4.236355781555176,-381.2720203399658,-1525.0880813598633,-2.901903710365296,-2.1120093780755997,-2.8395543098449707,-1.945094702243805,-4.351052930931914,-2.150296764845294,0.0,0.06600380688905716,540.7031860351562,23.761370480060577,0.5340576767921448,192.26076364517212,2136.7579009563615,1,1789167745.1625931,38.99037381833333,-76.93981627666666,-6.804000000000002,0,1,42.107121,38.019556,382.9066240000001,1,1,1789167745.3762944,-0.8588359954915673,0.5106304570050041,0.01948454623039764,-0.03574383422444528,175.3369728817296,-0.17393429649609227,-61.46105624773503,-0.022741989219336515,0.017439329885927342,0.04735497139681095,-0.8971123567962647,0.8886786376571656,-8.718700392799377
2026-09-11T19:02:25.421,1.670923872000003,-4.333375930786133,-390.00383377075195,-1560.0153350830078,-2.9683625125885014,-2.1784681802988053,-2.8919589519500732,-1.9809918820858003,-4.431352635302877,-1.0743016622875587,0.0,0.07914353162050247,648.3438110351562,28.49167138338089,0.6561279892921448,236.20607614517212,1315.1596441920383,1,1789167745.1625931,38.99037381833333,-76.93981627666666,-6.804000000000002,0,1,42.107121,38.019556,382.9066240000001,1,1,1789167745.4162943,-0.8577039147314177,0.5125308018540082,0.02100582378908571,-0.03485580543080537,175.33531580181992,0.017429764786371302,-61.72253401953285,-0.015083309928660195,0.03360840914225321,0.1233307245324509,1.7113585197257994,2.2013968283081056,-12.446306185779571
2026-09-11T19:02:25.456,1.7043368000000072,-4.430468559265137,-398.7421703338623,-1594.9686813354492,-3.034870963096619,-2.244976630806923,-2.9189612865448,-1.9994884812831881,-4.472728349327098,-0.5535761247079414,0.0,0.09463883191347122,775.2813110351562,34.06997948884964,0.5950928330421448,214.23341989517212,-657.6094214190764,1,1789167745.1625931,38.99037381833333,-76.93981627666666,-6.804000000000002,0,1,42.107121,38.019556,382.9066240000001,1,1,1789167745.4482944,-0.8564948478496003,0.5145286179819022,0.020858353554667825,-0.03523926746843862,175.3062982058256,-0.03054314793053912,-61.98838609077762,-0.002150245638457014,0.0003735004599267865,0.1226526641180511,0.44443738533020016,1.2497594966125487,-9.515686851444245
2026-09-11T19:02:25.490,1.7377534719999943,-4.526371002197266,-407.3733901977539,-1629.4935607910156,-3.100564136505127,-2.3106698042154314,-2.8677854537963867,-1.964433035850525,-4.394311551204641,1.0490405936496778,0.0,0.10289574414491653,842.9219360351562,37.04246789216995,0.07629400491714478,27.46584177017212,-5589.053814966137,1,1789167745.1625931,38.99037381833333,-76.93981627666666,-6.804000000000002,0,1,42.107121,38.019556,382.9066240000001,1,1,1789167745.4882944,-0.8548514562303063,0.5173079396578261,0.02030128820447552,-0.03477558116176046,175.38499225306472,-0.07277694180615919,-62.35699431485709,-0.05341388189510926,-0.06431398667258945,0.14479338741007555,-0.8096370373535156,0.06364515954971313,-7.368716931533813
2026-09-11T19:02:25.524,1.771171007999996,-4.6195878982543945,-415.7629108428955,-1663.051643371582,-3.1644177103042606,-2.3745233780145645,-2.817246198654175,-1.92981364607811,-4.316870181813949,1.0359647633031166,0.0,0.10746384412050247,880.3438110351562,38.68698388338089,0.09155279397964478,32.95900583267212,164.3796856386932,1,1789167745.1625931,38.99037381833333,-76.93981627666666,-6.804000000000002,0,1,42.107121,38.019556,382.9066240000001,1,1,1789167745.5162942,-0.8535612235507776,0.5193811887860184,0.0227158419999714,-0.034064775178387345,175.31086153153777,0.19443457081962742,-62.64792651500161,-0.0516483068237918,-0.12747780136811462,0.14648827664668726,-2.6266131793212892,-0.2873348497390747,-7.652815586719513
2026-09-11T19:02:25.555,1.8045892479999992,-4.710381984710693,-423.9343786239624,-1695.7375144958496,-3.2266116595268253,-2.436717327237129,-2.7403500080108643,-1.877139755487442,-4.199042044307982,1.5762018164530174,0.0,0.1112365797162056,911.2500610351562,40.045168697834015,0.0,0.0,-986.2579786568356,1,1789167745.1625931,38.99037381833333,-76.93981627666666,-6.804000000000002,0,1,42.107121,38.019556,382.9066240000001,1,1,1789167745.5482943,-0.8520953422161666,0.521929539765335,0.02355560146177257,-0.031116184432438954,175.5482858569023,0.43902317616223396,-62.994070407163655,-0.14357060973612834,-0.1728244223946557,0.12945176875212022,2.004381226558685,-2.135594205722809,-16.310028283004762
2026-09-11T19:02:25.588,1.8380046080000056,-4.796875953674316,-431.7188358306885,-1726.875343322754,-3.285860028266907,-2.4959656959772114,-2.5851428508758545,-1.7708228528499605,-3.961217906339385,3.1816776068688473,0.0,0.1119995191693306,917.5000610351562,40.319826900959015,0.015258789993822575,5.493164397776127,164.39040003684136,1,1789167745.1625931,38.99037381833333,-76.93981627666666,-6.804000000000002,0,1,42.107121,38.019556,382.9066240000001,1,1,1789167745.5762944,-0.8508326209182421,0.5240412006495029,0.02580142577525812,-0.028265838589834377,175.69023494646046,0.8182379828154869,-63.28992739846685,0.019736532247402277,-0.17212960681943676,0.169037057917828,-2.1475583189201353,0.8318000667190553,-6.35127697725296
2026-09-11T19:02:25.622,1.871418239999997,-4.885959625244141,-439.73636627197266,-1758.9454650878906,-3.3468823432922368,-2.5569880110025407,-2.639132022857666,-1.8078054356575013,-4.04394558799548,-1.106811220269329,0.0,0.11249924451112747,921.5938110351562,40.49972802400589,-0.015258791856467724,-5.493165068328381,-328.79782317909485,1,1789167745.1625931,38.99037381833333,-76.93981627666666,-6.804000000000002,0,1,42.107121,38.019556,382.9066240000001,1,1,1789167745.6162944,-0.8485856965025146,0.5273705615279379,0.03197583459175619,-0.027570863737104493,175.38014929228058,1.4433386798955758,-63.77764734566105,0.007933045049089826,-0.2316727359816997,0.1739616789352552,0.1816191609954834,1.4293192610740661,-8.886001844558717
2026-09-11T19:02:25.655,1.9048295679999967,-4.976470947265625,-447.88238525390625,-1791.529541015625,-3.4088825988769536,-2.6189882665872575,-2.7181098461151123,-1.861905244588852,-4.164963413987227,-1.6192055859423247,0.0,0.11190605908632278,916.7344360351562,40.2861812710762,0.0,0.0,164.4102583509531,1,1789167745.1625931,38.99037381833333,-76.93981627666666,-6.804000000000002,0,1,42.107121,38.019556,382.9066240000001,1,1,1789167745.6482942,-0.8469214099907054,0.5296026801773908,0.036648789368814175,-0.030033193071669285,174.8518559953031,1.7343771821306109,-64.11567125931725,-0.16456011385353733,-0.24116383645404488,0.13828104037210914,-0.20839131593704224,3.2308989622879025,-10.13517294216156
2026-09-11T19:02:25.688,1.9382394240000025,-5.069472312927246,-456.25250816345215,-1825.0100326538086,-3.4725885343551637,-2.682694202065468,-2.7458531856536865,-1.8809094321727755,-4.207474570894715,-0.5688197992807941,0.0,0.11092949658632278,908.7344360351562,39.9346187710762,0.0,0.0,0.0,1,1789167745.1625931,38.99037381833333,-76.93981627666666,-6.804000000000002,0,1,42.107121,38.019556,382.9066240000001,1,1,1789167745.6762943,-0.8460397963685975,0.5311077891082097,0.037766879540968704,-0.026736531542248802,175.10035455565554,2.034691701682658,-64.32476764571675,0.0422591335797631,-0.23399629281487977,0.1134505901698362,1.8536530135726927,-0.6112485045814514,-9.965517894363403
2026-09-11T19:02:25.721,1.9716511040000029,-5.156176567077637,-464.0558910369873,-1856.2235641479492,-3.5319809484481812,-2.7420866161584856,-2.642703056335449,-1.810251593589783,-4.049417487450297,2.1147646147392694,0.0,0.10985184460878372,899.9063110351562,39.54666405916214,-0.061035171151161194,-21.97266161441803,-657.6341451378014,1,1789167745.1625931,38.99037381833333,-76.93981627666666,-6.804000000000002,0,1,42.107121,38.019556,382.9066240000001,1,1,1789167745.7162943,-0.8442719109928761,0.5336686592536692,0.04245467598354641,-0.02450108009782811,175.02191991071354,2.6099038164125474,-64.70785655372858,-0.053876045081037355,-0.2303171387516757,0.0835005656726883,-1.4311825246047973,1.7549981129455567,-11.575279518413543
2026-09-11T19:02:25.755,2.0050635519999958,-5.249267101287842,-472.43403911590576,-1889.736156463623,-3.5957479643821717,-2.805853632092476,-2.7741286754608154,-1.9002781426906588,-4.250801142382464,-2.694401472795259,0.0,0.10975456982851028,899.1094360351562,39.5116451382637,0.0457763709127903,16.479493528604507,1150.8332206916036,1,1789167745.1625931,38.99037381833333,-76.93981627666666,-6.804000000000002,0,1,42.107121,38.019556,382.9066240000001,1,1,1789167745.7482944,-0.8424331108491808,0.5364528980093888,0.04376625231275331,-0.024683134338987053,174.91440448055582,2.7086700025324837,-65.09745768249007,-0.017236348093920398,-0.16006868355645515,0.13500540643196618,0.7418730847358703,1.5287586937141417,-10.50409912124634
2026-09-11T19:02:25.789,2.0384754560000005,-5.34566068649292,-481.1094617843628,-1924.4378471374512,-3.6617775702476503,-2.8718832379579546,-2.878138303756714,-1.9715247380733492,-4.4101752372793195,-2.1323716057211333,0.0,0.10991287976503372,900.4063110351562,39.56863671541214,0.0,0.0,-493.2222218943938,1,1789167745.1625931,38.99037381833333,-76.93981627666666,-6.804000000000002,0,1,42.107121,38.019556,382.9066240000001,1,1,1789167745.7762942,-0.8410744790742087,0.5382082531866117,0.047567559298483525,-0.025747313534619617,174.56923579282184,2.9979879266040608,-65.37303070906114,-0.04036684760475085,-0.15865077807213496,0.13940730133842108,-3.060459382476807,3.108021635761261,-8.599647659835815
2026-09-11T19:02:25.822,2.071889088000006,-5.446242332458496,-490.16180992126465,-1960.6472396850586,-3.73067599773407,-2.940781665444374,-3.0348706245422363,-2.078886377811432,-4.650336385583907,-3.2131089412268943,0.0,0.10980416089296341,899.5156860351562,39.52949792146683,-0.03051757998764515,-10.986328795552254,-328.79780311073097,1,1789167745.1625931,38.99037381833333,-76.93981627666666,-6.804000000000002,0,1,42.107121,38.019556,382.9066240000001,1,1,1789167745.8162944,-0.8388026325563002,0.5412684087314791,0.05211269299270206,-0.0268871819825261,174.16332704157833,3.3432815680311556,-65.83773637452524,-0.06122841908798867,-0.1137265267245765,0.14873172286720077,1.2647636713600159,1.9338714118957518,-9.18402594297409
2026-09-11T19:02:25.855,2.1053018879999996,-5.5495524406433105,-499.45971965789795,-1997.8388786315918,-3.801443421840668,-3.011549089550972,-3.086677074432373,-2.1143737959861757,-4.729719479210302,-1.0620905214393994,0.0,0.10979843884706497,899.4688110351562,39.52743798494339,0.0610351637005806,21.972658932209015,986.4180112941028,1,1789167745.1625931,38.99037381833333,-76.93981627666666,-6.804000000000002,0,1,42.107121,38.019556,382.9066240000001,1,1,1789167745.8482943,-0.8370669276954497,0.5436384300083702,0.05606820200821549,-0.02515099799414572,174.07096558393297,3.8141073669092793,-66.20152278331643,-0.008067260868568191,-0.057848414458576455,0.16737253741020103,-1.876404441947937,2.0206602658271793,-12.056884107856751
2026-09-11T19:02:25.888,2.138712351999999,-5.656370639801025,-509.0733575820923,-2036.2934303283691,-3.8746138882637027,-3.084719555974007,-3.191322088241577,-2.1860556304454803,-4.890067176193356,-2.145490540308158,0.0,0.10946465283632278,896.7344360351562,39.4072750210762,0.0,0.0,-657.6579999670016,1,1789167745.1625931,38.99037381833333,-76.93981627666666,-6.804000000000002,0,1,42.107121,38.019556,382.9066240000001,1,1,1789167745.8762944,-0.8352595891220262,0.5462262716723492,0.05747413185215796,-0.025980821435630193,173.8902719618009,3.877806048493678,-66.57318271469676,0.00446926461558188,-0.049791625565520234,0.17533525305657477,-1.2401489794540403,2.1738401413536073,-9.550500459518432
2026-09-11T19:02:25.923,2.1721234559999942,-5.767907619476318,-519.1116857528687,-2076.4467430114746,-3.951016719341278,-3.1611223870515825,-3.3219683170318604,-2.2755482971668246,-5.09025657025506,-2.6785306681681837,0.0,0.10946465283632278,896.7344360351562,39.4072750210762,0.0,0.0,0.0,1,1789167745.1625931,38.99037381833333,-76.93981627666666,-6.804000000000002,0,1,42.107121,38.019556,382.9066240000001,1,1,1789167745.9162943,-0.832904582239429,0.549422809197646,0.06003780289668664,-0.0282841977306735,173.49107471135906,3.9526216178350415,-67.04626556423443,-0.01184083724430513,0.03193743091639384,0.18974853108539433,-0.7711949687194825,2.443719153804779,-8.648288644638061
2026-09-11T19:02:25.956,2.205534111999995,-5.884597301483154,-529.6137571334839,-2118.4550285339355,-4.030949151515961,-3.241054819226265,-3.479161500930786,-2.3832256281375885,-5.331123899735116,-3.2228439624400353,0.0,0.10946465283632278,896.7344360351562,39.4072750210762,0.0,0.0,0.0,1,1789167745.1625931,38.99037381833333,-76.93981627666666,-6.804000000000002,0,1,42.107121,38.019556,382.9066240000001,1,1,1789167745.9482944,-0.8306028243398609,0.5528181967748327,0.05967054749761469,-0.030502709299395865,173.28703554648595,3.7498286527700744,-67.51250507338352,0.01260389519327705,0.08288428991380911,0.18349798343522702,-0.629586940383911,1.7247936304473879,-10.397696966991425
2026-09-11T19:02:25.989,2.2389463039999953,-6.003495216369629,-540.3145694732666,-2161.2582778930664,-4.1123942232131965,-3.3224998909235004,-3.5580389499664307,-2.437256680727005,-5.4519879221702805,-1.6171058932444884,0.0,0.10934258252382278,895.7344360351562,39.3633297085762,0.0,0.0,0.0,1,1789167745.1625931,38.99037381833333,-76.93981627666666,-6.804000000000002,0,1,42.107121,38.019556,382.9066240000001,1,1,1789167745.9762943,-0.8290138885764892,0.555576478722116,0.055678462018576985,-0.03115538003729278,173.4705894380725,3.307691391253092,-67.84598415919204,0.013736962943671771,0.10198848937321385,0.19485274648285172,0.7255940454673767,0.6673425435066223,-11.398171416492463
2026-09-11T19:02:26.022,2.2723594880000064,-6.122849464416504,-551.0564517974854,-2204.2258071899414,-4.194151883125305,-3.40425755083561,-3.585099220275879,-2.4557929658889774,-5.493452411168966,-0.5547596171010277,0.0,0.1096496656537056,898.2500610351562,39.473879635334015,0.0,0.0,0.0,1,1789167745.1625931,38.99037381833333,-76.93981627666666,-6.804000000000002,0,1,42.107121,38.019556,382.9066240000001,1,1,1789167746.0162942,-0.8264571706826919,0.5592232588668818,0.05675342595021595,-0.03188950316918496,173.31658937005892,3.3331622447403175,-68.36326848583987,0.018096097283452805,0.0883408872872442,0.19432897317432823,-2.486672281513214,2.2145377395248413,-8.69908709247589
2026-09-11T19:02:26.056,2.305771488000005,-6.242918014526367,-561.862621307373,-2247.450485229492,-4.276398839950562,-3.486504507660866,-3.6116676330566406,-2.473992328643799,-5.53416322620749,-0.5446954014971332,0.0,0.10966873914003372,898.4063110351562,39.48074609041214,0.015258791856467724,5.493165068328381,164.4069516439793,1,1789167745.1625931,38.99037381833333,-76.93981627666666,-6.804000000000002,0,1,42.107121,38.019556,382.9066240000001,1,1,1789167746.0482943,-0.8245428386151751,0.5623262228586693,0.05404823488380847,-0.03157712272953537,173.51048256834238,3.0734948329004483,-68.7611233404276,-0.024670054444014648,0.07143301015854912,0.20778022571944854,-0.4244318190002441,0.9681125039672852,-9.44135244321823
2026-09-11T19:02:26.089,2.339184896000006,-6.3646039962768555,-572.814359664917,-2291.257438659668,-4.359753737449647,-3.5698594051599506,-3.638399839401245,-2.492303889989853,-5.575125022346659,-0.5480303399776996,0.0,0.11179543286561966,915.8281860351562,40.24635583162308,0.2288818508386612,82.39746630191803,2301.600041324332,1,1789167745.1625931,38.99037381833333,-76.93981627666666,-6.804000000000002,0,1,42.107121,38.019556,382.9066240000001,1,1,1789167746.0762944,-0.8228906463039262,0.5648670564022783,0.05329640934119338,-0.03058897788858069,173.64375075978634,3.047097688094029,-69.10394495297658,0.03546997732243036,0.07275684239618682,0.2095094979423245,-2.9641580778884884,0.2599742957878113,-11.18978010055542
2026-09-11T19:02:26.122,2.37259856,-6.484472274780273,-583.6025047302246,-2334.4100189208984,-4.441863508224488,-3.651969175934792,-3.5868325233459473,-2.456980278491974,-5.496108353820623,1.0571606722891964,0.0,0.1188812330365181,973.8750610351562,42.797243893146515,0.2136230766773224,76.90430760383606,-164.398573532162,1,1789167745.1625931,38.99037381833333,-76.93981627666666,-6.804000000000002,0,1,42.107121,38.019556,382.9066240000001,1,1,1789167746.1162944,-0.8201723426081544,0.5691306903081543,0.050335583596783424,-0.02956204989487336,173.92018271359382,2.803935052177671,-69.66373323917307,-0.023816064841013822,0.04259179333519322,0.2305625320445061,0.27635140155792237,-0.3214619923019409,-10.067310923042298
2026-09-11T19:02:26.156,2.406010207999998,-6.60351037979126,-594.3159341812134,-2377.2637367248535,-4.523404610157013,-3.7335102778673175,-3.5361921787261963,-2.4222916424274445,-5.41851208488601,1.0382198466993273,0.0,0.12513543665409088,1025.1094970703125,45.04875719547272,0.12207034230232239,43.94532322883606,-986.4519216472719,1,1789167745.1625931,38.99037381833333,-76.93981627666666,-6.804000000000002,0,1,42.107121,38.019556,382.9066240000001,1,1,1789167746.1482942,-0.8179117001934271,0.5727430678354868,0.04627987724980861,-0.029051710704106355,174.22472091544532,2.4316393831911727,-70.1259764762864,0.04335746927804313,0.09419594332890957,0.25883320073538507,0.6378245265197754,0.7109821367263793,-8.702029087524414
2026-09-11T19:02:26.190,2.4394235200000054,-6.7209930419921875,-604.8893737792969,-2419.5574951171875,-4.603880233764649,-3.813985901474953,-3.4592440128326416,-2.36958214879036,-5.300604305633405,1.5774998191461174,0.0,0.126985564827919,1040.2657470703125,45.71480333805084,0.015258791856467724,5.493165068328381,-1150.8035528025184,1,1789167745.1625931,38.99037381833333,-76.93981627666666,-6.804000000000002,0,1,42.107121,38.019556,382.9066240000001,1,1,1789167746.1882944,-0.8152774537720584,0.576718110191735,0.0446325525077121,-0.026959784948501753,174.51856500958203,2.388747675210097,-70.66468680419796,0.05133571835475962,0.09303093605320335,0.25545179984257127,-2.4563697325134277,0.9543831937408448,-8.588664211654663
2026-09-11T19:02:26.223,2.4728412799999973,-6.838027000427246,-615.4224300384521,-2461.6897201538086,-4.6840484952926635,-3.8941541630029683,-3.4095826148986816,-2.335564091205597,-5.224508078036853,1.017963429768217,0.0,0.1265430599451065,1036.6407470703125,45.55550158023834,-0.0610351637005806,-21.972658932209015,-821.8930293515809,1,1789167746.2106159,38.990368548333336,-76.939825675,-6.764000000000003,0,1,14.546596000000001,23.853456000000005,166.41,1,1,1789167746.2162943,-0.8137747614671355,0.5789867646460651,0.042187245954081964,-0.027662253028238475,174.60989138926791,2.099195402528538,-70.96122015612592,0.027212824631245188,0.21312337669150397,0.19699775613355278,-7.108252303237915,-0.7331451660919189,-7.281143545589447
2026-09-11T19:02:26.256,2.5062577279999942,-6.948031425476074,-625.3228282928467,-2501.2913131713867,-4.759401526451112,-3.9695071941614155,-3.385732412338257,-2.319226702451706,-5.187962380215873,0.48890261328470264,0.0,0.12655450403690338,1036.7344970703125,45.55962145328522,0.0,0.0,657.5402308531114,1,1789167746.2106159,38.990368548333336,-76.939825675,-6.764000000000003,0,1,14.546596000000001,23.853456000000005,166.41,1,1,1789167746.2482944,-0.8118002527071085,0.5818959415813268,0.03978493116139003,-0.028189042699942695,174.7146677713536,1.8216626742950297,-71.34976471064603,0.017647198599839865,0.10523881603920289,0.21498058154855113,-1.408136896724701,-0.4044262526702881,-9.865097796707152
2026-09-11T19:02:26.289,2.539671519999999,-7.060722351074219,-635.4650115966797,-2541.8600463867188,-4.83659481048584,-4.046700478196144,-3.4134716987609863,-2.338228113651276,-5.230467326528439,-0.5686697038027637,0.0,0.12682916224002838,1038.9844970703125,45.65849840641022,0.0457763709127903,16.479493528604507,493.1943530564336,1,1789167746.2106159,38.990368548333336,-76.939825675,-6.764000000000003,0,1,14.546596000000001,23.853456000000005,166.41,1,1,1789167746.2762942,-0.810022624257331,0.5844176169122831,0.037705559644573096,-0.029961441983393226,174.68438495663784,1.4935678088058297,-71.68895825934779,0.038166336483836404,0.09557248450995749,0.23253335783585813,-1.9239666952323915,1.3783246802330018,-12.7789477592659
2026-09-11T19:02:26.323,2.573082912000004,-7.175490856170654,-645.7941770553589,-2583.1767082214355,-4.915211236476899,-4.125316904187203,-3.439722776412964,-2.3562101018428803,-5.270691888517533,-0.5381993121268838,0.0,0.1343078762292862,1100.2501220703125,48.35083544254303,0.5340576767921448,192.26076364517212,5261.117828210851,1,1789167746.2106159,38.990368548333336,-76.939825675,-6.764000000000003,0,1,14.546596000000001,23.853456000000005,166.41,1,1,1789167746.3162944,-0.807138479585583,0.5883339428633234,0.03912111577682481,-0.02932890634758605,174.63985000457475,1.6412863718629853,-72.2544417962753,-0.07666480912432733,-0.0635565137772239,0.2608733160980412,1.1805245464706422,1.2460329695510866,-8.7171313287735
2026-09-11T19:02:26.357,2.6064960960000008,-7.29111909866333,-656.2007188796997,-2624.802875518799,-4.994416582584382,-4.204522250294685,-3.439945697784424,-2.3563628029823307,-5.271033471238207,-0.004570086450020523,0.0,0.14228059351444244,1165.5626220703125,51.22101366519928,0.3204346001148224,115.35645604133606,-2301.615661765222,1,1789167746.2106159,38.990368548333336,-76.939825675,-6.764000000000003,0,1,14.546596000000001,23.853456000000005,166.41,1,1,1789167746.3482943,-0.8044648301659665,0.5918949356038748,0.04187970529104018,-0.02725458708663529,174.63586285006193,2.0125152928419774,-72.78275687835425,-0.0902425980402172,-0.13351332445443623,0.2898878441161202,-4.067308154582977,0.23006401279449465,-8.861092953147889
2026-09-11T19:02:26.390,2.639910912000005,-7.405252933502197,-666.4727640151978,-2665.891056060791,-5.0725982594490056,-4.28270392715931,-3.362086057662964,-2.3030289494991303,-5.151729038786524,1.5961139359017844,0.0,0.14552690088748932,1192.1563720703125,52.389684319496155,0.1678466945886612,60.42481005191803,-1643.9308236625138,1,1789167746.2106159,38.990368548333336,-76.939825675,-6.764000000000003,0,1,14.546596000000001,23.853456000000005,166.41,1,1,1789167746.3882942,-0.8009635399801678,0.5966782897290418,0.044437199050698116,-0.021395362324402294,174.98627618233073,2.6166254367039183,-73.48316098288423,0.044109357119802295,-0.21021496002598064,0.30398696287958077,-0.6740110656166076,-1.2321075263214112,-10.069664519081117
2026-09-11T19:02:26.423,2.673323007999997,-7.514542102813721,-676.3087892532349,-2705.2351570129395,-5.147461340427399,-4.357567008137703,-3.2849042415618896,-2.2501594054698946,-5.033463237003159,1.5823474237967021,0.0,0.14541436731815338,1191.2344970703125,52.34917223453522,-0.1220703274011612,-43.94531786441803,-3123.722855230648,1,1789167746.2106159,38.990368548333336,-76.939825675,-6.764000000000003,0,1,14.546596000000001,23.853456000000005,166.41,1,1,1789167746.4162943,-0.798664999140212,0.5997613242865203,0.04531517387979156,-0.01916006405753465,175.12021537425392,2.83158439033219,-73.93046586351521,0.09509321709735985,-0.15795072650916003,0.2759648290741858,-0.26605441888809206,-0.3230310563278198,-10.422409725399016
2026-09-11T19:02:26.456,2.706737504000003,-7.621272087097168,-685.9144878387451,-2743.6579513549805,-5.2205713796615605,-4.430677047371865,-3.2334158420562744,-2.214889851808548,-4.954567492413532,1.0555165536939477,0.0,0.14411546289920807,1180.5938720703125,51.881566643714905,-0.0915527492761612,-32.95898973941803,328.78928130467756,1,1789167746.2106159,38.990368548333336,-76.939825675,-6.764000000000003,0,1,14.546596000000001,23.853456000000005,166.41,1,1,1789167746.4482944,-0.7962705370098266,0.602934760848963,0.04657113954376836,-0.015938475826780908,175.3157369702129,3.1498020564651905,-74.39475439123954,0.09166469231474218,-0.17829410973748075,0.25868868747331997,-0.21780570009231567,0.2448720545387268,-10.96677687587738
2026-09-11T19:02:26.491,2.740150688,-7.726103782653809,-695.3493404388428,-2781.397361755371,-5.29238109111786,-4.502486758828163,-3.156562089920044,-2.1622450315952304,-4.8368043834896834,1.5755702962436162,0.0,0.14046861231327057,1150.7188720703125,50.568700432777405,-0.1831054836511612,-65.91797411441803,-986.4065745725707,1,1789167746.2106159,38.990368548333336,-76.939825675,-6.764000000000003,0,1,14.546596000000001,23.853456000000005,166.41,1,1,1789167746.4882944,-0.7936527438954838,0.6064166593279422,0.04661018378024281,-0.014200287485821396,175.457516427923,3.2539730499560826,-74.89476052446247,0.0625433501464412,-0.1395549561931398,0.20176128326102089,1.4559933495140074,-0.7227501169204712,-10.918920423088075
2026-09-11T19:02:26.524,2.7735787839999944,-7.830429553985596,-704.7386598587036,-2818.9546394348145,-5.363844244480133,-4.573949912190438,-3.1059844493865967,-2.1275993478298187,-4.759304196111794,1.036424083663558,0.0,0.1320037990808487,1081.3751220703125,47.52136766910553,-0.2441406548023224,-87.89063572883606,-657.3111915922972,1,1789167746.2106159,38.990368548333336,-76.939825675,-6.764000000000003,0,1,14.546596000000001,23.853456000000005,166.41,1,1,1789167746.5162942,-0.7922926250054886,0.608171257018623,0.04713692727177153,-0.013350227925988735,175.49054186554525,3.351079427984235,-75.15234418501545,0.02111778581743059,-0.15464856356438675,0.18220766151922763,-0.36215959047317503,0.24624498556137087,-9.862842267169952
2026-09-11T19:02:26.557,2.8069929600000023,-7.9333577156066895,-714.002194404602,-2856.008777618408,-5.434350035190583,-4.644455702900887,-3.0806615352630615,-2.1102531516551974,-4.720501860359688,0.5191268572541536,0.0,0.12239839136600494,1002.6876220703125,44.06342089176178,-0.2593994438648224,-93.38379979133606,-164.39621502259078,1,1789167746.2106159,38.990368548333336,-76.939825675,-6.764000000000003,0,1,14.546596000000001,23.853456000000005,166.41,1,1,1789167746.5482943,-0.7909890170698507,0.6097350532975447,0.04946315985460081,-0.010627110252064205,175.56686509710363,3.7435151476140995,-75.39871846708435,0.04861178299117207,-0.10822681971861718,0.16216604571857673,-1.3114433261299132,0.2318292098236084,-9.313277592105866
2026-09-11T19:02:26.592,2.8404048959999955,-8.033618927001953,-723.0257034301758,-2892.102813720703,-5.503028964996338,-4.713134632706643,-3.003246545791626,-2.057223883867264,-4.601878766703789,1.5871354412969207,0.0,0.11162759363651276,914.4532470703125,40.18593370914459,-0.3509521782398224,-126.34278416633606,-986.443418753309,1,1789167746.2106159,38.990368548333336,-76.939825675,-6.764000000000003,0,1,14.546596000000001,23.853456000000005,166.41,1,1,1789167746.5882943,-0.7894529429529936,0.6114338227517965,0.05333366529206751,-0.008261440824437373,175.49880759966058,4.249867808186587,-75.68289111339139,0.055737613261214514,-0.09550162414232653,0.1275250997908437,-1.9386766704750062,0.8714189333724975,-9.166570105686187
2026-09-11T19:02:26.624,2.8738215040000057,-8.136576652526855,-732.291898727417,-2929.167594909668,-5.573555006980897,-4.783660674691201,-3.03007435798645,-2.0756009352207188,-4.642987059817279,-0.5499376643329354,0.0,0.10499383509159088,860.1094970703125,37.79778063297272,-0.2593994438648224,-93.38379979133606,986.305503388911,1,1789167746.2106159,38.990368548333336,-76.939825675,-6.764000000000003,0,1,14.546596000000001,23.853456000000005,166.41,1,1,1789167746.6162944,-0.7886733819324804,0.6125380718994698,0.05226013802230871,-0.007764346640440772,175.61412034362402,4.181745261532087,-75.83095154545384,0.05848319070752679,-0.09622331778802617,0.12199397685834845,0.5337759683036805,0.7609960525512696,-10.1382130037117
2026-09-11T19:02:26.657,2.9072336320000005,-8.239482879638672,-741.5534591674805,-2966.213836669922,-5.644045772552491,-4.854151440262795,-3.0831096172332764,-2.1119300878047946,-4.72425305969218,-1.087304363974707,0.0,0.0967865139245987,792.8751220703125,34.84314501285553,-0.2746582329273224,-98.87696385383606,-164.4062917064382,1,1789167746.2106159,38.990368548333336,-76.939825675,-6.764000000000003,0,1,14.546596000000001,23.853456000000005,166.41,1,1,1789167746.6482942,-0.7877462919848008,0.6135948783217245,0.05354851766428717,-0.009468950179525547,175.3627670897682,4.1716716956781115,-76.00078012813228,0.04397042891134354,-0.04703871773634958,0.08448213884400992,-0.4876847125434876,1.2080812334251403,-9.089293702411652
2026-09-11T19:02:26.690,2.9406545599999987,-8.342768669128418,-750.8491802215576,-3003.3967208862305,-5.714796538352966,-4.924902206063271,-3.084052801132202,-2.1125761687755586,-4.7256983016632885,-0.019331628695769702,0.0,0.08862115442752838,725.9844970703125,31.903615593910217,-0.2288818657398224,-82.39747166633606,493.0890066098971,1,1789167746.2106159,38.990368548333336,-76.939825675,-6.764000000000003,0,1,14.546596000000001,23.853456000000005,166.41,1,1,1789167746.6882944,-0.7868761916434894,0.6147072967435672,0.05317436352068855,-0.011544930446927082,175.1961593946405,3.984682136616446,-76.1610808163547,0.05816257372393543,-0.06124552331465822,0.07867717375187677,-0.0672736201095581,1.475802782840729,-9.114104527320862
2026-09-11T19:02:26.724,2.974067039999994,-8.449252128601074,-760.4326915740967,-3041.7307662963867,-5.787737708091736,-4.997843375802041,-3.163846492767334,-2.167234847545624,-4.84796628387979,-1.635876138798218,0.0,0.07600022852420807,622.5938720703125,27.360082268714905,-0.3967285454273224,-142.82227635383606,-1808.4501565734747,1,1789167746.2106159,38.990368548333336,-76.939825675,-6.764000000000003,0,1,14.546596000000001,23.853456000000005,166.41,1,1,1789167746.7162943,-0.7862830479696028,0.6154263296462053,0.05332450917176431,-0.012880138796688978,175.06136383067724,3.8992805011621443,-76.26902633397349,0.062912487283238,-0.03796946334421144,0.06992382395434962,0.976252023601532,1.1469858029174804,-8.950921868629456
2026-09-11T19:02:26.758,3.0074854399999964,-8.558615684509277,-770.275411605835,-3081.10164642334,-5.862651743888855,-5.072757411599159,-3.269731044769287,-2.239765765666962,-5.010213326921438,-2.1703887116478744,0.0,0.07076837122440338,579.7344970703125,25.476613640785217,0.0,0.0,4273.761650881752,1,1789167746.2106159,38.990368548333336,-76.939825675,-6.764000000000003,0,1,14.546596000000001,23.853456000000005,166.41,1,1,1789167746.7482944,-0.7857560981966084,0.6158568815339875,0.05582064905385928,-0.01384596523468244,174.79376051766,4.052388264420084,-76.36131882479258,0.03408558215974846,-0.006956882398449398,0.04677063516324324,-0.9083900044822694,1.8553201441001892,-8.701244555511474
2026-09-11T19:02:26.791,3.0409092480000055,-8.669533729553223,-780.25803565979,-3121.03214263916,-5.938630604743958,-5.148736272454262,-3.2962300777435303,-2.2579176032543185,-5.0508178311880725,-0.5430810752428762,0.0,0.06978608667850494,571.6876220703125,25.12299120426178,-0.015258795581758022,-5.493166409432888,-164.34890989774092,1,1789167746.2106159,38.990368548333336,-76.939825675,-6.764000000000003,0,1,14.546596000000001,23.853456000000005,166.41,1,1,1789167746.7882943,-0.7852720067205108,0.616530637217523,0.05465092242685557,-0.015846940120763774,174.6937225760468,3.8010066353817975,-76.44834332705473,0.04080562337870223,0.056593697259317725,0.04637619075229253,0.5192621260643006,0.8171881579780579,-9.06526740951538
2026-09-11T19:02:26.824,3.074323199999995,-8.785174369812012,-790.665693283081,-3162.662773132324,-6.017844443321229,-5.227950111031532,-3.4018349647521973,-2.3302569508552553,-5.212636343180146,-2.1649443801487402,0.0,0.06928063929080963,567.5469970703125,24.941030144691467,0.0,0.0,164.39738733791881,1,1789167746.2106159,38.990368548333336,-76.939825675,-6.764000000000003,0,1,14.546596000000001,23.853456000000005,166.41,1,1,1789167746.8162944,-0.7847941135724105,0.6170414408055115,0.0553697409073846,-0.017095362605164238,174.52736797392626,3.7733967123385472,-76.53254605211109,0.04940468607035309,0.03989508510793679,0.05716092926621589,-0.3695145780944824,2.390567109928131,-11.331780394897462
2026-09-11T19:02:26.858,3.107735008000006,-8.905205726623535,-801.4685153961182,-3205.8740615844727,-6.100065922737122,-5.3101715904474265,-3.5072431564331055,-2.4024615621566774,-5.3741534586539785,-2.161050707025443,0.0,0.0694885402917862,569.2501220703125,25.01587450504303,0.0,0.0,0.0,1,1789167746.2106159,38.990368548333336,-76.939825675,-6.764000000000003,0,1,14.546596000000001,23.853456000000005,166.41,1,1,1789167746.8482943,-0.7844465403901626,0.6174287463347311,0.05531882508126557,-0.019110103638014103,174.34780930390545,3.622995359989085,-76.59065158309456,0.11757009080331843,0.07463568933595871,0.05250090016339103,-0.4864098480224609,1.162970642681122,-9.318965449199675
2026-09-11T19:02:26.891,3.1411467199999947,-9.02592945098877,-812.3336505889893,-3249.334602355957,-6.182761673927308,-5.392867341637611,-3.612837314605713,-2.4747935605049136,-5.535955530835968,-2.164869562752738,0.0,0.0694885402917862,569.2501220703125,25.01587450504303,0.0,0.0,0.0,1,1789167746.2106159,38.990368548333336,-76.939825675,-6.764000000000003,0,1,14.546596000000001,23.853456000000005,166.41,1,1,1789167746.8882942,-0.7841429619939048,0.6180365226072037,0.052006632241643126,-0.02111828785445589,174.40168448064742,3.1791130077361878,-76.6435850128384,0.08245424078611771,0.11136876143805736,0.05517753710424953,1.1513007289886474,0.29645503438949583,-9.967871490402223
2026-09-11T19:02:26.924,3.174559488,-9.147998809814453,-823.3198928833008,-3293.279571533203,-6.266379184722901,-5.476484852433205,-3.664654493331909,-2.510288327932358,-5.615355064272448,-1.062311492045158,0.0,0.0669403225183487,548.3751220703125,24.09851610660553,-0.2136230617761612,-76.90430223941803,-2301.644157090074,1,1789167746.2106159,38.990368548333336,-76.939825675,-6.764000000000003,0,1,14.546596000000001,23.853456000000005,166.41,1,1,1789167746.9162943,-0.7838604475348498,0.6184336859798543,0.04993342495654099,-0.02468254257457194,174.2279424435324,2.7370657543601387,-76.68198876324897,-0.009692511468025309,0.2146271523750223,0.047720792408028956,-0.6788163241958618,1.5107144574165343,-10.371807410564424
2026-09-11T19:02:26.958,3.207973056,-9.270156860351562,-834.3141174316406,-3337.2564697265625,-6.350057449340821,-5.560163117051125,-3.664919853210449,-2.510470099449158,-5.61576167557524,-0.005440051083446385,0.0,0.06168176233768463,505.2969970703125,22.205434441566467,-0.1831054836511612,-65.91797411441803,328.7984128184068,1,1789167746.2106159,38.990368548333336,-76.939825675,-6.764000000000003,0,1,14.546596000000001,23.853456000000005,166.41,1,1,1789167746.9482944,-0.7839843662925955,0.6183653986321302,0.04804143707826324,-0.026168062724991243,174.22985596593423,2.4624495097693804,-76.65313488136542,0.015972729715476506,0.2328761405009498,0.0248691965116672,-0.8266025421333313,0.7796286878585815,-9.03290546398163
2026-09-11T19:02:26.992,3.2413821119999966,-9.393404006958008,-845.4063606262207,-3381.625442504883,-6.434481744766236,-5.64458741247654,-3.665666341781616,-2.5109814441204072,-5.616905521028106,-0.015305570778453065,0.0,0.05614091455936432,459.9063720703125,20.210729241371155,-0.1678466945886612,-60.42481005191803,164.42140904851024,1,1789167746.2106159,38.990368548333336,-76.939825675,-6.764000000000003,0,1,14.546596000000001,23.853456000000005,166.41,1,1,1789167746.9882944,-0.7845629967048781,0.6177954541042632,0.04456296285378187,-0.028351780036909524,174.28330047045895,1.9996677691546427,-76.53639685868072,0.06507931354958896,0.22940241169070547,0.002787639881285343,-0.6483176421928406,0.588202876701355,-6.486608749485016
2026-09-11T19:02:27.025,3.274793568000007,-9.516790390014648,-856.5111351013184,-3426.0445404052734,-6.519001417160035,-5.729107084870339,-3.666185140609741,-2.511336821317673,-5.6177004771780386,-0.01063638762901084,0.0,0.054567351937294006,447.0157470703125,19.644246697425842,-0.0457763709127903,-16.479493528604507,1315.2769075163922,1,1789167746.2106159,38.990368548333336,-76.939825675,-6.764000000000003,0,1,14.546596000000001,23.853456000000005,166.41,1,1,1789167747.0162942,-0.7848952598454854,0.6174317863611795,0.04300524789673608,-0.029461312195333836,174.29527123796308,1.7838215081629585,-76.46905729814397,0.09057281433469454,0.2183813555960621,-0.018559133134006905,-1.6836056997680664,0.9856664077568055,-7.6698791580009456
2026-09-11T19:02:27.058,3.308205087999994,-9.641481399536133,-867.733325958252,-3470.933303833008,-6.6044147586822515,-5.814520426392556,-3.6934738159179688,-2.530029563903809,-5.6595149514669965,-0.5594699847879724,0.0,0.05496598780155182,450.2813720703125,19.787755608558655,0.030517585575580597,10.986330807209015,822.0465377158563,1,1789167746.2106159,38.990368548333336,-76.939825675,-6.764000000000003,0,1,14.546596000000001,23.853456000000005,166.41,1,1,1789167747.0482943,-0.7851552777071258,0.6170416307909955,0.0421100528198212,-0.03189920392340472,174.14014685247668,1.5333944273648703,-76.40502237916033,0.10174885566691504,0.14862281432187632,-0.006862634618841704,-0.34254629014968874,-1.0265601389312744,0.11817013444900512
2026-09-11T19:02:27.091,3.3416165440000043,-9.76943302154541,-879.2489719390869,-3516.9958877563477,-6.692061619758607,-5.90216728746891,-3.8246448040008545,-2.6198816907405855,-5.860508434906457,-2.6892610377934156,0.0,0.058710113167762756,480.9532470703125,21.135640740394592,0.1983642727136612,71.41113817691803,1808.5056625395323,1,1789167746.2106159,38.990368548333336,-76.939825675,-6.764000000000003,0,1,14.546596000000001,23.853456000000005,166.41,1,1,1789167747.0882943,-0.7852472207057561,0.6169407360873139,0.04192376478128463,-0.0318328207435704,174.1595795051445,1.522133236955875,-76.38856485485549,0.06487580815880642,0.07634768279923995,0.03208421310648656,-3.4655721006584166,0.9963556564331054,-6.215945205020905
2026-09-11T19:02:27.125,3.375029503999997,-9.899330139160156,-890.9397125244141,-3563.7588500976562,-6.781041145324708,-5.991146813035011,-3.902780532836914,-2.6734046649932863,-5.980235918471017,-1.6018626979684722,0.0,0.06585504114627838,539.4844970703125,23.707814812660217,0.030517607927322388,10.98633885383606,-1808.424016402478,1,1789167746.2106159,38.990368548333336,-76.939825675,-6.764000000000003,0,1,14.546596000000001,23.853456000000005,166.41,1,1,1789167747.1162944,-0.7848630009896851,0.6173377644162911,0.04237010295280842,-0.03299891935700121,174.02196644422995,1.476474770665307,-76.45108015662946,-0.03280712848266261,0.04812082187258606,0.06184626564319467,1.8514955505371093,1.558570910205841,-10.37837786617279
2026-09-11T19:02:27.159,3.408440960000007,-10.032391548156738,-902.9152393341064,-3611.660957336426,-6.872188210487367,-6.08229387819767,-3.955625057220459,-2.7096031641960145,-6.061209655055502,-1.0834157961483954,0.0,0.06971551477909088,571.1094970703125,25.097585320472717,0.1373291313648224,49.43848729133606,1150.867188711805,1,1789167747.1570354,38.99036654,-76.93984048,-7.031000000000002,0,1,9.400355999999999,11.505664,73.188025,1,1,1789167747.1482942,-0.7841502733633448,0.6182233990512928,0.040052073914128364,-0.03611106513016419,173.90526045024748,1.0407937382089145,-76.55984123745591,-0.009651147164753043,0.0646386179134604,0.09222616473510875,1.2610371442985535,1.1519871944999696,-11.794360083026886
2026-09-11T19:02:27.194,3.441857408000004,-10.165966033935547,-914.9369430541992,-3659.747772216797,-6.96368673324585,-6.173792400956154,-3.9561073780059814,-2.7099335539340976,-6.061948715851142,-0.0098870394029644,0.0,0.07332994043827057,600.7188720703125,26.398778557777405,0.1983642876148224,71.41114354133606,657.5401505869797,1,1789167747.1570354,38.99036654,-76.93984048,-7.031000000000002,0,1,9.400355999999999,11.505664,73.188025,1,1,1789167747.1882944,-0.7830502378514667,0.6198637977597432,0.03745800365477561,-0.03461351166565581,174.22291201845778,0.9025416367169199,-76.77592585858244,-0.03637702493469181,-0.004756894876310545,0.12534710341727998,0.5105342074203492,0.3610808589553833,-9.859213806610107
2026-09-11T19:02:27.225,3.475274368000001,-10.297067642211914,-926.7360877990723,-3706.944351196289,-7.053491334915162,-6.263597002625466,-3.9312453269958496,-2.6929030489921573,-6.023852561274504,0.5096365720263613,0.0,0.07525445520877838,616.4844970703125,27.091603875160217,0.030517593026161194,10.98633348941803,-1808.2078696543301,1,1789167747.1570354,38.99036654,-76.93984048,-7.031000000000002,0,1,9.400355999999999,11.505664,73.188025,1,1,1789167747.2162943,-0.7819846218277751,0.6211339401584456,0.03789490255344612,-0.03544934369746417,174.11516860733988,0.8725843401348312,-76.96540325173115,-0.11217126382812437,-0.05237715631942463,0.1255795812736456,-2.4730410377883913,1.0674538701057434,-10.564606152744293
2026-09-11T19:02:27.258,3.508687456000004,-10.427326202392578,-938.459358215332,-3753.837432861328,-7.142718448638917,-6.352824116349221,-3.9337029457092285,-2.694586517810822,-6.027618373771517,-0.05038351494673273,0.0,0.0753479152917862,617.2501220703125,27.12524950504303,0.0,0.0,-328.8032967625434,1,1789167747.1570354,38.99036654,-76.93984048,-7.031000000000002,0,1,9.400355999999999,11.505664,73.188025,1,1,1789167747.2482944,-0.7809524770409482,0.6223821107408243,0.039163432528423914,-0.03492795994608759,174.06964184999978,1.0137575791679172,-77.15888177995573,-0.07137907948466249,-0.0876945918652307,0.11404627104354187,0.870144068851471,0.9857644742584228,-9.392221125907898
2026-09-11T19:02:27.293,3.5421058240000036,-10.556857109069824,-950.1171398162842,-3800.4685592651367,-7.23144711971283,-6.441552787423134,-3.8833279609680176,-2.660079653263092,-5.950428716139695,1.0325718044558687,0.0,0.0754699856042862,618.2501220703125,27.16919481754303,0.0,0.0,0.0,1,1789167747.1570354,38.99036654,-76.93984048,-7.031000000000002,0,1,9.400355999999999,11.505664,73.188025,1,1,1789167747.2882943,-0.7797477277797784,0.6240227417824117,0.03848271331344917,-0.033289330673189586,174.2631454148899,1.0581423252469648,-77.39275649342058,-0.0361974305546616,-0.11444106452034299,0.10697506957908685,3.100568581638336,-0.06697942060470581,-10.593045438213348
2026-09-11T19:02:27.326,3.5755200640000027,-10.683513641357422,-961.516227722168,-3846.064910888672,-7.3182068443298345,-6.528312512040139,-3.8324127197265625,-2.6252027130126954,-5.872411222737769,1.043774757420722,0.0,0.0753479152917862,617.2501220703125,27.12524950504303,0.0,0.0,0.0,1,1789167747.1570354,38.99036654,-76.93984048,-7.031000000000002,0,1,9.400355999999999,11.505664,73.188025,1,1,1789167747.3162944,-0.7790821130603852,0.6249414685379175,0.03896137661909058,-0.031003760142627606,174.4318585209665,1.2581532760284837,-77.53093882615478,-0.022763631302061244,-0.13606988274275753,0.08964569543603515,-0.36608225053787236,-0.0913979795074463,-9.790076922969819
2026-09-11T19:02:27.359,3.608935103999997,-10.807464599609375,-972.6718139648438,-3890.687255859375,-7.403113250732423,-6.613218918442727,-3.755983352661133,-2.572848596572876,-5.7552983996350955,1.566782994718201,0.0,0.07501794397830963,614.5469970703125,27.006459832191467,-0.015258795581758022,-5.493166409432888,-164.39203452798037,1,1789167747.1570354,38.99036654,-76.93984048,-7.031000000000002,0,1,9.400355999999999,11.505664,73.188025,1,1,1789167747.3482943,-0.7782889108545337,0.6259282831153362,0.04078437727862741,-0.028579541758848692,174.5153448299252,1.5876727081869515,-77.69106912312188,0.0020439550870105594,-0.13393534506756846,0.0779348852210036,4.520081192550659,-0.779726754360199,-11.09661692401886
2026-09-11T19:02:27.392,3.642351296000001,-10.92797565460205,-983.5178089141846,-3934.0712356567383,-7.485663323402405,-6.695768991112709,-3.6266305446624756,-2.484241923093796,-5.557090916011528,2.6516089409310553,0.0,0.0743866115808487,609.3751220703125,26.77918016910553,-0.015258789993822575,-5.493164397776127,6.02000599340936e-05,1,1789167747.1570354,38.99036654,-76.93984048,-7.031000000000002,0,1,9.400355999999999,11.505664,73.188025,1,1,1789167747.3882942,-0.7775046796618003,0.6270476651345319,0.0395462271531892,-0.02708864469259642,174.73555945826544,1.5771515056207948,-77.84398345399617,-0.012667076112199246,-0.1039427345366719,0.07686534745538147,2.0145801427268983,-0.09463417406082154,-11.819661240444184
2026-09-11T19:02:27.426,3.6757634559999985,-11.045554161071777,-994.09987449646,-3976.39949798584,-7.566204600334168,-6.7763102680444725,-3.522467851638794,-2.412890478372574,-5.397482279824112,2.1354933270170924,0.0,0.07406426966190338,606.7344970703125,26.663137078285217,0.0,0.0,164.40614428329513,1,1789167747.1570354,38.99036654,-76.93984048,-7.031000000000002,0,1,9.400355999999999,11.505664,73.188025,1,1,1789167747.4162943,-0.7770292005278866,0.6277261112695786,0.03865343805784318,-0.026295674238827796,174.86945428945577,1.550426073392961,-77.93576343283377,0.010061474071896911,-0.0053674110486581625,0.07343525187643701,-0.958109720802307,0.2430087910079956,-9.389769463367461
2026-09-11T19:02:27.459,3.7091758079999977,-11.162713050842285,-1004.6441745758057,-4018.5766983032227,-7.646458439826966,-6.85656410753727,-3.4969489574432373,-2.395410035848618,-5.358379643541104,0.5231730625834581,0.0,0.07396318018436432,605.9063720703125,26.626744866371155,-0.015258789993822575,-5.493164397776127,-164.40519954345828,1,1789167747.1570354,38.99036654,-76.93984048,-7.031000000000002,0,1,9.400355999999999,11.505664,73.188025,1,1,1789167747.4482944,-0.7764583934920222,0.6283842136560707,0.03932168704801189,-0.026447081716668947,174.80628006873596,1.5944866850838209,-78.03849745347947,0.006913947298850337,-0.008583180195457714,0.09158562889962685,1.9455413255882263,-0.18711088508605958,-8.972692631988526
2026-09-11T19:02:27.492,3.7425917120000065,-11.277005195617676,-1014.9304676055908,-4059.7218704223633,-7.724748558998108,-6.934854226708413,-3.4195704460144043,-2.342405755519867,-5.2398124452394965,1.5861992040896735,0.0,0.07402803003787994,606.4376220703125,26.65009081363678,0.0,0.0,164.3877238148241,1,1789167747.1570354,38.99036654,-76.93984048,-7.031000000000002,0,1,9.400355999999999,11.505664,73.188025,1,1,1789167747.4882944,-0.7760406943371125,0.6289836540291547,0.039496812045119414,-0.02409160715223082,175.00207337516554,1.7762137406212082,-78.12729668028761,0.055190452540714294,0.04906818659056858,0.07690618815987812,-3.463120438117981,1.1564982535743713,-10.424861387939453
2026-09-11T19:02:27.525,3.776006879999997,-11.389721870422363,-1025.0749683380127,-4100.299873352051,-7.80195948123932,-7.012065148949624,-3.3683838844299316,-2.3073429608345033,-5.161379207306954,1.0493077480673918,0.0,0.07320977747440338,599.7344970703125,26.355519890785217,0.0,0.0,0.0,1,1789167747.1570354,38.99036654,-76.93984048,-7.031000000000002,0,1,9.400355999999999,11.505664,73.188025,1,1,1789167747.5162942,-0.7755270773581187,0.6296945237571586,0.036897626470872795,-0.026098356182632527,175.01043871273802,1.395991239123617,-78.21104308484597,0.001961924612166826,-0.028333849609801145,0.10248870073683541,2.4076306812095645,1.4851191004943847,-6.315090438156128
2026-09-11T19:02:27.559,3.8094313280000023,-11.50295352935791,-1035.265817642212,-4141.063270568848,-7.879523167610169,-7.0896288353204735,-3.395116090774536,-2.3256545221805576,-5.202341003446123,-0.5478493271168282,0.0,0.07273294031620026,595.8282470703125,26.183858513832092,0.0,0.0,0.0,1,1789167747.1570354,38.99036654,-76.93984048,-7.031000000000002,0,1,9.400355999999999,11.505664,73.188025,1,1,1789167747.5482943,-0.7749412211258885,0.6303205332256245,0.03842404451196758,-0.02618629407578431,174.89069943380164,1.5208793024159057,-78.3161907313361,-0.018628597238236275,-0.02044705578588917,0.044268531147584174,-2.7814601853752134,1.4978677457046508,-7.37499318763733
2026-09-11T19:02:27.593,3.842843807999998,-11.615906715393066,-1045.431604385376,-4181.726417541504,-7.9568961000442515,-7.167001767754555,-3.3962504863739014,-2.3264315831661224,-5.204079239365873,-0.023256609074362396,0.0,0.07295037806034088,597.6094970703125,26.262136101722717,0.0,0.0,0.0,1,1789167747.1570354,38.99036654,-76.93984048,-7.031000000000002,0,1,9.400355999999999,11.505664,73.188025,1,1,1789167747.5882943,-0.7736393658139552,0.6318433734140348,0.039686482788554814,-0.026097245441376975,174.80373864313788,1.6289841965282015,-78.55202451861852,-0.06398342131226172,-0.1414294398097817,0.12925245215154246,4.576371364479066,-0.7063730111503601,-10.829189574108124
2026-09-11T19:02:27.626,3.876255839999999,-11.728354454040527,-1055.5519008636475,-4222.20760345459,-8.033922801017761,-7.244028468728066,-3.3707423210144043,-2.308958489894867,-5.1649930428929505,0.5229581149465823,0.0,0.07296563684940338,597.7344970703125,26.267629265785217,0.0,0.0,0.0,1,1789167747.1570354,38.99036654,-76.93984048,-7.031000000000002,0,1,9.400355999999999,11.505664,73.188025,1,1,1789167747.6162944,-0.7731046549595498,0.6325641525763416,0.03907945629924519,-0.02538860867802045,174.909325355173,1.621983509584463,-78.65305090866676,-0.05313689814281776,-0.060479149240107506,0.07327625238158032,-1.9396573354911804,2.1420665948295596,-11.13329379562378
2026-09-11T19:02:27.659,3.9096677440000036,-11.842535972595215,-1065.8282375335693,-4263.312950134277,-8.112137141227723,-7.322242808938027,-3.423374652862549,-2.3450116372108463,-5.245641636566848,-1.0790509668642116,0.0,0.07247735559940338,593.7344970703125,26.091848015785217,0.0,0.0,0.0,1,1789167747.1570354,38.99036654,-76.93984048,-7.031000000000002,0,1,9.400355999999999,11.505664,73.188025,1,1,1789167747.6482942,-0.7725066789216585,0.6332200585870431,0.03953614873818777,-0.026508137758113337,174.77540535516488,1.576572501173602,-78.75455653486193,0.0494011954118491,-0.002793748533667323,0.083170349378211,-0.4807219909286499,1.7170463768196105,-10.534205537242888
2026-09-11T19:02:27.693,3.9430823040000007,-11.957585334777832,-1076.1826801300049,-4304.7307205200195,-8.190945954322816,-7.40105162203312,-3.3981738090515137,-2.327749059200287,-5.207026349320608,0.5166184444912811,0.0,0.0724353939294815,593.3907470703125,26.076741814613342,0.030517585575580597,10.986330807209015,328.7887318345646,1,1789167747.1570354,38.99036654,-76.93984048,-7.031000000000002,0,1,9.400355999999999,11.505664,73.188025,1,1,1789167747.6882944,-0.7719726968735696,0.6339147751328987,0.039319977755620746,-0.025771156342935263,174.8550589095255,1.6064670000130024,-78.85527140822597,0.15652933036633584,-0.061958839379948304,0.06335772077542175,-2.0711645141601562,0.6452775806427001,-12.782968485832216
2026-09-11T19:02:27.727,3.9764949439999953,-12.072855949401855,-1086.557035446167,-4346.228141784668,-8.269906325340271,-7.480011993050576,-3.4514212608337402,-2.3642235636711124,-5.2886174921060976,-1.0916379092113397,0.0,0.07186700403690338,588.7344970703125,25.872121453285217,0.0,0.0,-328.8076251146514,1,1789167747.1570354,38.99036654,-76.93984048,-7.031000000000002,0,1,9.400355999999999,11.505664,73.188025,1,1,1789167747.7162943,-0.7712075120630404,0.6348316523162425,0.03884075394557625,-0.026816830310536253,174.79567829581765,1.481846489460023,-78.98743731442585,0.09090529955719946,-0.0030220375998281815,0.08275129582480714,-4.157529336071014,1.6994924730300904,-9.217074354019166
2026-09-11T19:02:27.760,4.009903551999997,-12.192769050598145,-1097.349214553833,-4389.396858215332,-8.35204679965973,-7.5621524673700335,-3.582549810409546,-2.4540466201305393,-5.489545946963441,-2.6886201442281434,0.0,0.072298064827919,592.2657470703125,26.027303338050842,-0.03051757998764515,-10.986328795552254,-328.847247857546,1,1789167747.1570354,38.99036654,-76.93984048,-7.031000000000002,0,1,9.400355999999999,11.505664,73.188025,1,1,1789167747.7562943,-0.770243698571565,0.6357558589608511,0.041764680330482806,-0.028192979350170212,174.4580562971486,1.6325925722675658,-79.15126297712767,0.006773448294064793,-0.02458313704726533,0.06930597739914363,-2.8497144705009463,1.2630965408325194,-8.20581258934021
2026-09-11T19:02:27.794,4.043315168000007,-12.318358421325684,-1108.6522579193115,-4434.609031677246,-8.438075518608095,-7.648181186318398,-3.7137787342071533,-2.5439384329319004,-5.690628205377366,-2.69043594902252,0.0,0.0723438411951065,592.6407470703125,26.043782830238342,-0.01525880303233862,-5.493169091641903,164.4086806190045,1,1789167747.1570354,38.99036654,-76.93984048,-7.031000000000002,0,1,9.400355999999999,11.505664,73.188025,1,1,1789167747.7882943,-0.7694439424788944,0.6364901103845819,0.045226566716154284,-0.02812323644653819,174.20850104289113,1.9368683529664086,-79.29362568686373,-0.019383277606798623,-0.027674987817173285,0.09381005103129363,-0.5541738006401061,1.0125366291999816,-7.101976047134399
2026-09-11T19:02:27.826,4.076726848000007,-12.443133354187012,-1119.882001876831,-4479.528007507324,-8.523546347618103,-7.733652015328408,-3.767052412033081,-2.580430902242661,-5.772259534365287,-1.0922069560931993,0.0,0.07361604273319244,603.0626220703125,26.50177538394928,-0.0305175818502903,-10.986329466104507,-164.40838576397658,1,1789167747.1570354,38.99036654,-76.93984048,-7.031000000000002,0,1,9.400355999999999,11.505664,73.188025,1,1,1789167747.8162944,-0.7685781296279927,0.637374399001927,0.04639274524306735,-0.029820250556968377,173.97077475079834,1.9082776110446449,-79.43768337054271,-0.02834065639388392,-0.021180617670502385,0.11230233805494914,-3.816650176448822,3.371428259105682,-10.089964284915926
2026-09-11T19:02:27.860,4.110138047999996,-12.572319984436035,-1131.5087985992432,-4526.035194396973,-8.612039189338685,-7.822144857048989,-3.898021936416626,-2.670145026445389,-5.972944314704246,-2.685151212849514,0.0,0.07394219934940338,605.7344970703125,26.619191765785217,0.0,0.0,328.82175636038494,1,1789167747.1570354,38.99036654,-76.93984048,-7.031000000000002,0,1,9.400355999999999,11.505664,73.188025,1,1,1789167747.8562944,-0.767256741876996,0.6388821525089913,0.04677390040691861,-0.030965940814037952,173.83803590580274,1.8457020708066711,-79.66654600440053,0.01536814766258567,0.016281303927229103,0.10707455334645052,1.3266436338806153,0.6569474943351745,-10.361216228389742
2026-09-11T19:02:27.895,4.143631392000003,-12.707015991210938,-1143.6314392089844,-4574.5257568359375,-8.704305953979492,-7.914411621689797,-3.977587938308716,-2.7246477377414706,-6.094863407617814,-1.6272699225275864,0.0,0.0743713527917862,609.2501220703125,26.77368700504303,0.0,0.0,0.0,1,1789167747.1570354,38.99036654,-76.93984048,-7.031000000000002,0,1,9.400355999999999,11.505664,73.188025,1,1,1789167747.8882942,-0.7662120750306619,0.6399964455769634,0.04706125415425382,-0.03329931055576202,173.60886519420097,1.690179647627108,-79.8365803587117,0.06868987617318963,0.023473805774697737,0.13417724770189488,-0.595950130329132,1.5629839027786254,-11.948912889575958
2026-09-11T19:02:27.927,4.177048864,-12.843585014343262,-1155.9226512908936,-4623.690605163574,-8.797855734825134,-8.00796140253544,-4.056148052215576,-2.7784614157676697,-6.215241177003549,-1.6103455709098757,0.0,0.07368089258670807,603.5938720703125,26.525121331214905,-0.015258795581758022,-5.493166409432888,-164.38007068378695,1,1789167747.1570354,38.99036654,-76.93984048,-7.031000000000002,0,1,9.400355999999999,11.505664,73.188025,1,1,1789167747.9162943,-0.7651653922880448,0.6411680010202861,0.04657090052140393,-0.03544951532755598,173.45364585034358,1.4790080219080544,-80.00703241428137,0.026790105886412164,0.011589509832017947,0.11624433870350354,3.4590016450500487,1.1634609751892089,-10.505275919265747
2026-09-11T19:02:27.960,4.210461792000004,-12.983394622802734,-1168.505516052246,-4674.022064208984,-8.893625316619874,-8.103730984330179,-4.211937427520752,-2.8851771378517155,-6.453957448666142,-3.1938452710289997,0.0,0.0741272121667862,607.2501220703125,26.68579638004303,0.015258789993822575,5.493164397776127,328.80479098412576,1,1789167747.1570354,38.99036654,-76.93984048,-7.031000000000002,0,1,9.400355999999999,11.505664,73.188025,1,1,1789167747.9562943,-0.7635933603861517,0.6428879442651961,0.046492858947338206,-0.03819273700008894,173.21551043027515,1.2546473055317393,-80.26406562367929,-0.004239230220169027,0.01265625507083688,0.1171124654734455,-2.844516945915222,3.098411118602753,-10.133898077640533
2026-09-11T19:02:27.995,4.243877663999996,-13.130244255065918,-1181.7219829559326,-4726.8879318237305,-8.994217314720155,-8.204322982430458,-4.368130207061768,-2.992169191837311,-6.6932918571879645,-3.2018333678564863,0.0,0.0744629055261612,610.0001220703125,26.80664598941803,-0.0457763709127903,-16.479493528604507,-657.5515349827148,1,1789167747.1570354,38.99036654,-76.93984048,-7.031000000000002,0,1,9.400355999999999,11.505664,73.188025,1,1,1789167747.9882944,-0.7624392484649937,0.6439848969812021,0.04940886246586247,-0.039097431758052845,172.91772702221002,1.4317528549415603,-80.45999685192098,0.034329753722102466,-0.011112162281597497,0.11742871913390689,-1.1972939182472229,2.3910574424362183,-9.05850082090378
2026-09-11T19:02:28.028,4.277293536000002,-13.279170989990234,-1195.125389099121,-4780.501556396484,-9.096232128143312,-8.306337795853615,-4.446887016296387,-3.0461176061630253,-6.813971023091942,-1.6144547814195698,0.0,0.07382012903690338,604.7344970703125,26.575246453285217,0.0,0.0,493.1636537451862,1,1789167747.1570354,38.99036654,-76.93984048,-7.031000000000002,0,1,9.400355999999999,11.505664,73.188025,1,1,1789167748.0162942,-0.761594967362937,0.6449749542298716,0.04946802886543342,-0.03915773517187299,172.90620286989588,1.4232409851220367,-80.6090119689085,0.04821419698756776,0.0395517788440695,0.11953533154106404,0.700881287059784,0.8543553620910644,-7.851694451999664
2026-09-11T19:02:28.061,4.31070656,-13.42775821685791,-1208.498239517212,-4833.992958068848,-9.198014378547668,-8.408120046257974,-4.473958969116211,-3.0646618938446046,-6.855453413217164,-0.5550017766000618,0.0,0.0736389309167862,603.2501220703125,26.51001513004303,0.015258789993822575,5.493164397776127,164.4018930395666,1,1789167747.1570354,38.99036654,-76.93984048,-7.031000000000002,0,1,9.400355999999999,11.505664,73.188025,1,1,1789167748.0562942,-0.7604032518844117,0.6465130483690371,0.04699666795426852,-0.03998857353524043,173.0151692018435,1.1326147500043666,-80.81309479971867,0.07760239999849868,0.08178438341920229,0.12339826877450308,2.193551508178711,-0.2799798621177673,-9.600808574848175
2026-09-11T19:02:28.095,4.344121536000003,-13.579020500183105,-1222.1118450164795,-4888.447380065918,-9.301629042625429,-8.511734710335732,-4.500702381134033,-3.082981131076813,-6.896432379824646,-0.5482343375678864,0.0,0.0737610012292862,604.2501220703125,26.55396044254303,0.0,0.0,-164.3922891872081,1,1789167747.1570354,38.99036654,-76.93984048,-7.031000000000002,0,1,9.400355999999999,11.505664,73.188025,1,1,1789167748.0882943,-0.7592943767079082,0.6476776391465731,0.048121320591084205,-0.04086641351820326,172.85281124798414,1.1540134071009482,-81.00038914935674,0.007263013149249203,0.04546704874492868,0.10552016311462438,-2.2033581583404542,0.963307245388031,-9.957084175224303
2026-09-11T19:02:28.128,4.377532799999997,-13.729506492614746,-1235.6555843353271,-4942.622337341309,-9.404711947441102,-8.614817615151406,-4.501714706420898,-3.083674573898316,-6.89798356723853,-0.020754761672672685,0.0,0.0741272121667862,607.2501220703125,26.68579638004303,0.0,0.0,0.0,1,1789167747.1570354,38.99036654,-76.93984048,-7.031000000000002,0,1,9.400355999999999,11.505664,73.188025,1,1,1789167748.1162944,-0.7583750056718958,0.648882506754499,0.04571352393211125,-0.041582651789636396,172.9687680732865,0.8807554598988935,-81.15617392102271,0.028763724204567347,0.05283949403827793,0.12199031166691926,-1.3675373650550842,0.27762626607894897,-9.133717827644348
2026-09-11T19:02:28.161,4.410944959999995,-13.880656242370605,-1249.2590618133545,-4997.036247253418,-9.508249526023866,-8.718355193734169,-4.528934955596924,-3.102320444583893,-6.939693192072051,-0.5580564287247106,0.0,0.07314111292362213,599.1719970703125,26.330800652503967,-0.0762939527630806,-27.465822994709015,-822.030751520138,1,1789167747.1570354,38.99036654,-76.93984048,-7.031000000000002,0,1,9.400355999999999,11.505664,73.188025,1,1,1789167748.1562943,-0.7571873218429623,0.6504428231713852,0.04293298280775826,-0.04181210844180105,173.15540287482565,0.6087131508354645,-81.36320647929631,-0.014528644292376398,0.07459170703880845,0.12342933563518858,0.44051472526550295,-0.6064432460021972,-12.261254697227479
2026-09-11T19:02:28.194,4.44437216,-14.03247356414795,-1262.9226207733154,-5051.690483093262,-9.612244391441346,-8.82235005915165,-4.504302024841309,-3.0854468870162965,-6.901948118773025,0.5047852517588567,0.0,0.07243730127811432,593.4063720703125,26.077428460121155,-0.015258789993822575,-5.493164397776127,657.3287202317049,1,1789167748.1614537,38.99036503,-76.93985651333334,-6.825000000000003,0,1,8.334769,11.276164000000001,57.6081,1,1,1789167748.1882944,-0.7563792206423653,0.6514140699223112,0.042625280241461,-0.041632554233857,173.19332616759442,0.5868158314669544,-81.50672441136993,0.012887685729651328,0.0727343276488361,0.10135004793283432,-1.6844882982826233,-0.0715885461807251,-12.559278795642854
2026-09-11T19:02:28.228,4.477782591999997,-14.182141304016113,-1276.3927173614502,-5105.570869445801,-9.714766793251039,-8.924872460961343,-4.50654411315918,-3.0869827175140383,-6.905383673751867,-0.04596859141904865,0.0,0.07153703272342682,586.0313720703125,25.753331780433655,-0.03051757998764515,-10.986328795552254,-164.41464743037997,1,1789167748.1614537,38.99036503,-76.93985651333334,-6.825000000000003,0,1,8.334769,11.276164000000001,57.6081,1,1,1789167748.2162943,-0.7558616429529346,0.6522845247070701,0.04057443811584767,-0.03939277232875644,173.54120225071225,0.569915124890862,-81.61845136904205,0.12316544185228705,0.045350635283820655,0.10146523966346595,1.118252317943573,-2.037331571102142,-3.6465047961425783
2026-09-11T19:02:28.261,4.511196831999996,-14.331086158752441,-1289.7977542877197,-5159.191017150879,-9.816794018745423,-9.026899686455728,-4.455749988555908,-3.0521887421607974,-6.827551767539356,1.0412918370503688,0.0,0.06940652430057526,568.5782470703125,24.986348748207092,-0.045776382088661194,-16.47949755191803,-164.3960406211823,1,1789167748.1614537,38.99036503,-76.93985651333334,-6.825000000000003,0,1,8.334769,11.276164000000001,57.6081,1,1,1789167748.2562943,-0.7547009883667163,0.6534451634672241,0.04228856076319099,-0.04058958152250717,173.30758351910353,0.6179071816821191,-81.81033036936117,0.033846995651000834,-0.07885851346115899,0.10521158890287177,0.863377480239868,1.0706900646591186,1.8439444299125671
2026-09-11T19:02:28.295,4.544613600000005,-14.477761268615723,-1302.998514175415,-5211.99405670166,-9.91726646900177,-9.127372136712076,-4.3525309562683105,-2.981483705043793,-6.669389103981276,2.1158550437009587,0.0,0.0690460354089737,565.6251220703125,24.85657274723053,-0.030517585575580597,-10.986330807209015,164.38354375586212,1,1789167748.1614537,38.99036503,-76.93985651333334,-6.825000000000003,0,1,8.334769,11.276164000000001,57.6081,1,1,1789167748.2882943,-0.7541030395207649,0.6541277098505136,0.04359775317956827,-0.03930370095753707,173.3198279464528,0.8213698121514751,-81.92629961163786,-0.07687372503579104,-0.12525582269740065,0.07736678054947943,-2.412632072792053,0.2690944804382324,-9.140974748764037
2026-09-11T19:02:28.328,4.578023008000002,-14.62252426147461,-1316.0271835327148,-5264.108734130859,-10.016429119110109,-9.226534786820412,-4.328364372253418,-2.9649295949935914,-6.632358614427318,0.49549246877415465,0.0,0.066652312874794,546.0157470703125,23.994832634925842,-0.1373291164636612,-49.43848192691803,-1150.937817267289,1,1789167748.1614537,38.99036503,-76.93985651333334,-6.825000000000003,0,1,8.334769,11.276164000000001,57.6081,1,1,1789167748.3162944,-0.7538280009345066,0.6545444094698247,0.04441687652196765,-0.03663471193985481,173.48872884787258,1.0891024333911083,-81.99713224547118,-0.05298540356374465,-0.14028206035952065,0.03574556481132027,1.8512994175338746,-0.24026292896270754,-9.38300287475586
2026-09-11T19:02:28.362,4.611433632000001,-14.760964393615723,-1328.486795425415,-5313.94718170166,-10.11126060962677,-9.321366277337075,-4.198910236358643,-2.8762535119056705,-6.433995865930716,2.6541283122376145,0.0,0.06234361231327057,510.7188720703125,22.443700432777405,-0.1373291164636612,-49.43848192691803,0.0,1,1789167748.1614537,38.99036503,-76.93985651333334,-6.825000000000003,0,1,8.334769,11.276164000000001,57.6081,1,1,1789167748.3562944,-0.7538350624382485,0.6547390242611021,0.04340596528505215,-0.03413840836967461,173.78083328259046,1.1883068780765138,-82.01607085434244,-0.02730829414132928,-0.16486676820311277,0.012506156755165369,0.5550563991546631,0.030400615501403806,-10.502824256725312
2026-09-11T19:02:28.395,4.644854047999999,-14.897254943847656,-1340.752944946289,-5363.011779785156,-10.204619636535645,-9.41472530424595,-4.068326950073242,-2.786803960800171,-6.23390291875485,2.676494245478683,0.0,0.05411912500858307,443.3438720703125,19.482885003089905,-0.2746582329273224,-98.87696385383606,-1479.2898426794063,1,1789167748.1614537,38.99036503,-76.93985651333334,-6.825000000000003,0,1,8.334769,11.276164000000001,57.6081,1,1,1789167748.3882942,-0.7541997899293258,0.654507242562787,0.04299553069384735,-0.030892242452958227,174.09321685076392,1.3990755107917112,-81.97617192004013,0.035691634137433634,-0.13981658104801373,-0.019655199904259343,1.8351184447669981,-0.8052240447807312,-10.21607780599594
2026-09-11T19:02:28.429,4.678273024000006,-15.030930519104004,-1352.7837467193604,-5411.134986877441,-10.296187405586243,-9.506293073296547,-4.016711711883545,-2.7514475226402286,-6.154812819077097,1.0579749110186574,0.0,0.043579116463661194,357.0001220703125,15.68848192691803,-0.3509521782398224,-126.34278416633606,-821.8630131723389,1,1789167748.1614537,38.99036503,-76.93985651333334,-6.825000000000003,0,1,8.334769,11.276164000000001,57.6081,1,1,1789167748.4163353,-0.7549213496214433,0.6536256082674536,0.0457693893673104,-0.02779358018829884,174.15424623140055,1.8779984092849449,-81.86919930831598,0.028355491692525873,-0.14507874874277665,-0.059435616880340096,-0.6279198098564148,-0.6197802902221681,-7.52081807554245
2026-09-11T19:02:28.463,4.7116907519999955,-15.162599563598633,-1364.633960723877,-5458.535842895508,-10.386380701065065,-9.596486368775368,-3.939979314804077,-2.6988858306407932,-6.037235662671775,1.5728685085788106,0.0,0.033767715096473694,276.6251220703125,12.15637743473053,-0.015258817933499813,-5.493174456059933,3616.332316497254,1,1789167748.1614537,38.99036503,-76.93985651333334,-6.825000000000003,0,1,8.334769,11.276164000000001,57.6081,1,1,1789167748.4563353,-0.7565615825444657,0.6518737657448064,0.04587603986531187,-0.02388627885994656,174.489738945755,2.1934985942941614,-81.60371075887232,-0.019312417239167653,-0.16438017040765676,-0.06872495729115471,0.5804556230735779,-0.5538796011352539,-14.116378708324433
2026-09-11T19:02:28.496,4.7451076159999985,-15.29106330871582,-1376.1956977844238,-5504.782791137695,-10.474378366470338,-9.684484034180642,-3.8369922637939453,-2.6283397006988527,-5.879428464340663,2.111093666417478,0.0,0.03226853907108307,264.3438720703125,11.616674065589905,-0.1525879055261612,-54.93164598941803,-1479.4467707488552,1,1789167748.1614537,38.99036503,-76.93985651333334,-6.825000000000003,0,1,8.334769,11.276164000000001,57.6081,1,1,1789167748.4883354,-0.7576875266171103,0.6506969195805274,0.04519096833476569,-0.021468750271608775,174.7547180531915,2.323520391665486,-81.41796703268771,-0.00604477333135716,-0.13322394886445557,-0.09485410698983662,1.7988338391685488,-0.4751322003364563,-8.597392130298614
2026-09-11T19:02:28.528,4.778520287999996,-15.418730735778809,-1387.6857662200928,-5550.743064880371,-10.561830554008484,-9.77193622171879,-3.812861204147339,-2.6118099248409274,-5.842452408824545,0.4947157730434321,0.0,0.029176726937294006,239.0157470703125,10.503621697425842,-0.1525879055261612,-54.93164598941803,0.0,1,1789167748.1614537,38.99036503,-76.93985651333334,-6.825000000000003,0,1,8.334769,11.276164000000001,57.6081,1,1,1789167748.5163352,-0.7588457607003768,0.6493459013386462,0.04615504592101839,-0.01930605132584933,174.87480918065208,2.57783388229315,-81.22273803685805,0.028355666225451073,-0.140971116348208,-0.10415932989684439,-4.986779673748017,1.8233504645729066,-7.178664051399231
2026-09-11T19:02:28.562,4.811934592,-15.543417930603027,-1398.9076137542725,-5595.63045501709,-10.647241282463074,-9.857346950173378,-3.735917806625366,-2.559103697538376,-5.7245519361541986,1.5773552339304973,0.0,0.02548028528690338,208.7344970703125,9.172902703285217,-0.1068115383386612,-38.45215380191803,493.1867558126562,1,1789167748.1614537,38.99036503,-76.93985651333334,-6.825000000000003,0,1,8.334769,11.276164000000001,57.6081,1,1,1789167748.5563352,-0.7605121503600082,0.6474375159833837,0.045624920295978456,-0.019086610491331174,174.9400605623581,2.5609333065886535,-80.92985693314785,0.0079407244977986,-0.06077463348247015,-0.09967296105459297,1.2328920583343506,0.11660107042312622,-11.23822495235443
2026-09-11T19:02:28.597,4.845345952000002,-15.67009449005127,-1410.3085041046143,-5641.234016418457,-10.734014725685121,-9.944120393395425,-3.7371890544891357,-2.559974502325058,-5.7264998709848225,-0.026063135014020692,0.0,0.02051927149295807,168.0938720703125,7.386937737464905,-0.1678466945886612,-60.42481005191803,-657.6402831252145,1,1789167748.1614537,38.99036503,-76.93985651333334,-6.825000000000003,0,1,8.334769,11.276164000000001,57.6081,1,1,1789167748.5883353,-0.7620321379516967,0.6456010455448811,0.0467684162297785,-0.01786129792263097,174.96804912920751,2.7636177018246944,-80.66464903808198,0.03106773335012506,-0.08636081125085662,-0.12731984907080915,-0.916725657119751,0.36578805103302003,-10.860570854625701
2026-09-11T19:02:28.629,4.878762527999996,-15.795149803161621,-1421.563482284546,-5686.253929138184,-10.81967761516571,-10.029783282876016,-3.738142967224121,-2.560627932548523,-5.727961552766017,-0.01955407470427909,0.0,0.013217940926551819,108.2813720703125,4.758458733558655,-0.3356933891773224,-120.84962010383606,-1808.2286483190264,1,1789167748.1614537,38.99036503,-76.93985651333334,-6.825000000000003,0,1,8.334769,11.276164000000001,57.6081,1,1,1789167748.6163354,-0.7635806767997759,0.6437668997921815,0.04672755744080471,-0.018035080415001,174.96250812943654,2.7592706118661616,-80.38917707685029,-0.02018298747006243,-0.05472165710362861,-0.13308292626089444,1.441969839782715,-0.6994102895355224,-11.042288082122802
2026-09-11T19:02:28.662,4.912176192000004,-15.918142318725586,-1432.6328086853027,-5730.531234741211,-10.903927488327028,-10.114033156037332,-3.6877243518829346,-2.5260911810398103,-5.650705039906513,1.0336116239363697,0.0,-0.0021305084228515625,-17.453125,-0.7669830322265625,-0.3662109971046448,-131.83595895767212,-328.79778924673917,1,1789167748.1614537,38.99036503,-76.93985651333334,-6.825000000000003,0,1,8.334769,11.276164000000001,57.6081,1,1,1789167748.6563354,-0.7659589559231528,0.6409085372741882,0.04743828680037212,-0.01710946041288052,175.00149619363864,2.908457560469021,-79.96812065199633,0.019779641879926535,0.005114338307118984,-0.14902825430711464,0.5998727903938293,0.3161664012145996,-13.171311832237244
2026-09-11T19:02:28.696,4.945597952,-16.04039764404297,-1443.6357879638672,-5774.543151855469,-10.987672386169434,-10.19777805387974,-3.637300968170166,-2.491551163196564,-5.5734412204647485,1.0334589753277623,0.0,-0.0034503936767578125,-28.265625,-1.2421417236328125,0.0,0.0,3944.6144953972507,1,1789167748.1614537,38.99036503,-76.93985651333334,-6.825000000000003,0,1,8.334769,11.276164000000001,57.6081,1,1,1789167748.6883352,-0.7678713092759416,0.638631741772752,0.047302527472349754,-0.016900345732556582,175.038566208064,2.926698407821978,-79.62681559212747,-0.03577453727690337,0.004948182962329123,-0.16591885267621492,-1.7066513276481627,1.146397403907776,-8.035667209033965
2026-09-11T19:02:28.729,4.979008960000002,-16.16558837890625,-1454.9029541015625,-5819.61181640625,-11.073428039550782,-10.283533707261086,-3.691030740737915,-2.528356057405472,-5.655771424045878,-1.1015798807658264,0.0,-0.003604888916015625,-29.53125,-1.297760009765625,0.0915527418255806,32.958987057209015,986.4708977713994,1,1789167748.1614537,38.99036503,-76.93985651333334,-6.825000000000003,0,1,8.334769,11.276164000000001,57.6081,1,1,1789167748.7163353,-0.7697367223088746,0.6364353912136301,0.04619744789569248,-0.017921131322242094,175.03808918236672,2.768948559994174,-79.28939057754863,-0.03186517428536127,0.04917342994446384,-0.18206663891566646,-2.335846002025604,2.518347761535644,-9.849112956943511
2026-09-11T19:02:28.762,5.012418367999999,-16.289291381835938,-1466.0362243652344,-5864.1448974609375,-11.158164596557619,-10.368270264267922,-3.693155527114868,-2.529811536073685,-5.659027237101115,-0.04356493441048626,0.0,-0.0039386749267578125,-32.265625,-1.4179229736328125,0.0,0.0,-986.5181405552541,1,1789167748.1614537,38.99036503,-76.93985651333334,-6.825000000000003,0,1,8.334769,11.276164000000001,57.6081,1,1,1789167748.7563353,-0.771830764284534,0.6338528561588833,0.04499276877556861,-0.021988151379463545,174.77548954386992,2.382993975099533,-78.89667257302199,-0.08198317642100444,0.008451582369857342,-0.14738869200779117,4.262558559303284,1.8103076198577879,-9.11724265537262
2026-09-11T19:02:28.795,5.045827328000001,-16.415964126586914,-1477.4367713928223,-5909.747085571289,-11.244935426712036,-10.455041094422342,-3.7467262744903564,-2.5665074980258944,-5.741113766163859,-1.098386838506987,0.0,-0.0046787261962890625,-38.328125,-1.6843414306640625,-0.015258795581758022,-5.493166409432888,-164.42195175882287,1,1789167748.1614537,38.99036503,-76.93985651333334,-6.825000000000003,0,1,8.334769,11.276164000000001,57.6081,1,1,1789167748.7883353,-0.7737658068654634,0.6314247444445884,0.044433357372515365,-0.02479808423106372,174.57430494167994,2.145986708084728,-78.53341765182586,-0.07015281115221127,0.04038604622652279,-0.17179712159693183,-0.1623981266784668,1.211415494480133,-8.68761331178665
2026-09-11T19:02:28.830,5.079238975999999,-16.54654312133789,-1489.1888809204102,-5956.755523681641,-11.334382038116456,-10.54448770582676,-3.8516318798065186,-2.6383678376674653,-5.901860767867444,-2.150757114452294,0.0,-0.0042819976806640625,-35.078125,-1.5415191650390625,0.1068115308880806,38.452151119709015,1315.2693793836472,1,1789167748.1614537,38.99036503,-76.93985651333334,-6.825000000000003,0,1,8.334769,11.276164000000001,57.6081,1,1,1789167748.8283353,-0.7756393868394075,0.628915923996724,0.04521348106066028,-0.028355656527616877,174.20793782713463,1.975495256433644,-78.17267738901441,-0.12017010779001437,0.19953145060867292,-0.13984101565754167,-2.392822639465332,3.720054672355652,-5.506924398326873
2026-09-11T19:02:28.862,5.112648800000002,-16.679044723510742,-1501.1140251159668,-6004.456100463867,-11.42514563560486,-10.635251303315163,-3.9300801753997803,-2.6921049201488496,-6.022067197899173,-1.6084215972337736,0.0,-0.00144195556640625,-11.8125,-0.51910400390625,0.045776382088661194,16.47949755191803,-657.670437527265,1,1789167748.1614537,38.99036503,-76.93985651333334,-6.825000000000003,0,1,8.334769,11.276164000000001,57.6081,1,1,1789167748.8563352,-0.7771683261086598,0.6271604953631106,0.04369237328430476,-0.027750359748060307,174.37648352024422,1.8971118587688587,-77.89896159904787,0.007843684191387717,0.1299210877879815,-0.11597974678890119,-1.3745981531715392,2.6946713314437867,-7.945151828041077
2026-09-11T19:02:28.895,5.146058112000006,-16.814069747924805,-1513.2662773132324,-6053.06510925293,-11.517637777328492,-10.727743445038797,-4.034079551696777,-2.763344492912293,-6.18142558364417,-2.132326842391603,0.0,0.006681442726403475,54.734378814697266,2.405319381505251,0.2746582627296448,98.87697458267212,2466.302719156434,1,1789167748.1614537,38.99036503,-76.93985651333334,-6.825000000000003,0,1,8.334769,11.276164000000001,57.6081,1,1,1789167748.8883352,-0.7783289362556236,0.6254839735109757,0.04565390279962654,-0.02982594553861972,174.05352179014093,1.9344555967129515,-77.67288705865953,-0.07663025160513784,0.14446631270825183,-0.10542539173624108,-3.2278589007377625,3.6329716189193726,-12.117293072853087
2026-09-11T19:02:28.930,5.179470719999998,-16.953767776489258,-1525.8390998840332,-6103.356399536133,-11.613330926895143,-10.823436594605447,-4.112894058227539,-2.8173324298858646,-6.302193159193498,-1.6157953600504613,0.0,0.019323350861668587,158.29689025878906,6.956406310200691,0.3967285752296448,142.82228708267212,1315.2314389828728,1,1789167748.1614537,38.99036503,-76.93985651333334,-6.825000000000003,0,1,8.334769,11.276164000000001,57.6081,1,1,1789167748.9283352,-0.7795014828636865,0.623821703371302,0.04653386105313703,-0.03253491035378163,173.7518218778539,1.8311674723256028,-77.43933360380218,-0.055994351194182876,0.15332211333287107,-0.07980657631084231,-1.9648604264068605,1.4195126109123228,-10.550484576511383
2026-09-11T19:02:28.963,5.212883039999994,-17.09696388244629,-1538.726749420166,-6154.906997680664,-11.711420259475709,-10.921525927186012,-4.2698493003845215,-2.9248467707633976,-6.54269589021876,-3.2178053148522534,0.0,0.034269336611032486,280.7344055175781,12.336961179971695,0.22888189554214478,82.39748239517212,-1808.458816613343,1,1789167748.1614537,38.99036503,-76.93985651333334,-6.825000000000003,0,1,8.334769,11.276164000000001,57.6081,1,1,1789167748.9563353,-0.7798510332490541,0.623181916825189,0.04745858196289145,-0.03499067705171616,173.46683494177515,1.7426409933928533,-77.35643633851612,-0.024751561320082785,0.12204459140665629,-0.01772608748203001,-2.0837170263671876,2.5166806310081484,-9.023294946823121
2026-09-11T19:02:28.996,5.2462942399999974,-17.243549346923828,-1551.9194412231445,-6207.677764892578,-11.811831302642823,-11.021936970353128,-4.401248931884766,-3.0148555183410646,-6.744039724277607,-2.693969315009879,0.0,0.04422760382294655,362.3125305175781,15.921937376260757,0.3509522080421448,126.34279489517212,1315.2868648835017,1,1789167748.1614537,38.99036503,-76.93985651333334,-6.825000000000003,0,1,8.334769,11.276164000000001,57.6081,1,1,1789167748.9883354,-0.7798992607951047,0.6228914108095719,0.048453575671310097,-0.03762558113271731,173.15983413765787,1.6448733865865641,-77.32576547972899,-0.0003364994797845067,0.12869359772505387,0.016849932197528856,-0.3221484578132629,2.6472071446609498,-9.755067181892395
2026-09-11T19:02:29.030,5.279706816000001,-17.396230697631836,-1565.6607627868652,-6262.643051147461,-11.916418027877809,-11.126523695588112,-4.5059051513671875,-3.0865450286865235,-6.904404591728973,-2.145584654875202,0.0,0.06165314093232155,505.0625305175781,22.195130735635757,0.7476807236671448,269.1650605201721,4274.5062704828615,1,1789167748.1614537,38.99036503,-76.93985651333334,-6.825000000000003,0,1,8.334769,11.276164000000001,57.6081,1,1,1789167749.0283353,-0.7795066101971418,0.6232128366407184,0.04971135363963027,-0.03878126125470646,172.9650886289985,1.6711364368385535,-77.38715893578247,0.05494837537346268,0.14552852009101558,0.06601062123845314,-2.019973800315857,1.3437072051620484,-11.633334887371063
2026-09-11T19:02:29.063,5.313118943999996,-17.549230575561523,-1579.430751800537,-6317.723007202148,-12.021222944259645,-11.231328611969948,-4.6106038093566895,-3.1582636094093326,-7.064834487762457,-2.146483478179547,0.0,0.06783867627382278,555.7344360351562,24.421923458576202,0.0,0.0,-8055.908935827548,1,1789167748.1614537,38.99036503,-76.93985651333334,-6.825000000000003,0,1,8.334769,11.276164000000001,57.6081,1,1,1789167749.0563352,-0.7787600731813197,0.6242397711145853,0.047256311377107035,-0.040302575754729855,173.0037928628208,1.3342938312946366,-77.51161280798853,-0.011475714364787917,0.10414938152010803,0.09841597492730665,-5.2479307675552365,0.7182390578460693,-9.435762652626037
2026-09-11T19:02:29.098,5.3465284800000035,-17.70577621459961,-1593.5198593139648,-6374.079437255859,-12.128456707000733,-11.338562374711037,-4.688724040985107,-3.211775968074799,-7.184538224934671,-1.601709124767666,0.0,0.07242394238710403,593.2969360351562,26.072619259357452,0.1831054985523224,65.91797947883606,1973.0288824969255,1,1789167748.1614537,38.99036503,-76.93985651333334,-6.825000000000003,0,1,8.334769,11.276164000000001,57.6081,1,1,1789167749.0883353,-0.7776981151843527,0.6253931072089702,0.048339641749442726,-0.04162189483613368,172.80569661327974,1.325209350081517,-77.6929566666114,-0.05131774146346407,0.01968713942957084,0.12124749953727049,-2.0686147851181027,2.154913306541443,-8.235820938835143
2026-09-11T19:02:29.130,5.3799455040000055,-17.86615753173828,-1607.9541778564453,-6431.816711425781,-12.238317909240724,-11.448423576951027,-4.7943501472473145,-3.2841298508644106,-7.346389251217803,-2.1651803221497934,0.0,0.07853508740663528,643.3594360351562,28.272631466388702,0.2441406548023224,87.89063572883606,657.5288167491717,1,1789167748.1614537,38.99036503,-76.93985651333334,-6.825000000000003,0,1,8.334769,11.276164000000001,57.6081,1,1,1789167749.1163354,-0.7766343991963736,0.6267581727162536,0.04806975696154411,-0.041261378841827435,172.85510595281534,1.3146776851596063,-77.89041079506467,-0.021565113704716737,0.07258981438677096,0.15650925907993793,-1.687626426334381,0.3481360807418823,-9.285917038154603
2026-09-11T19:02:29.164,5.413496191999997,-18.0273494720459,-1622.4614524841309,-6489.845809936523,-12.348734388351442,-11.558840056061745,-4.7440385818481445,-3.249666428565979,-7.269296771130046,1.0272046373070065,0.0,0.08280373364686966,678.3281860351562,29.809344112873077,0.07629397511482239,27.46583104133606,-1801.0004649536816,1,1789167749.158429,38.99036278333333,-76.93987319333333,-6.944000000000003,0,1,8.892324000000002,10.575503999999999,57.896881,1,1,1789167749.1563354,-0.7749851995982001,0.6291202334104279,0.04571810862580892,-0.038929768314558036,173.2295069145364,1.2536575002034935,-78.21240748472087,0.03337156796275758,0.03143826675032346,0.16003360243849005,-0.5575080616950988,-0.1553373385620117,-6.941245050983429
2026-09-11T19:02:29.197,5.446920128000002,-18.184986114501953,-1636.6487503051758,-6546.595001220703,-12.456715488433838,-11.666821156144144,-4.771905422210693,-3.268755214214325,-7.311997168518078,-0.5711112434018183,0.0,0.08366585522890091,685.3906860351562,30.119707882404327,0.0,0.0,-821.7413724503168,1,1789167749.158429,38.99036278333333,-76.93987319333333,-6.944000000000003,0,1,8.892324000000002,10.575503999999999,57.896881,1,1,1789167749.1883352,-0.7735193342011868,0.630891355339551,0.0462733298143791,-0.038764885175461575,173.20091566007886,1.2992225867789746,-78.4793499009653,0.004291939163579256,0.10666038671495226,0.16840996111758644,-1.060098882484436,0.27350747301101686,-9.021529749794006
2026-09-11T19:02:29.231,5.4803318080000025,-18.343244552612305,-1650.8920097351074,-6603.56803894043,-12.565122518539429,-11.775228186249734,-4.720354080200195,-3.2334425449371342,-7.233004977042615,1.056895950074656,0.0,0.08175087720155716,669.7031860351562,29.430315792560577,-0.0762939527630806,-27.465822994709015,-822.0425610058727,1,1789167749.158429,38.99036278333333,-76.93987319333333,-6.944000000000003,0,1,8.892324000000002,10.575503999999999,57.896881,1,1,1789167749.2283354,-0.7718817325180686,0.6331063584575776,0.04231104283310333,-0.03980836017553704,173.39393717903712,0.8544486915089327,-78.76731656353813,-0.018121928156382323,0.2027768903527564,0.16018300262246077,-0.4311003411102295,1.0175380207824707,-9.883043966503143
