timestamp,time_s,drive_pos_turns,drive_encoder_count,drive_wheel_angle_deg,drive_distance_m,drive_distance_since_start_m,drive_velocity_turns_s,drive_velocity_mps,drive_velocity_mph,drive_acceleration_mps2,drive_iq_A,steer_pos_turns,steer_encoder_count,steer_angle_deg,steer_velocity_turns_s,steer_velocity_deg_s,steer_acceleration_deg_s2,gps_received,gps_ros_stamp_s,gps_latitude_deg,gps_longitude_deg,gps_altitude_m,gps_status,gps_service,gps_cov_x_m2,gps_cov_y_m2,gps_cov_z_m2,gps_covariance_type,imu_received,imu_ros_stamp_s,imu_qx,imu_qy,imu_qz,imu_qw,imu_roll_deg,imu_pitch_deg,imu_yaw_deg,imu_gyro_x_rad_s,imu_gyro_y_rad_s,imu_gyro_z_rad_s,imu_accel_x_mps2,imu_accel_y_mps2,imu_accel_z_mps2
2026-09-11T19:05:03.741,7.551999999577674e-06,-317.865234375,-28607.87109375,-114431.484375,-217.737685546875,0.0,0.0,0.0,0.0,0.0,0.0,-0.06469917297363281,-530.015625,-23.291702270507812,0.015258789993822575,5.493164397776127,0.0,0,nan,nan,nan,nan,-999,-999,nan,nan,nan,-999,1,1789167903.7337155,-0.7332701166785417,0.6786397769542016,0.018715965705676484,-0.037585924885430846,175.380024227774,-1.3504083924948118,-85.51389914381542,0.00044802601898694436,-0.0033889058085973898,-0.0012983504305585816,0.2972395664024353,0.38138062479019164,-9.694069817886351
2026-09-11T19:05:03.775,0.0334135040000092,-317.865234375,-28607.87109375,-114431.484375,-217.737685546875,0.0,0.0,0.0,0.0,0.0,0.0,-0.064666748046875,-529.75,-23.280029296875,0.0,0.0,-164.436696723223,0,nan,nan,nan,nan,-999,-999,nan,nan,nan,-999,1,1789167903.7657154,-0.7337741314986834,0.6780979147288057,0.018622672972433953,-0.03757576393315206,175.38713730603092,-1.3540495399361823,-85.42896073734556,0.0013997540600994521,0.0024624850416387995,-0.0007607890209443282,0.3015544924736023,0.41452710233688356,-9.680242441158295
2026-09-11T19:05:03.808,0.0668244800000366,-317.865234375,-28607.87109375,-114431.484375,-217.737685546875,0.0,0.0,0.0,0.0,0.0,0.0,-0.064666748046875,-529.75,-23.280029296875,0.0,0.0,0.0,0,nan,nan,nan,nan,-999,-999,nan,nan,nan,-999,1,1789167903.8057156,-0.7344139577633313,0.6774156495585526,0.01838342151210852,-0.0374996825196215,175.41087751925542,-1.3639781345828017,-85.32157088524681,0.00048589966375522134,0.00783076875492296,-0.0012109094350336658,0.2979260319137573,0.384420686340332,-9.7022093375206
2026-09-11T19:05:03.843,0.1002330880000386,-317.865234375,-28607.87109375,-114431.484375,-217.737685546875,0.0,0.0,0.0,0.0,0.0,0.0,-0.064666748046875,-529.75,-23.280029296875,0.0,0.0,0.0,1,1789167903.8379776,38.99028493666667,-76.94089522666667,-9.014,0,1,7.279204,6.1652890000000005,37.552384,1,1,1789167903.8337154,-0.7348405396285852,0.6769519574607046,0.018197363733202257,-0.037606974906945735,175.41539485596095,-1.385083292489726,-85.24851657579734,2.3212879051524582e-05,0.0031956978604016175,-0.00015707963267948965,0.32312912282943723,0.4242356859970093,-9.68691096326828
2026-09-11T19:05:03.877,0.13366044800000054,-317.865234375,-28607.87109375,-114431.484375,-217.737685546875,0.0,0.0,0.0,0.0,0.0,0.0,-0.064666748046875,-529.75,-23.280029296875,0.0,0.0,0.0,1,1789167903.8379776,38.99028493666667,-76.94089522666667,-9.014,0,1,7.279204,6.1652890000000005,37.552384,1,1,1789167903.8737154,-0.735471082871319,0.6762652323255293,0.018161376446304032,-0.03765350200662553,175.41296406659367,-1.3874482823112573,-85.14146579239407,-0.0003183480555637657,0.007181680806106268,-0.0012180652849668426,0.292630440826416,0.3990325950813293,-9.691618155345916
2026-09-11T19:05:03.910,0.1670851200000243,-317.865234375,-28607.87109375,-114431.484375,-217.737685546875,0.0,0.0,0.0,0.0,0.0,0.0,-0.064666748046875,-529.75,-23.280029296875,0.0,0.0,0.0,1,1789167903.8379776,38.99028493666667,-76.94089522666667,-9.014,0,1,7.279204,6.1652890000000005,37.552384,1,1,1789167903.9057155,-0.7359890813069088,0.6757074531503721,0.018024110828975072,-0.037611718690791295,175.4260786137866,-1.3923064220386672,-85.05412770388112,-0.0007145377957664784,0.0031806880288344666,-0.002256710722828668,0.31440120418548584,0.39108920845031736,-9.684263167724609
2026-09-11T19:05:03.943,0.20050979200004804,-317.865234375,-28607.87109375,-114431.484375,-217.737685546875,0.0,0.0,0.0,0.0,0.0,0.0,-0.064666748046875,-529.75,-23.280029296875,0.0,0.0,0.0,1,1789167903.8379776,38.99028493666667,-76.94089522666667,-9.014,0,1,7.279204,6.1652890000000005,37.552384,1,1,1789167903.9337156,-0.7364313219727094,0.6752308946087835,0.01783347895204188,-0.03760470730927613,175.44052452286942,-1.4048874878952964,-84.97923823175435,0.0012850859282434249,-0.0007023204910025181,-0.0008695230333435751,0.31587220170974734,0.3933447379875183,-9.690147157821656
2026-09-11T19:05:03.977,0.2339304960000277,-317.865234375,-28607.87109375,-114431.484375,-217.737685546875,0.0,0.0,0.0,0.0,0.0,0.0,-0.064666748046875,-529.75,-23.280029296875,0.0,0.0,0.0,1,1789167903.8379776,38.99028493666667,-76.94089522666667,-9.014,0,1,7.279204,6.1652890000000005,37.552384,1,1,1789167903.9737155,-0.7370530724713077,0.674571187535975,0.017622383884706307,-0.03736218533664308,175.4761267203893,-1.3998547082410948,-84.87591517212772,-0.0008117526351025627,0.0008529424054496288,-0.0013034118853893653,0.3040061550140381,0.3777521642303467,-9.693285285873413
2026-09-11T19:05:04.010,0.26735318400000097,-317.865234375,-28607.87109375,-114431.484375,-217.737685546875,0.0,0.0,0.0,0.0,0.0,0.0,-0.064666748046875,-529.75,-23.280029296875,0.0,0.0,0.0,1,1789167903.8379776,38.99028493666667,-76.94089522666667,-9.014,0,1,7.279204,6.1652890000000005,37.552384,1,1,1789167904.0057154,-0.7375568899786201,0.6740271396440747,0.01743672762797836,-0.03732572300599655,175.49252714650123,-1.4093858795056218,-84.7907004534623,0.0009676105373056564,-0.0037727037111109428,-0.0022895229127661613,0.33166090847015384,0.39197180696487427,-9.693187219371795
2026-09-11T19:05:04.044,0.3007826880000266,-317.865234375,-28607.87109375,-114431.484375,-217.737685546875,0.0,0.0,0.0,0.0,0.0,0.0,-0.06487083435058594,-531.421875,-23.353500366210938,0.0,0.0,0.0,1,1789167903.8379776,38.99028493666667,-76.94089522666667,-9.014,0,1,7.279204,6.1652890000000005,37.552384,1,1,1789167904.0337155,-0.7380000642756771,0.673542928858018,0.01742946300712146,-0.03731007817926139,175.49349299072168,-1.4058350824795427,-84.71557011725652,0.0019235273686229507,-0.006653020575677185,-0.0008206538142877338,0.30233902448654176,0.39834612957000737,-9.686420630760193
2026-09-11T19:05:04.077,0.3342035520000195,-317.865234375,-28607.87109375,-114431.484375,-217.737685546875,0.0,0.0,0.0,0.0,0.0,0.0,-0.06497383117675781,-532.265625,-23.390579223632812,0.0,0.0,0.0,1,1789167903.8379776,38.99028493666667,-76.94089522666667,-9.014,0,1,7.279204,6.1652890000000005,37.552384,1,1,1789167904.0737154,-0.738640122369575,0.6728497174209027,0.017531439578763436,-0.03710358498537579,175.501839409514,-1.3770317336803763,-84.6085961036064,-0.0008445648250400561,-0.009399296153690263,-0.003610039024825071,0.2979260319137573,0.39030467643737793,-9.70142480550766
2026-09-11T19:05:04.110,0.3677033920000099,-317.865234375,-28607.87109375,-114431.484375,-217.737685546875,0.0,0.0,0.0,0.0,0.0,0.0,-0.06497383117675781,-532.265625,-23.390579223632812,0.0,0.0,0.0,1,1789167903.8379776,38.99028493666667,-76.94089522666667,-9.014,0,1,7.279204,6.1652890000000005,37.552384,1,1,1789167904.1057155,-0.7391508915757455,0.6722996554037798,0.01756822263495419,-0.03688482587987046,175.51656093528166,-1.3536915503637423,-84.52360265161356,-0.0009693558665576506,-0.009221272569986842,-0.0024911084413715063,0.3032216230010986,0.3852052183532715,-9.697011812934877
2026-09-11T19:05:04.144,0.4011211840000328,-317.865234375,-28607.87109375,-114431.484375,-217.737685546875,0.0,0.0,0.0,0.0,0.0,0.0,-0.06497383117675781,-532.265625,-23.390579223632812,0.0,0.0,0.0,1,1789167903.8379776,38.99028493666667,-76.94089522666667,-9.014,0,1,7.279204,6.1652890000000005,37.552384,1,1,1789167904.1337154,-0.7395750657384893,0.6718438766253123,0.017465998272117894,-0.036735085182149844,175.53632210087883,-1.3480448469353623,-84.45265490691891,0.00285623132088872,-0.006199933101859457,-0.0010135126966331072,0.2948859703636169,0.3917756739616394,-9.70064027349472
2026-09-11T19:05:04.177,0.4345384000000081,-317.865234375,-28607.87109375,-114431.484375,-217.737685546875,0.0,0.0,0.0,0.0,0.0,0.0,-0.06509590148925781,-533.265625,-23.434524536132812,0.0,0.0,0.0,1,1789167903.8379776,38.99028493666667,-76.94089522666667,-9.014,0,1,7.279204,6.1652890000000005,37.552384,1,1,1789167904.1737154,-0.7402098829601496,0.6711492868084477,0.017540544759274874,-0.03661001603634943,175.53996399091483,-1.327902908516467,-84.34556514166252,-0.00016388641676226757,-0.0037978364523396607,-0.0036006142468643022,0.30233902448654176,0.40138619112014773,-9.704366800556182
2026-09-11T19:05:04.211,0.4679557759999966,-317.865234375,-28607.87109375,-114431.484375,-217.737685546875,0.0,0.0,0.0,0.0,0.0,0.0,-0.06521797180175781,-534.265625,-23.478469848632812,0.0,0.0,0.0,1,1789167903.8379776,38.99028493666667,-76.94089522666667,-9.014,0,1,7.279204,6.1652890000000005,37.552384,1,1,1789167904.2057154,-0.740703443794746,0.6706054703107941,0.017609574206393266,-0.03655973791087311,175.53796611744465,-1.3149032111105907,-84.26182341774259,0.0003160791275361731,-0.0031763247057044804,-0.0019518017025052588,0.2760572020530701,0.4048185186767578,-9.69681567993164
2026-09-11T19:05:04.245,0.5013756160000185,-317.865234375,-28607.87109375,-114431.484375,-217.737685546875,0.0,0.0,0.0,0.0,0.0,0.0,-0.06521797180175781,-534.265625,-23.478469848632812,0.0,0.0,0.0,1,1789167903.8379776,38.99028493666667,-76.94089522666667,-9.014,0,1,7.279204,6.1652890000000005,37.552384,1,1,1789167904.2337155,-0.741122133891202,0.6701485200893742,0.01760490551090312,-0.036455602868764876,175.54638252091252,-1.3045408762878172,-84.19124663097895,0.0023652702023027154,0.004032583236732898,0.002672797216504116,0.2866483842277527,0.38873561241149907,-9.696227280921935
2026-09-11T19:05:04.278,0.5347967360000325,-317.865234375,-28607.87109375,-114431.484375,-217.737685546875,0.0,0.0,0.0,0.0,0.0,0.0,-0.06521797180175781,-534.265625,-23.478469848632812,0.0,0.0,0.0,1,1789167903.8379776,38.99028493666667,-76.94089522666667,-9.014,0,1,7.279204,6.1652890000000005,37.552384,1,1,1789167904.2737155,-0.7417125676915794,0.6695025215233744,0.01736667011577068,-0.03643129659095187,175.56559943041316,-1.3190387060609308,-84.09053666283242,-0.0007283258968572338,0.006187192198319898,-0.000705462083656108,0.2858638522148132,0.3990325950813293,-9.699855741481782
2026-09-11T19:05:04.311,0.5682205760000443,-317.865234375,-28607.87109375,-114431.484375,-217.737685546875,0.0,0.0,0.0,0.0,0.0,0.0,-0.06457901000976562,-529.03125,-23.248443603515625,0.03051757998764515,10.986328795552254,328.6973847274398,1,1789167903.8379776,38.99028493666667,-76.94089522666667,-9.014,0,1,7.279204,6.1652890000000005,37.552384,1,1,1789167904.3057156,-0.7421927594500985,0.668976751509394,0.017428411519532505,-0.03628035600283618,175.5728040617556,-1.2990609186989257,-84.00973209219305,-9.791297103688189e-05,0.00785206177179729,0.0014826571995691829,0.2365364019012451,0.3832438883209228,-9.70524939907074
2026-09-11T19:05:04.345,0.601640896000049,-317.865234375,-28607.87109375,-114431.484375,-217.737685546875,0.0,0.0,0.0,0.0,0.0,0.0,-0.0626220703125,-513.0,-22.5439453125,0.0762939527630806,27.465822994709015,493.0980373363999,1,1789167903.8379776,38.99028493666667,-76.94089522666667,-9.014,0,1,7.279204,6.1652890000000005,37.552384,1,1,1789167904.3337154,-0.7425831184285183,0.6685585552619385,0.017314758031809784,-0.03605509069946492,175.599997293334,-1.28895348204457,-83.94483182079409,0.0022310543828243513,0.011408344655660934,0.007041705400096322,0.2674273499107361,0.35480460285186766,-9.709270125637055
2026-09-11T19:05:04.378,0.6350660479999988,-317.865234375,-28607.87109375,-114431.484375,-217.737685546875,0.0,0.0,0.0,0.0,0.0,0.0,-0.059940338134765625,-491.03125,-21.578521728515625,0.1068115308880806,38.452151119709015,328.68446267698374,1,1789167903.8379776,38.99028493666667,-76.94089522666667,-9.014,0,1,7.279204,6.1652890000000005,37.552384,1,1,1789167904.3737154,-0.7430938953879402,0.667988817239034,0.01704098172078391,-0.03622164577659986,175.6057526104254,-1.321656372796281,-83.85588894280029,0.0006394886379307224,0.011586368239364358,0.005799903637302356,0.2990047634315491,0.44541805034637455,-9.687499362277984
2026-09-11T19:05:04.411,0.6684853120000298,-317.865234375,-28607.87109375,-114431.484375,-217.737685546875,0.0,0.0,0.0,0.0,0.0,0.0,-0.056774139404296875,-465.09375,-20.438690185546875,0.1220703199505806,43.945315182209015,164.3711861067586,1,1789167903.8379776,38.99028493666667,-76.94089522666667,-9.014,0,1,7.279204,6.1652890000000005,37.552384,1,1,1789167904.4057155,-0.7434608764898796,0.6675721722133959,0.016953485775758666,-0.03641290067049433,175.59537404116134,-1.3413004894802938,-83.79134196458052,0.0014069099100326291,0.018149678891489034,0.0072010539608034045,0.27752819957733155,0.4202149594306946,-9.682399904193879
2026-09-11T19:05:04.445,0.701905408000016,-317.865234375,-28607.87109375,-114431.484375,-217.737685546875,0.0,0.0,0.0,0.0,0.0,0.0,-0.05076789855957031,-415.890625,-18.276443481445312,0.2746582329273224,98.87696385383606,1643.671181305097,1,1789167903.8379776,38.99028493666667,-76.94089522666667,-9.014,0,1,7.279204,6.1652890000000005,37.552384,1,1,1789167904.4337156,-0.7437879403873743,0.667216368839914,0.01687446850366502,-0.0362914480161113,175.61115274314506,-1.3366280250050113,-83.73628469458819,0.0012180652849668426,0.01796380132615164,0.010088003076527224,0.23114274431228637,0.39569833402633664,-9.707406862106323
2026-09-11T19:05:04.479,0.7353300800000397,-317.865234375,-28607.87109375,-114431.484375,-217.737685546875,0.0,0.0,0.0,0.0,0.0,0.0,-0.03936958312988281,-322.515625,-14.173049926757812,0.2441406548023224,87.89063572883606,-328.68918279862834,1,1789167903.8379776,38.99028493666667,-76.94089522666667,-9.014,0,1,7.279204,6.1652890000000005,37.552384,1,1,1789167904.4737155,-0.7441740592873124,0.6667773309489922,0.017375523569921263,-0.03620844648770214,175.57917781484684,-1.284972147476357,-83.67085583109521,0.002271895087321019,0.002075196480621258,0.01847029587508039,0.24555852005004883,0.4730728038024902,-9.688676160297394
2026-09-11T19:05:04.512,0.7687474240000256,-317.865234375,-28607.87109375,-114431.484375,-217.737685546875,0.0,0.0,0.0,0.0,0.0,0.0,-0.03401947021484375,-278.6875,-12.24700927734375,0.2899170219898224,104.37012791633606,493.1418902563583,1,1789167903.8379776,38.99028493666667,-76.94089522666667,-9.014,0,1,7.279204,6.1652890000000005,37.552384,1,1,1789167904.5057154,-0.7444023991370347,0.6664952808867949,0.01740492544167594,-0.03669028870190433,175.5352434024913,-1.3176481787814347,-83.62752177466568,0.0029272662214448898,-0.003816860541186399,0.022262372740888468,0.3767714992141724,0.46228548862457275,-9.69034329082489
2026-09-11T19:05:04.545,0.8021792960000198,-317.865234375,-28607.87109375,-114431.484375,-217.737685546875,0.0,0.0,0.0,0.0,0.0,0.0,-0.026449203491210938,-216.671875,-9.521713256835938,0.2136230766773224,76.90430760383606,-821.5459879872944,1,1789167903.8379776,38.99028493666667,-76.94089522666667,-9.014,0,1,7.279204,6.1652890000000005,37.552384,1,1,1789167904.5337155,-0.7446145039882897,0.6662512512659523,0.01709404391892613,-0.03696355366200048,175.53517245428398,-1.3636010676503456,-83.58865230340614,0.0018221237390820802,0.003503050341677819,0.016652186393277896,0.31577413520812986,0.4167826318740845,-9.675731382083892
2026-09-11T19:05:04.579,0.8355967680000163,-317.865234375,-28607.87109375,-114431.484375,-217.737685546875,0.0,0.0,0.0,0.0,0.0,0.0,-0.016826629638671875,-137.84375,-6.057586669921875,0.4119873344898224,148.31544041633606,2136.9400058899605,1,1789167903.8379776,38.99028493666667,-76.94089522666667,-9.014,0,1,7.279204,6.1652890000000005,37.552384,1,1,1789167904.5737154,-0.7449491950128176,0.6658808995132328,0.01630291648828523,-0.037249690296418475,175.5703712649442,-1.4507710281341437,-83.52845178488091,0.0012494812115027404,0.010376156936031488,0.013267294841960094,0.3247962533569336,0.38618588336944576,-9.729275691967011
2026-09-11T19:05:04.612,0.8690197440000134,-317.865234375,-28607.87109375,-114431.484375,-217.737685546875,0.0,0.0,0.0,0.0,0.0,0.0,-0.0006885528564453125,-5.640625,-0.2478790283203125,0.061035215854644775,21.97267770767212,-3780.1170879778892,1,1789167903.8379776,38.99028493666667,-76.94089522666667,-9.014,0,1,7.279204,6.1652890000000005,37.552384,1,1,1789167904.6057155,-0.7452496435046615,0.665579330829564,0.016488347077844946,-0.036541177311157955,175.6163018274296,-1.3790268413869697,-83.48303213416419,0.0021912608758788807,0.009935984898678519,0.01824951172470311,0.19230840967178345,0.38579361736297607,-9.696227280921935
2026-09-11T19:05:04.646,0.9024402880000366,-317.865234375,-28607.87109375,-114431.484375,-217.737685546875,0.0,0.0,0.0,0.0,0.0,0.0,-1.71661376953125e-05,-0.140625,-0.0061798095703125,0.1983642727136612,71.41113817691803,1479.2835349781114,1,1789167903.8379776,38.99028493666667,-76.94089522666667,-9.014,0,1,7.279204,6.1652890000000005,37.552384,1,1,1789167904.6337154,-0.7454509983853318,0.6653522470307899,0.016168946676897583,-0.03671187193198934,175.62561621217804,-1.4180054821135897,-83.44684942476138,0.0016196655458507376,0.011102039371935931,0.019776674820198147,0.39658093254089355,0.4211956244468689,-9.695933081417083
2026-09-11T19:05:04.679,0.9358541440000181,-317.865234375,-28607.87109375,-114431.484375,-217.737685546875,0.0,0.0,0.0,0.0,0.0,0.0,0.006080627907067537,49.812503814697266,2.1890260465443134,0.2288818508386612,82.39746630191803,328.7955788462753,1,1789167903.8379776,38.99028493666667,-76.94089522666667,-9.014,0,1,7.279204,6.1652890000000005,37.552384,1,1,1789167904.6737154,-0.7457167776839724,0.665046212662955,0.01528775432976206,-0.037233144788552774,175.6475243401437,-1.5312890428171184,-83.39633410656262,0.0027047367418156125,0.009510473627042302,0.016010079761469183,0.33911396259307863,0.3790270287513733,-9.736826812591552
2026-09-11T19:05:04.712,0.9692699520000474,-317.865234375,-28607.87109375,-114431.484375,-217.737685546875,0.0,0.0,0.0,0.0,0.0,0.0,0.013147355057299137,107.70313262939453,4.733047820627689,0.2441406399011612,87.89063036441803,164.38818604940462,1,1789167903.8379776,38.99028493666667,-76.94089522666667,-9.014,0,1,7.279204,6.1652890000000005,37.552384,1,1,1789167904.7057154,-0.7459921804275917,0.6647766306057903,0.014440816646177926,-0.03686680018514546,175.74287288025118,-1.5741647668898493,-83.35192133172758,0.0024258331273469187,0.007811919199001419,0.01867956085239451,0.3398984946060181,0.2897865122795105,-9.717311578769685
2026-09-11T19:05:04.746,1.002699199999995,-317.865234375,-28607.87109375,-114431.484375,-217.737685546875,0.0,0.0,0.0,0.0,0.0,0.0,0.021343233063817024,174.84376525878906,7.683563902974129,0.2593994438648224,93.38379979133606,164.3222553772863,1,1789167903.8379776,38.99028493666667,-76.94089522666667,-9.014,0,1,7.279204,6.1652890000000005,37.552384,1,1,1789167904.7337155,-0.7462700863712121,0.6644906122371117,0.014238222045424763,-0.03647543651880433,175.79124521135455,-1.560016016129894,-83.3074155568712,0.0012267919312268143,0.004217239071593899,0.014299482561589543,0.3133224726676941,0.3366623000526428,-9.692893019866943
2026-09-11T19:05:04.779,1.0361182400000075,-317.865234375,-28607.87109375,-114431.484375,-217.737685546875,0.0,0.0,0.0,0.0,0.0,0.0,0.03158188238739967,258.7187805175781,11.369477659463882,0.3204346001148224,115.35645604133606,657.48915139369,1,1789167903.8379776,38.99028493666667,-76.94089522666667,-9.014,0,1,7.279204,6.1652890000000005,37.552384,1,1,1789167904.7737155,-0.7466399225758181,0.664075043698578,0.013836350896250358,-0.03662946555143984,175.80774230378637,-1.603797055797494,-83.24224087598577,0.0017343336777067653,-0.006023829380333229,0.014421306543378747,0.39716933155059814,0.3387216965866089,-9.695933081417083
2026-09-11T19:05:04.812,1.06953820800004,-317.865234375,-28607.87109375,-114431.484375,-217.737685546875,0.0,0.0,0.0,0.0,0.0,0.0,0.0379180945456028,310.6250305175781,13.650514036417007,0.1983642876148224,71.41114354133606,-1314.9417886922377,1,1789167903.8379776,38.99028493666667,-76.94089522666667,-9.014,0,1,7.279204,6.1652890000000005,37.552384,1,1,1789167904.8057156,-0.746935447482583,0.6637604809686398,0.0140817264526188,-0.03621002869906227,175.8243981570279,-1.549082188005496,-83.19499182397993,0.0029318040775000746,-0.01492169243992552,0.01626716676028795,0.3129302066612244,0.3853032848548889,-9.7022093375206
2026-09-11T19:05:04.844,1.1029537280000454,-317.865234375,-28607.87109375,-114431.484375,-217.737685546875,0.0,0.0,0.0,0.0,0.0,0.0,0.04409408941864967,361.2187805175781,15.873872190713882,0.1678467094898224,60.42481541633606,-328.7792057402728,1,1789167904.8370652,38.990285205,-76.94089541166667,-9.047999999999998,0,1,7.279204,6.1652890000000005,37.552384,1,1,1789167904.8337154,-0.7472054949071357,0.6634404954592753,0.014148402254691755,-0.03647574644847261,175.79586129293787,-1.5618154778396227,-83.14613656298648,-0.0011323696186939208,-0.015516675181930388,0.012393583018411734,0.4260989495277405,0.38971627742767334,-9.682792170200347
2026-09-11T19:05:04.880,1.1363652160000015,-317.865234375,-28607.87109375,-114431.484375,-217.737685546875,0.0,0.0,0.0,0.0,0.0,0.0,0.05065536871552467,414.9687805175781,18.235932737588882,0.2288818657398224,82.39747166633606,657.6377636945977,1,1789167904.8370652,38.990285205,-76.94089541166667,-9.047999999999998,0,1,7.279204,6.1652890000000005,37.552384,1,1,1789167904.8737154,-0.7476354286006853,0.6629579081871029,0.013700017448485667,-0.03661130146774226,175.8172692330529,-1.607831282716086,-83.07062833286774,0.0020167279506794478,-0.0024293237858509075,0.005933944923855522,0.318519997253418,0.3419578911399841,-9.713094719200134
2026-09-11T19:05:04.912,1.1697838400000364,-317.865234375,-28607.87109375,-114431.484375,-217.737685546875,0.0,0.0,0.0,0.0,0.0,0.0,0.05928993597626686,485.7031555175781,21.34437695145607,0.1983642876148224,71.41114354133606,-328.7486679579781,1,1789167904.8370652,38.990285205,-76.94089541166667,-9.047999999999998,0,1,7.279204,6.1652890000000005,37.552384,1,1,1789167904.9057155,-0.7480456254143958,0.6624978740918624,0.013944685279405192,-0.036467175303365656,175.81009863676576,-1.5733295813427959,-83.00110725471923,0.0017290976899507825,0.004837703620677882,0.005836904617444637,0.3188141967582702,0.4080547132301331,-9.688578093795776
2026-09-11T19:05:04.946,1.2032142400000225,-317.865234375,-28607.87109375,-114431.484375,-217.737685546875,0.0,0.0,0.0,0.0,0.0,0.0,0.06131935492157936,502.3281555175781,22.07496777176857,0.015258789993822575,5.493164397776127,-1971.7974999876565,1,1789167904.8370652,38.990285205,-76.94089541166667,-9.047999999999998,0,1,7.279204,6.1652890000000005,37.552384,1,1,1789167904.9337156,-0.7483827906322793,0.6620894310431077,0.013855385186099618,-0.036997463261697554,175.77042514956597,-1.6189928174466635,-82.93817353113101,-0.0004787438138220446,0.004061032103540406,0.0032044245066615894,0.4084469792366028,0.43963212675094604,-9.686812896766662
2026-09-11T19:05:04.980,1.2366276800000264,-317.865234375,-28607.87109375,-114431.484375,-217.737685546875,0.0,0.0,0.0,0.0,0.0,0.0,0.06164169684052467,504.9687805175781,22.191010862588882,0.015258789993822575,5.493164397776127,0.0,1,1789167904.8370652,38.990285205,-76.94089541166667,-9.047999999999998,0,1,7.279204,6.1652890000000005,37.552384,1,1,1789167904.9737155,-0.7489080258237417,0.6614864498163928,0.01374237733223336,-0.03719667500394829,175.76054982814534,-1.640409732912333,-82.84553707253018,0.001568527398767304,0.008693659537108956,0.0011623892818282235,0.3232271893310547,0.4080547132301331,-9.690049091320038
2026-09-11T19:05:05.012,1.2700397440000302,-317.865234375,-28607.87109375,-114431.484375,-217.737685546875,0.0,0.0,0.0,0.0,0.0,0.0,0.0616760291159153,505.2500305175781,22.203370481729507,0.0,0.0,-164.40661665725028,1,1789167904.8370652,38.990285205,-76.94089541166667,-9.047999999999998,0,1,7.279204,6.1652890000000005,37.552384,1,1,1789167905.0057154,-0.7493354037433686,0.6610056979065568,0.013824974525387588,-0.0371051224388339,175.76112733163623,-1.6236536227413405,-82.77239675325143,0.0006017895260876447,0.010777059065214586,-5.480333851262195e-05,0.3298957114410401,0.4184497624015808,-9.68995102481842
2026-09-11T19:05:05.046,1.3034685760000002,-317.865234375,-28607.87109375,-114431.484375,-217.737685546875,0.0,0.0,0.0,0.0,0.0,0.0,0.06253433972597122,512.2813110351562,22.51236230134964,0.0305175818502903,10.986329466104507,328.64831969344164,1,1789167904.8370652,38.990285205,-76.94089541166667,-9.047999999999998,0,1,7.279204,6.1652890000000005,37.552384,1,1,1789167905.0337155,-0.7496856038844252,0.6606009219490799,0.013839847278252033,-0.0372340687514148,175.74802195140438,-1.6298637102027553,-82.71060041595362,3.961897402027128e-05,0.0002474876879327959,-0.0013135347950509323,0.3448018196868896,0.42962934358596805,-9.692108487854004
2026-09-11T19:05:05.080,1.3368819199999962,-317.865234375,-28607.87109375,-114431.484375,-217.737685546875,0.0,0.0,0.0,0.0,0.0,0.0,0.06351471692323685,520.3125610351562,22.865298092365265,0.015258791856467724,5.493165068328381,-164.40031856065622,1,1789167904.8370652,38.990285205,-76.94089541166667,-9.047999999999998,0,1,7.279204,6.1652890000000005,37.552384,1,1,1789167905.0737154,-0.7501910898716887,0.6600356862333592,0.01405846612211291,-0.036994338835555696,175.75092774454006,-1.5897089499743944,-82.62517201367643,0.0003113667385557884,-0.0012765338149086525,0.005559397266377538,0.3137147386741638,0.386676215877533,-9.690245224323272
2026-09-11T19:05:05.113,1.3702983040000163,-317.865234375,-28607.87109375,-114431.484375,-217.737685546875,0.0,0.0,0.0,0.0,0.0,0.0,0.06501961499452591,532.6406860351562,23.407061398029327,0.0457763709127903,16.479493528604507,328.77071499625794,1,1789167904.8370652,38.990285205,-76.94089541166667,-9.047999999999998,0,1,7.279204,6.1652890000000005,37.552384,1,1,1789167905.1057155,-0.7505831703211518,0.6596040515083956,0.014058634472555887,-0.03673900462894394,175.77201970532707,-1.5679253126352577,-82.55940464761575,-0.00018936822384138475,-0.003355919085734697,0.004218809867920693,0.32558078536987306,0.3941292700004577,-9.699169275970458
2026-09-11T19:05:05.146,1.4037297280000303,-317.865234375,-28607.87109375,-114431.484375,-217.737685546875,0.0,0.0,0.0,0.0,0.0,0.0,0.06638146191835403,543.7969360351562,23.897326290607452,0.0610351599752903,21.972657591104507,164.31139943358988,1,1789167904.8370652,38.990285205,-76.94089541166667,-9.047999999999998,0,1,7.279204,6.1652890000000005,37.552384,1,1,1789167905.1457155,-0.7510511691712987,0.659095330044623,0.014081335621651196,-0.03629329396603695,175.8076998677974,-1.5293987483349996,-82.48205343084186,0.0020460494821129527,-0.005439318613840328,0.00792833266010944,0.30567328554153445,0.359413728427887,-9.694952416400909
2026-09-11T19:05:05.182,1.4371419840000499,-317.865234375,-28607.87109375,-114431.484375,-217.737685546875,0.0,0.0,0.0,0.0,0.0,0.0,0.0691375806927681,566.3750610351562,24.889529049396515,0.0610351637005806,21.972658932209015,4.013810104428451e-05,1,1789167904.8370652,38.990285205,-76.94089541166667,-9.047999999999998,0,1,7.279204,6.1652890000000005,37.552384,1,1,1789167905.1737154,-0.751403843603873,0.6587057430237795,0.014263533805518576,-0.035993881816162226,175.81900173069502,-1.4889070167778695,-82.42342613092751,0.00045204027626653137,-0.0057449257658645355,0.00779621123573347,0.29125750980377196,0.3791250952529907,-9.691029756336212
2026-09-11T19:05:05.213,1.4705557120000208,-317.865234375,-28607.87109375,-114431.484375,-217.737685546875,0.0,0.0,0.0,0.0,0.0,0.0,0.07181168347597122,588.2813110351562,25.85220605134964,0.1068115308880806,38.452151119709015,493.1952575754001,1,1789167904.8370652,38.990285205,-76.94089541166667,-9.047999999999998,0,1,7.279204,6.1652890000000005,37.552384,1,1,1789167905.2057154,-0.751760322602033,0.6582956184923221,0.014415287763860347,-0.035992992564994,175.80682330439137,-1.4734876246192279,-82.36151733225194,-0.0003782128489071712,-0.003612831551628262,0.007367383838518464,0.32312912282943723,0.42139175745010377,-9.68995102481842
2026-09-11T19:05:05.247,1.5039898560000324,-317.865234375,-28607.87109375,-114431.484375,-217.737685546875,0.0,0.0,0.0,0.0,0.0,0.0,0.07521820813417435,616.1875610351562,27.078554928302765,0.1068115308880806,38.452151119709015,0.0,1,1789167904.8370652,38.990285205,-76.94089541166667,-9.047999999999998,0,1,7.279204,6.1652890000000005,37.552384,1,1,1789167905.2457154,-0.7522072243225787,0.6577845052137792,0.014374099545695644,-0.03601696322339985,175.80685816921684,-1.4759992595550826,-82.28356660973091,0.0013817771688039108,0.002938087262807254,0.008700640854116932,0.3190103297615052,0.38089029228210447,-9.695540815410615
2026-09-11T19:05:05.280,1.5374046720000365,-317.865234375,-28607.87109375,-114431.484375,-217.737685546875,0.0,0.0,0.0,0.0,0.0,0.0,0.07829666882753372,641.4063110351562,28.18680077791214,0.0762939527630806,27.465822994709015,-328.786132624482,1,1789167904.8370652,38.990285205,-76.94089541166667,-9.047999999999998,0,1,7.279204,6.1652890000000005,37.552384,1,1,1789167905.2737155,-0.7525255948210167,0.6574235485328275,0.014196165339329948,-0.03602743209609399,175.8186493955631,-1.4901223209284369,-82.22800925077487,0.0006113888369736136,0.009809972126684528,0.005513146041199688,0.3497051447677612,0.3811844917869568,-9.706818463096619
2026-09-11T19:05:05.313,1.5708151680000242,-317.865234375,-28607.87109375,-114431.484375,-217.737685546875,0.0,0.0,0.0,0.0,0.0,0.0,0.08075905591249466,661.5781860351562,29.073260128498077,0.0610351637005806,21.972658932209015,-164.41432244831157,1,1789167904.8370652,38.990285205,-76.94089541166667,-9.047999999999998,0,1,7.279204,6.1652890000000005,37.552384,1,1,1789167905.3057156,-0.752903889583321,0.6569862527850404,0.013880702940708579,-0.03622323546632879,175.82459733584432,-1.5296733520609282,-82.16033680882886,-0.0009894271529555855,0.009890780871051864,0.002497217093753487,0.3601982604408264,0.37824249673843385,-9.709073992633819
2026-09-11T19:05:05.347,1.604241696000031,-317.865234375,-28607.87109375,-114431.484375,-217.737685546875,0.0,0.0,0.0,0.0,0.0,0.0,0.08279991894960403,678.2969360351562,29.807970821857452,0.0457763746380806,16.479494869709015,-164.3354662051316,1,1789167904.8370652,38.990285205,-76.94089541166667,-9.047999999999998,0,1,7.279204,6.1652890000000005,37.552384,1,1,1789167905.3457155,-0.7533677641108922,0.656453907362406,0.013454666835209135,-0.03639026583494989,175.84110540572405,-1.576087080885792,-82.07789835813732,0.002115513586342327,0.01338266110551692,0.0040484657329260465,0.3488225462532043,0.39873839557647706,-9.702111271018982
2026-09-11T19:05:05.381,1.6377621120000185,-317.865234375,-28607.87109375,-114431.484375,-217.737685546875,0.0,0.0,0.0,0.0,0.0,0.0,0.08451462537050247,692.3438110351562,30.42526513338089,0.0457763746380806,16.479494869709015,0.0,1,1789167904.8370652,38.990285205,-76.94089541166667,-9.047999999999998,0,1,7.279204,6.1652890000000005,37.552384,1,1,1789167905.3737154,-0.7537075856800034,0.6560582693896667,0.013372075986861796,-0.03651862590045695,175.83537453930387,-1.5907021082579287,-82.01747966378895,0.00011536626355682519,0.008133059781368376,0.003849847264049092,0.3501954772758484,0.4193323609161377,-9.689264559307098
2026-09-11T19:05:05.414,1.6711760000000027,-317.865234375,-28607.87109375,-114431.484375,-217.737685546875,0.0,0.0,0.0,0.0,0.0,0.0,0.08583451062440872,703.1563110351562,30.90042382478714,0.0457763746380806,16.479494869709015,0.0,1,1789167904.8370652,38.990285205,-76.94089541166667,-9.047999999999998,0,1,7.279204,6.1652890000000005,37.552384,1,1,1789167905.4057155,-0.7540861318726567,0.6556185618461113,0.013169538677274162,-0.03667383714855353,175.836216569371,-1.61745488027966,-81.94998231248744,-0.00040439278768708613,0.0007276277651564359,0.0014517648718088835,0.35921759542465215,0.4113889742851257,-9.695344682407379
2026-09-11T19:05:05.448,1.7046032320000108,-317.865234375,-28607.87109375,-114431.484375,-217.737685546875,0.0,0.0,0.0,0.0,0.0,0.0,0.08658982068300247,709.3438110351562,31.17233544588089,0.015258789993822575,5.493164397776127,-328.66408058944864,1,1789167904.8370652,38.990285205,-76.94089541166667,-9.047999999999998,0,1,7.279204,6.1652890000000005,37.552384,1,1,1789167905.4457154,-0.7545586264816563,0.6550765218776341,0.012834235814846884,-0.036760196923670795,175.85273462990062,-1.6499521280651444,-81.86657733494812,0.0007564256978143424,-0.001053306203578578,0.0005714207971029434,0.3817728907966614,0.40197459012985226,-9.692402687358856
2026-09-11T19:05:05.481,1.7380161600000292,-317.865234375,-28607.87109375,-114431.484375,-217.737685546875,0.0,0.0,0.0,0.0,0.0,0.0,0.0867004469037056,710.2500610351562,31.212160885334015,0.0,0.0,-164.4023653890226,1,1789167904.8370652,38.990285205,-76.94089541166667,-9.047999999999998,0,1,7.279204,6.1652890000000005,37.552384,1,1,1789167905.4737155,-0.7549185900640081,0.6546724079201007,0.012660129826373753,-0.036628974823858886,175.87629061756837,-1.6529388446414965,-81.80475252668582,-0.0002155481626212997,-0.007797607499135066,-0.0015540411659757509,0.3489206127548218,0.3781444302368164,-9.700836406497956
2026-09-11T19:05:05.515,1.7714267200000222,-317.865234375,-28607.87109375,-114431.484375,-217.737685546875,0.0,0.0,0.0,0.0,0.0,0.0,0.0868225172162056,711.2500610351562,31.256106197834015,0.0,0.0,0.0,1,1789167904.8370652,38.990285205,-76.94089541166667,-9.047999999999998,0,1,7.279204,6.1652890000000005,37.552384,1,1,1789167905.5057154,-0.7553247480807506,0.6542214238079336,0.012488685457245753,-0.036371503997233434,175.91049433386974,-1.6459908170644855,-81.73590760476218,0.0005112069379091391,-0.011944684334798792,-0.0026628488397677486,0.3756927676963806,0.4048185186767578,-9.687107096271514
2026-09-11T19:05:05.548,1.804852032000042,-317.865234375,-28607.87109375,-114431.484375,-217.737685546875,0.0,0.0,0.0,0.0,0.0,0.0,0.0869445875287056,712.2500610351562,31.300051510334015,0.0,0.0,0.0,1,1789167904.8370652,38.990285205,-76.94089541166667,-9.047999999999998,0,1,7.279204,6.1652890000000005,37.552384,1,1,1789167905.5457156,-0.7558637652531204,0.6535954953571352,0.01271045069154622,-0.03635025817589587,175.89437586563898,-1.6218012401464774,-81.64181701139398,-0.0013315116863464739,-0.011545353001942489,-0.0015372860051566055,0.35843306341171266,0.4112909077835083,-9.678084978122712
2026-09-11T19:05:05.581,1.8382642239999996,-317.865234375,-28607.87109375,-114431.484375,-217.737685546875,0.0,0.0,0.0,0.0,0.0,0.0,0.08600998669862747,704.5938110351562,30.96359521150589,-0.0457763709127903,-16.479493528604507,-493.2179705128438,1,1789167904.8370652,38.990285205,-76.94089541166667,-9.047999999999998,0,1,7.279204,6.1652890000000005,37.552384,1,1,1789167905.5737154,-0.7562335362723027,0.6531691962328926,0.01275326893326031,-0.036306939296514296,175.8940232867,-1.6125303921457037,-81.5774297859586,-0.0005427973973702365,-0.015318405778903832,-0.004938932717293554,0.3710836421203613,0.41590003335952763,-9.704268734054565
2026-09-11T19:05:05.614,1.8716768959999968,-317.865234375,-28607.87109375,-114431.484375,-217.737685546875,0.0,0.0,0.0,0.0,0.0,0.0,0.08277512341737747,678.0938110351562,29.79904443025589,-0.1525879055261612,-54.93164598941803,-1150.8254251805047,1,1789167904.8370652,38.990285205,-76.94089541166667,-9.047999999999998,0,1,7.279204,6.1652890000000005,37.552384,1,1,1789167905.6057155,-0.7566797940093131,0.6526507167949355,0.012580517376565318,-0.036393155779876445,175.8983434722073,-1.631155683452193,-81.49837559041843,0.0014329153158873446,-0.006373418829507693,-0.008038462935910283,0.400307459602356,0.4160961663627625,-9.705053266067505
2026-09-11T19:05:05.649,1.905103008000026,-317.865234375,-28607.87109375,-114431.484375,-217.737685546875,0.0,0.0,0.0,0.0,0.0,0.0,0.07679177075624466,629.0781860351562,27.645037472248077,-0.1983642727136612,-71.41113817691803,-493.01253425721785,1,1789167904.8370652,38.990285205,-76.94089541166667,-9.047999999999998,0,1,7.279204,6.1652890000000005,37.552384,1,1,1789167905.6457155,-0.7573109969546163,0.6519222951748409,0.012127099561592946,-0.03647339306666697,175.92366043832467,-1.672567530601557,-81.38673141043837,-0.0013325588838976707,-0.003359584277163885,-0.015082611796959397,0.36922037858963014,0.3643170535087586,-9.706230064086913
2026-09-11T19:05:05.681,1.938514304000023,-317.865234375,-28607.87109375,-114431.484375,-217.737685546875,0.0,0.0,0.0,0.0,0.0,0.0,0.07158089429140091,586.3906860351562,25.769121944904327,-0.0915527492761612,-32.95898973941803,1150.8726999845624,1,1789167904.8370652,38.990285205,-76.94089541166667,-9.047999999999998,0,1,7.279204,6.1652890000000005,37.552384,1,1,1789167905.6737154,-0.7577887953097355,0.6513821769264545,0.011785312826154108,-0.03631126116182895,175.96208727477187,-1.6872298718847252,-81.30408862797545,0.0008145451619057536,-0.000696560904470937,-0.017742842642849158,0.403053321647644,0.35421620384216307,-9.690539423828126
2026-09-11T19:05:05.715,1.9719258880000439,-317.865234375,-28607.87109375,-114431.484375,-217.737685546875,0.0,0.0,0.0,0.0,0.0,0.0,0.06888008862733841,564.2656860351562,24.796831905841827,-0.2288818508386612,-82.39746630191803,-1479.6807167977765,1,1789167904.8370652,38.990285205,-76.94089541166667,-9.047999999999998,0,1,7.279204,6.1652890000000005,37.552384,1,1,1789167905.7057154,-0.7583827269123532,0.6506938044242883,0.01114068911019477,-0.03645678881881211,175.99592985437076,-1.7504636041105899,-81.1981164815881,0.001682671931847733,0.005310513315043146,-0.02173371251045939,0.4250202180099487,0.34244822364807126,-9.659942675323487
2026-09-11T19:05:05.749,2.005353312000011,-317.865234375,-28607.87109375,-114431.484375,-217.737685546875,0.0,0.0,0.0,0.0,0.0,0.0,0.06026459485292435,493.68756103515625,21.695254147052765,-0.1831054985523224,-65.91797947883606,492.9930234258591,1,1789167904.8370652,38.990285205,-76.94089541166667,-9.047999999999998,0,1,7.279204,6.1652890000000005,37.552384,1,1,1789167905.7457154,-0.7592376708731803,0.6497312854718719,0.01156453858299227,-0.03568861518047503,176.0291624966702,-1.6512381364341522,-81.0544590747689,-0.0006693337681398254,-0.005039638215133627,-0.02416809775114108,0.21741343408584593,0.3468612162208557,-9.68004630815506
2026-09-11T19:05:05.782,2.0387690880000378,-317.865234375,-28607.87109375,-114431.484375,-217.737685546875,0.0,0.0,0.0,0.0,0.0,0.0,0.05470658093690872,448.15631103515625,19.69436913728714,-0.12207034230232239,-43.94532322883606,657.5533738908973,1,1789167904.8370652,38.990285205,-76.94089541166667,-9.047999999999998,0,1,7.279204,6.1652890000000005,37.552384,1,1,1789167905.7737155,-0.7597441701468699,0.6491605136604494,0.0123936552439629,-0.03501172291732108,176.02533184654004,-1.525648407428693,-80.97127144049873,0.0022254693292179696,-0.022452613629355852,-0.013381090309190127,0.26801574892044067,0.3883433464050293,-9.657196813278198
2026-09-11T19:05:05.815,2.0721835840000153,-317.865234375,-28607.87109375,-114431.484375,-217.737685546875,0.0,0.0,0.0,0.0,0.0,0.0,0.0483398512005806,396.00006103515625,17.402346432209015,-0.2441406548023224,-87.89063572883606,-1315.157125219829,1,1789167904.8370652,38.990285205,-76.94089541166667,-9.047999999999998,0,1,7.279204,6.1652890000000005,37.552384,1,1,1789167905.8057156,-0.76016734844481,0.6486458373391757,0.012395848741820127,-0.03536273455088536,175.99349373678427,-1.5488902546555974,-80.89364021427195,0.002137679267842655,-0.024329889772800952,-0.011830539801718363,0.8537669630813598,0.4771915968704224,-9.739082342128754
2026-09-11T19:05:05.849,2.105613088000041,-317.865234375,-28607.87109375,-114431.484375,-217.737685546875,0.0,0.0,0.0,0.0,0.0,0.0,0.03664017468690872,300.15631103515625,13.19046288728714,-0.3662109673023224,-131.83594822883606,-1314.5666923435745,1,1789167905.8380656,38.99028519833333,-76.94089550833333,-9.036999999999999,0,1,6.528025,5.8081000000000005,34.644996,1,1,1789167905.8457155,-0.7607340148256466,0.6479105206949697,0.012499993284999058,-0.03659871620563988,175.87626963198903,-1.6278228482347192,-80.78288473922652,-0.0025546384261441,-0.03825220668303452,-0.022384894854378473,0.43767079671859743,0.5130839364624024,-9.752909718856811
2026-09-11T19:05:05.882,2.139025984,-317.865234375,-28607.87109375,-114431.484375,-217.737685546875,0.0,0.0,0.0,0.0,0.0,0.0,0.02720070630311966,222.82818603515625,9.792254269123077,-0.4425049126148224,-159.30176854133606,-822.0125640271885,1,1789167905.8380656,38.99028519833333,-76.94089550833333,-9.036999999999999,0,1,6.528025,5.8081000000000005,34.644996,1,1,1789167905.8737154,-0.7612855828949577,0.6472810801183143,0.012284655627446696,-0.03633939781102196,175.91357093750693,-1.6239423902658494,-80.6875895450612,0.0001090830782496456,-0.01747353833926643,-0.030248824865089324,0.27419393852233886,0.3257769183731079,-9.795666713562012
2026-09-11T19:05:05.915,2.172439872000041,-317.865234375,-28607.87109375,-114431.484375,-217.737685546875,0.0,0.0,0.0,0.0,0.0,0.0,0.013631828129291534,111.67193603515625,4.907458126544952,-0.5493164658546448,-197.75392770767212,-1150.7837449592491,1,1789167905.8380656,38.99028519833333,-76.94089550833333,-9.036999999999999,0,1,6.528025,5.8081000000000005,34.644996,1,1,1789167905.9057155,-0.7618967616152585,0.6466152438384182,0.012674897853213444,-0.035233478970651544,175.98002380058375,-1.5042490041348275,-80.58916675018727,0.0030892327760299633,-0.015433073910759858,-0.021888348682186087,0.1773042349243164,0.3914814744567871,-9.682694103698731
2026-09-11T19:05:05.949,2.205865536000033,-317.865234375,-28607.87109375,-114431.484375,-217.737685546875,0.0,0.0,0.0,0.0,0.0,0.0,-0.0056476593017578125,-46.265625,-2.0331573486328125,-0.061035215854644775,-21.97267770767212,5258.870848460672,1,1789167905.8380656,38.99028519833333,-76.94089550833333,-9.036999999999999,0,1,6.528025,5.8081000000000005,34.644996,1,1,1789167905.9457154,-0.7626069753683585,0.645779253644051,0.011778739344949591,-0.03551081499909271,176.02038580808485,-1.5987137196288035,-80.46062625889371,-0.0011993902619705033,0.0006007423285364482,-0.028686057052853604,0.6510635042381288,0.35598140087127683,-9.667395729446412
2026-09-11T19:05:05.982,2.239283808000039,-317.865234375,-28607.87109375,-114431.484375,-217.737685546875,0.0,0.0,0.0,0.0,0.0,0.0,-0.010166168212890625,-83.28125,-3.659820556640625,-0.4425049424171448,-159.30177927017212,-4109.401634006575,1,1789167905.8380656,38.99028519833333,-76.94089550833333,-9.036999999999999,0,1,6.528025,5.8081000000000005,34.644996,1,1,1789167905.9737155,-0.7632372516703012,0.6450756799876741,0.011353024268188022,-0.034890881203707695,176.10471445824214,-1.5864028686733014,-80.35394916923191,0.0019518017025052588,0.013182646373238372,-0.032920225818191845,0.0852197899055481,0.24428365552902223,-9.821065937480927
2026-09-11T19:05:06.016,2.272697312000048,-317.865234375,-28607.87109375,-114431.484375,-217.737685546875,0.0,0.0,0.0,0.0,0.0,0.0,-0.020824432373046875,-170.59375,-7.496795654296875,-0.4119873642921448,-148.31545114517212,328.7990425965794,1,1789167905.8380656,38.99028519833333,-76.94089550833333,-9.036999999999999,0,1,6.528025,5.8081000000000005,34.644996,1,1,1789167906.0057154,-0.7638749598244121,0.6443575563311043,0.012185323408036653,-0.033910223321323874,176.1278116972414,-1.4373862001204736,-80.2492149488978,0.0020090485019706728,0.005327966607563089,-0.022850374165885357,0.2682118819236755,0.4302177425956726,-9.777524410762787
2026-09-11T19:05:06.050,2.3061262720000286,-317.865234375,-28607.87109375,-114431.484375,-217.737685546875,0.0,0.0,0.0,0.0,0.0,0.0,-0.038555145263671875,-315.84375,-13.879852294921875,-0.3356934189796448,-120.84963083267212,821.6175529396043,1,1789167905.8380656,38.99028519833333,-76.94089550833333,-9.036999999999999,0,1,6.528025,5.8081000000000005,34.644996,1,1,1789167906.0457156,-0.7645505739201836,0.6435242609728908,0.011705707240207685,-0.03466874493862118,176.09501185473908,-1.5311911749239477,-80.12261509995025,0.0010473720841217972,-0.0011122983322959861,-0.023658461609558732,0.5125936039543152,0.4229608214759827,-9.717017379264831
2026-09-11T19:05:06.083,2.3395425920000434,-317.865234375,-28607.87109375,-114431.484375,-217.737685546875,0.0,0.0,0.0,0.0,0.0,0.0,-0.04544639587402344,-372.296875,-16.360702514648438,-0.3967285752296448,-142.82228708267212,-657.5426692702923,1,1789167905.8380656,38.99028519833333,-76.94089550833333,-9.036999999999999,0,1,6.528025,5.8081000000000005,34.644996,1,1,1789167906.0737154,-0.7651389253659233,0.6428368239084349,0.011410173844554417,-0.03454056528247866,176.12666595692303,-1.5441453564855396,-80.01884879606743,0.0017959438003021652,0.010960842235449589,-0.030586371542425026,0.12052373048782349,0.2820392586517334,-9.663375002880096
2026-09-11T19:05:06.116,2.3729574080000475,-317.865234375,-28607.87109375,-114431.484375,-217.737685546875,0.0,0.0,0.0,0.0,0.0,0.0,-0.060474395751953125,-495.40625,-21.770782470703125,-0.6408692002296448,-230.71291208267212,-2630.289060995856,1,1789167905.8380656,38.99028519833333,-76.94089550833333,-9.036999999999999,0,1,6.528025,5.8081000000000005,34.644996,1,1,1789167906.1057155,-0.765757733015929,0.6421528613692684,0.012270438138279433,-0.033230006161017324,176.17723862690957,-1.3686467997060188,-79.91970013611355,0.0028365091003411842,-0.006635218217306843,-0.019272798265147384,0.1775984344291687,0.34607668420791626,-9.730256356983185
2026-09-11T19:05:06.149,2.40638089600003,-317.865234375,-28607.87109375,-114431.484375,-217.737685546875,0.0,0.0,0.0,0.0,0.0,0.0,-0.07473945617675781,-612.265625,-26.906204223632812,0.0,0.0,6902.717995284994,1,1789167905.8380656,38.99028519833333,-76.94089550833333,-9.036999999999999,0,1,6.528025,5.8081000000000005,34.644996,1,1,1789167906.1457155,-0.7663591248362781,0.6413914681059573,0.012473135625002409,-0.03398672253599831,176.0943997318254,-1.4027284945977045,-79.80633929632087,0.001574112452373686,-0.011233811730461504,-0.01952988526396615,0.520733123588562,0.5451516824913025,-9.703974534549713
2026-09-11T19:05:06.182,2.439793248000001,-317.865234375,-28607.87109375,-114431.484375,-217.737685546875,0.0,0.0,0.0,0.0,0.0,0.0,-0.07703399658203125,-631.0625,-27.73223876953125,-0.2136230617761612,-76.90430223941803,-2301.6728136793668,1,1789167905.8380656,38.99028519833333,-76.94089550833333,-9.036999999999999,0,1,6.528025,5.8081000000000005,34.644996,1,1,1789167906.1737154,-0.7668842999568135,0.6407735533433007,0.012346260031746496,-0.03384218785446693,176.11531410321157,-1.4001073936440454,-79.71369968043909,0.0007436847942747838,-0.007613300730124464,-0.025191035225734956,0.278312731590271,0.3860878168678284,-9.76448156604767
2026-09-11T19:05:06.216,2.473206112000014,-317.865234375,-28607.87109375,-114431.484375,-217.737685546875,0.0,0.0,0.0,0.0,0.0,0.0,-0.08488082885742188,-695.34375,-30.557098388671875,-0.2899170219898224,-104.37012791633606,-822.0135118290749,1,1789167905.8380656,38.99028519833333,-76.94089550833333,-9.036999999999999,0,1,6.528025,5.8081000000000005,34.644996,1,1,1789167906.2137156,-0.7676500154770184,0.6399089156212989,0.013073140167222823,-0.032544223030742815,176.1748476985852,-1.2365093632822985,-79.58751696316226,0.0034868187796342717,-0.020575162952985553,-0.019136138984716226,0.05040618183135986,0.41511550134658814,-9.72741242843628
2026-09-11T19:05:06.250,2.5066306880000297,-317.865234375,-28607.87109375,-114431.484375,-217.737685546875,0.0,0.0,0.0,0.0,0.0,0.0,-0.09361839294433594,-766.921875,-33.70262145996094,-0.3814697563648224,-137.32911229133606,-986.0703805183472,1,1789167905.8380656,38.99028519833333,-76.94089550833333,-9.036999999999999,0,1,6.528025,5.8081000000000005,34.644996,1,1,1789167906.2457154,-0.7681318263517636,0.6393119398043504,0.013456344692706143,-0.03275160693178142,176.1275308388897,-1.2150190456939898,-79.49977914391826,0.0022704988239194237,-0.02769802616329961,-0.015225554262697734,0.3475476817321777,0.4853311165046692,-9.637681579456329
2026-09-11T19:05:06.283,2.5400445440000112,-317.865234375,-28607.87109375,-114431.484375,-217.737685546875,0.0,0.0,0.0,0.0,0.0,0.0,-0.1125030517578125,-921.625,-40.5010986328125,-0.5035400986671448,-181.27443552017212,-1315.1826364745336,1,1789167905.8380656,38.99028519833333,-76.94089550833333,-9.036999999999999,0,1,6.528025,5.8081000000000005,34.644996,1,1,1789167906.2737155,-0.7685597220736695,0.6387930526099592,0.012554915308413326,-0.033192825202020465,176.15375483098052,-1.3241252279124158,-79.419275936119,0.0008639379797371931,-0.01219479001660958,-0.02728927005248254,0.4292370775794983,0.3546084698486328,-9.733296418533325
2026-09-11T19:05:06.316,2.573457536000035,-317.865234375,-28607.87109375,-114431.484375,-217.737685546875,0.0,0.0,0.0,0.0,0.0,0.0,-0.1242218017578125,-1017.625,-44.7198486328125,-0.7171631455421448,-258.1787323951721,-2301.628566365607,1,1789167905.8380656,38.99028519833333,-76.94089550833333,-9.036999999999999,0,1,6.528025,5.8081000000000005,34.644996,1,1,1789167906.3137155,-0.7693982617399423,0.6378568713123811,0.011846623658874638,-0.03200912462127887,176.3084644941316,-1.295277805502473,-79.2779895439288,0.0037411132516498454,0.005074370267248314,-0.034741825958498326,0.03520587408065796,0.25006957912445066,-9.734767416057586
2026-09-11T19:05:06.350,2.606879423999999,-317.865234375,-28607.87109375,-114431.484375,-217.737685546875,0.0,0.0,0.0,0.0,0.0,0.0,-0.15068435668945312,-1234.40625,-54.246368408203125,-0.2746582627296448,-98.87697458267212,4766.390151647684,1,1789167905.8380656,38.99028519833333,-76.94089550833333,-9.036999999999999,0,1,6.528025,5.8081000000000005,34.644996,1,1,1789167906.3457155,-0.7700327151227787,0.6371101807361559,0.011683174515071119,-0.03168183511468881,176.34807390691697,-1.2822024280276656,-79.16651790511033,0.003389080341522589,0.015130608351389243,-0.028891482305813333,0.3859897503662109,0.34303662265777585,-9.689166492805482
2026-09-11T19:05:06.383,2.6402937280000174,-317.865234375,-28607.87109375,-114431.484375,-217.737685546875,0.0,0.0,0.0,0.0,0.0,0.0,-0.1575031280517578,-1290.265625,-56.70112609863281,-0.5493164658546448,-197.75392770767212,-2959.120534874679,1,1789167905.8380656,38.99028519833333,-76.94089550833333,-9.036999999999999,0,1,6.528025,5.8081000000000005,34.644996,1,1,1789167906.3737154,-0.7706430519195779,0.6363942344724753,0.011375650669708932,-0.03134101833239751,176.39945743878775,-1.2810887912074154,-79.05927331065753,0.0026172957462906967,0.013368873004426166,-0.032787755327965476,0.04530672374725342,0.3037119555091858,-9.703582268543244
2026-09-11T19:05:06.417,2.673707200000024,-317.865234375,-28607.87109375,-114431.484375,-217.737685546875,0.0,0.0,0.0,0.0,0.0,0.0,-0.1695575714111328,-1389.015625,-61.04072570800781,-0.5035400986671448,-181.27443552017212,493.1990362299605,1,1789167905.8380656,38.99028519833333,-76.94089550833333,-9.036999999999999,0,1,6.528025,5.8081000000000005,34.644996,1,1,1789167906.4137154,-0.7713181841147387,0.6355390690603573,0.013237449971674026,-0.03135475195379522,176.26125403593684,-1.1135429853329601,-78.93830057178553,0.006299242336297935,-0.005366363851106965,-0.019065802215860857,0.1936813406944275,0.5593713252258301,-9.798118376102448
2026-09-11T19:05:06.450,2.7071585280000363,-317.865234375,-28607.87109375,-114431.484375,-217.737685546875,0.0,0.0,0.0,0.0,0.0,0.0,-0.1822681427001953,-1493.140625,-65.61653137207031,-0.10681158304214478,-38.45216989517212,4269.554429197763,1,1789167905.8380656,38.99028519833333,-76.94089550833333,-9.036999999999999,0,1,6.528025,5.8081000000000005,34.644996,1,1,1789167906.4457154,-0.7717167009684778,0.635029112662484,0.013054731119711933,-0.031952050213088126,176.22090201678412,-1.1707405896286667,-78.86183743429314,0.004249004063980195,-0.013774138456739249,-0.019767075509312178,0.2141772395324707,0.48425238498687745,-9.616695348110198
2026-09-11T19:05:06.483,2.740572736000047,-317.865234375,-28607.87109375,-114431.484375,-217.737685546875,0.0,0.0,0.0,0.0,0.0,0.0,-0.1945819854736328,-1594.015625,-70.04951477050781,-0.5035400986671448,-181.27443552017212,-4274.297497189061,1,1789167905.8380656,38.99028519833333,-76.94089550833333,-9.036999999999999,0,1,6.528025,5.8081000000000005,34.644996,1,1,1789167906.4737155,-0.7721766094400665,0.6344642685062832,0.013281636289179478,-0.031968327449393194,176.20210987274433,-1.14908574447227,-78.77884597393445,0.0027632052717574225,-0.005607742886657781,-0.024511404015008367,-0.011375714187622071,0.4782703283882141,-9.659354276313781
2026-09-11T19:05:06.517,2.7739854720000494,-317.865234375,-28607.87109375,-114431.484375,-217.737685546875,0.0,0.0,0.0,0.0,0.0,0.0,-0.21542739868164062,-1764.78125,-77.55386352539062,-0.5798340439796448,-208.74025583267212,-822.0165003098803,1,1789167905.8380656,38.99028519833333,-76.94089550833333,-9.036999999999999,0,1,6.528025,5.8081000000000005,34.644996,1,1,1789167906.5137155,-0.7728640511035234,0.6336368175164226,0.012490264372050034,-0.03208637242547544,176.24786486772584,-1.2236822790075867,-78.65351770159847,0.004668755749084832,0.02343488493237826,-0.0223461485449842,0.42276468847274784,0.3358777680397034,-9.675731382083892
2026-09-11T19:05:06.551,2.8074137280000286,-317.865234375,-28607.87109375,-114431.484375,-217.737685546875,0.0,0.0,0.0,0.0,0.0,0.0,-0.222991943359375,-1826.75,-80.277099609375,-0.4577637016773224,-164.79493260383606,1314.616090916121,1,1789167905.8380656,38.99028519833333,-76.94089550833333,-9.036999999999999,0,1,6.528025,5.8081000000000005,34.644996,1,1,1789167906.5457156,-0.7734713400468141,0.6329373987999841,0.011613556686486707,-0.03158260007639034,176.35506667794257,-1.2614175474226423,-78.54730181638328,0.005654168644760831,0.04222440152764842,-0.028591983806171107,0.12101406299591065,0.23114274431228637,-9.648076628627777
2026-09-11T19:05:06.584,2.840830016000041,-317.865234375,-28607.87109375,-114431.484375,-217.737685546875,0.0,0.0,0.0,0.0,0.0,0.0,-0.2379913330078125,-1949.625,-85.6768798828125,-0.3814697861671448,-137.32912302017212,821.92880261428,1,1789167905.8380656,38.99028519833333,-76.94089550833333,-9.036999999999999,0,1,6.528025,5.8081000000000005,34.644996,1,1,1789167906.5737154,-0.7739550619994795,0.6323631267758629,0.011912474963756041,-0.031121228122834153,176.37346470803377,-1.1987377133232677,-78.46340894278471,0.0022546163277262746,0.020997707164893378,-0.0209298138569908,0.09463417406082154,0.42394148649215696,-9.676319781093596
2026-09-11T19:05:06.617,2.8742399360000377,-317.865234375,-28607.87109375,-114431.484375,-217.737685546875,0.0,0.0,0.0,0.0,0.0,0.0,-0.2520122528076172,-2064.484375,-90.72441101074219,-0.16784673929214478,-60.42482614517212,2301.8401982108066,1,1789167905.8380656,38.99028519833333,-76.94089550833333,-9.036999999999999,0,1,6.528025,5.8081000000000005,34.644996,1,1,1789167906.6137154,-0.7745413016598829,0.6316200950292519,0.011094998598465263,-0.03191752785466505,176.36067387062073,-1.3255091081223378,-78.35074530943305,0.0038859755795653747,0.005825734510231872,-0.019236146350855503,0.2634066233444214,0.39079500894546504,-9.707406862106323
2026-09-11T19:05:06.651,2.9077929919999974,-317.865234375,-28607.87109375,-114431.484375,-217.737685546875,0.0,0.0,0.0,0.0,0.0,0.0,-0.25853919982910156,-2117.953125,-93.07411193847656,-0.22888189554214478,-82.39748239517212,-654.8630398979567,1,1789167905.8380656,38.99028519833333,-76.94089550833333,-9.036999999999999,0,1,6.528025,5.8081000000000005,34.644996,1,1,1789167906.6457155,-0.7750001005456095,0.631071454483241,0.011823881461009014,-0.03136653181175555,176.35605764605998,-1.2183162211601877,-78.27210702729846,0.004067489821772785,-0.03163025296804283,-0.014560758350613092,0.0014709975242614744,0.47464186782836915,-9.640623574504852
2026-09-11T19:05:06.684,2.9412053120000223,-317.865234375,-28607.87109375,-114431.484375,-217.737685546875,0.0,0.0,0.0,0.0,0.0,0.0,-0.26360511779785156,-2159.453125,-94.89784240722656,-0.24414068460464478,-87.89064645767212,-164.4053469647095,1,1789167905.8380656,38.99028519833333,-76.94089550833333,-9.036999999999999,0,1,6.528025,5.8081000000000005,34.644996,1,1,1789167906.6737154,-0.7753537059947242,0.6306490095812363,0.012640295662825502,-0.030800653239968577,176.34676500742725,-1.1028630460086772,-78.21253213624736,0.0008930849782454984,-0.04516179065875487,-0.012374907995415395,0.20613578639984131,0.43090420810699465,-9.707014596099855
2026-09-11T19:05:06.718,2.9746188160000315,-317.865234375,-28607.87109375,-114431.484375,-217.737685546875,0.0,0.0,0.0,0.0,0.0,0.0,-0.2784538269042969,-2281.09375,-100.24337768554688,-0.7476807236671448,-269.1650605201721,-5425.18420284356,1,1789167905.8380656,38.99028519833333,-76.94089550833333,-9.036999999999999,0,1,6.528025,5.8081000000000005,34.644996,1,1,1789167906.7137156,-0.7758407785223441,0.6300617379445285,0.012142570078597361,-0.030754686668045234,176.38595778531288,-1.1410235002130718,-78.12423159895283,0.004198564048597559,-0.03534361548458598,-0.017172469043297407,0.3214619923019409,0.355785267868042,-9.67700624660492
2026-09-11T19:05:06.751,3.008044288000008,-317.865234375,-28607.87109375,-114431.484375,-217.737685546875,0.0,0.0,0.0,0.0,0.0,0.0,-0.2890949249267578,-2368.265625,-104.07417297363281,0.0,0.0,8052.692884048529,1,1789167905.8380656,38.99028519833333,-76.94089550833333,-9.036999999999999,0,1,6.528025,5.8081000000000005,34.644996,1,1,1789167906.7457154,-0.7763585466179936,0.6294394997766618,0.012815642078353827,-0.03015099554280162,176.39029467428662,-1.034668389280294,-78.0348232518969,0.0023500858378103645,-0.016432274907526613,-0.020915676690049647,0.15543540506362916,0.4017784571266174,-9.708093327617645
2026-09-11T19:05:06.784,3.0414592960000277,-317.865234375,-28607.87109375,-114431.484375,-217.737685546875,0.0,0.0,0.0,0.0,0.0,0.0,-0.2898368835449219,-2374.34375,-104.34127807617188,-0.015258791856467724,-5.493165068328381,-164.3921518236686,1,1789167905.8380656,38.99028519833333,-76.94089550833333,-9.036999999999999,0,1,6.528025,5.8081000000000005,34.644996,1,1,1789167906.7737155,-0.7767776259147959,0.6289382382376997,0.013573860349602385,-0.029478172871490942,176.39496340736292,-0.9163222305701102,-77.96368861718787,0.0012053243814272839,-0.023864934060069662,-0.014711380265060204,0.20662611890792845,0.37059330961227416,-9.720351640319825
2026-09-11T19:05:06.818,3.0748721920000435,-317.9063415527344,-28611.570739746094,-114446.28295898438,-217.76584396362307,-0.028158416748046877,-0.7533356547355652,-0.5160349234938622,-1.154337248330936,-15.444184290209957,0.0,-0.2921314239501953,-2393.140625,-105.16731262207031,-0.0610351637005806,-21.972658932209015,-493.20758858713936,1,1789167905.8380656,38.99028519833333,-76.94089550833333,-9.036999999999999,0,1,6.528025,5.8081000000000005,34.644996,1,1,1789167906.8137155,-0.7772575529833542,0.6283619952798484,0.013955683988542454,-0.02893333894779797,176.41538773694523,-0.8403815781332789,-77.88025746841109,0.004769635779850104,-0.026557104431270916,-0.007795687636957873,0.22731815074920653,0.40962377725601196,-9.699757674980164
2026-09-11T19:05:06.852,3.1083012800000347,-317.9060974121094,-28611.548767089844,-114446.19506835938,-217.76567672729493,-0.027991180419921876,-0.14836543798446655,-0.10163032501935959,-0.22734056240908973,12.396527194358738,0.0,-0.29288291931152344,-2399.296875,-105.43785095214844,-0.015258791856467724,-5.493165068328381,492.9686943264788,1,1789167906.8387556,38.990285156666666,-76.94089626,-9.061,0,1,7.203856000000001,5.148361,31.584400000000002,1,1,1789167906.8457155,-0.7776369437314661,0.6279005157528156,0.014690844769342409,-0.028388468456322622,176.4106072592332,-0.7335195015248567,-77.81507988384024,0.0004991641660703782,-0.024031613003635124,-0.009065414667783748,0.04069759817123413,0.4215878904533386,-9.716821246261597
2026-09-11T19:05:06.885,3.141719711999997,-317.9058837890625,-28611.529541015625,-114446.1181640625,-217.76553039550782,-0.027844848632812502,-0.016850167885422707,-0.011542365001514555,-0.025819535168026445,2.69575664166251,0.0,-0.2928791046142578,-2399.265625,-105.43647766113281,0.0,0.0,164.3753084625453,1,1789167906.8387556,38.990285156666666,-76.94089626,-9.061,0,1,7.203856000000001,5.148361,31.584400000000002,1,1,1789167906.8737154,-0.777938810067854,0.6275485781096205,0.015054813459534622,-0.027700947538008405,176.44546641010635,-0.6499734329391752,-77.7647608418197,0.0017828538309122078,-0.023608196127101296,-0.004597546315603463,0.17092991231918336,0.33489710302352904,-9.714663783226012
2026-09-11T19:05:06.918,3.175152032000028,-317.9058532714844,-28611.526794433594,-114446.10717773438,-217.76550949096682,-0.02782394409179688,0.0,0.0,0.0,0.3452457083894794,0.0,-0.2928791046142578,-2399.265625,-105.43647766113281,0.0,0.0,0.0,1,1789167906.8387556,38.990285156666666,-76.94089626,-9.061,0,1,7.203856000000001,5.148361,31.584400000000002,1,1,1789167906.9137154,-0.7783242121984283,0.6271064458920549,0.014513102133839198,-0.027171604530908382,176.53130655346345,-0.6581813579059955,-77.69780545521759,0.0017638297420654694,-0.008219279046416896,-0.0016296139225871055,0.16416332370758058,0.343526955165863,-9.684557367229463
2026-09-11T19:05:06.951,3.2085843840000052,-317.9058532714844,-28611.526794433594,-114446.10717773438,-217.76550949096682,-0.02782394409179688,0.0,0.0,0.0,0.0,0.0,-0.2928791046142578,-2399.265625,-105.43647766113281,0.0,0.0,0.0,1,1789167906.8387556,38.990285156666666,-76.94089626,-9.061,0,1,7.203856000000001,5.148361,31.584400000000002,1,1,1789167906.9457154,-0.7786423190813467,0.6267290787936067,0.014718478284961424,-0.0266489610888349,176.562924690516,-0.6006138675279672,-77.64314477670175,-0.0004845034003536259,-0.003914424446372883,-0.0007782423134642715,0.11846433395385743,0.34176175813674925,-9.695050482902527
2026-09-11T19:05:06.985,3.242002112000023,-317.9058532714844,-28611.526794433594,-114446.10717773438,-217.76550949096682,-0.02782394409179688,0.0,0.0,0.0,0.0,0.0,-0.2928791046142578,-2399.265625,-105.43647766113281,0.0,0.0,0.0,1,1789167906.8387556,38.990285156666666,-76.94089626,-9.061,0,1,7.203856000000001,5.148361,31.584400000000002,1,1,1789167906.9737155,-0.7788923642758323,0.6264420582473453,0.01432644946223129,-0.0263018131968064,176.62187349673593,-0.6093864702089871,-77.59958820095324,2.059488517353309e-05,0.002499835087631478,0.0016720254234105676,0.19525040472030641,0.2908652437973022,-9.70299386953354
2026-09-11T19:05:07.019,3.275416192000023,-317.9058532714844,-28611.526794433594,-114446.10717773438,-217.76550949096682,-0.02782394409179688,0.0,0.0,0.0,0.0,0.0,-0.29268455505371094,-2397.671875,-105.36643981933594,0.0305175818502903,10.986329466104507,328.79341481508703,1,1789167906.8387556,38.990285156666666,-76.94089626,-9.061,0,1,7.203856000000001,5.148361,31.584400000000002,1,1,1789167907.0137155,-0.7792363861120394,0.6260350181072863,0.014017411224958587,-0.02596772698964324,176.67359690285247,-0.6112234392112317,-77.53873040756027,-0.0005040510879759624,0.02333976448814457,0.006422462581488733,0.08168939584732056,0.3489206127548218,-9.703190002536774
2026-09-11T19:05:07.052,3.308848992000037,-317.9058532714844,-28611.526794433594,-114446.10717773438,-217.76550949096682,-0.02782394409179688,0.0,0.0,0.0,0.0,0.0,-0.2925148010253906,-2396.28125,-105.30532836914062,0.015258789993822575,5.493164397776127,-164.30466692368145,1,1789167906.8387556,38.990285156666666,-76.94089626,-9.061,0,1,7.203856000000001,5.148361,31.584400000000002,1,1,1789167907.0457156,-0.7794940608132017,0.6257013430649273,0.013945007922586346,-0.026313023348330748,176.64764979692228,-0.6410435050924636,-77.48939646322209,-0.002093347904841999,0.036786304644284486,0.00516477832250162,0.16759565126419068,0.3849110188484192,-9.704464867057801
2026-09-11T19:05:07.085,3.342263360000004,-317.9058532714844,-28611.526794433594,-114446.10717773438,-217.76550949096682,-0.02782394409179688,0.0,0.0,0.0,0.0,0.0,-0.29210472106933594,-2392.921875,-105.15769958496094,0.03051757998764515,10.986328795552254,164.3952804309078,1,1789167906.8387556,38.990285156666666,-76.94089626,-9.061,0,1,7.203856000000001,5.148361,31.584400000000002,1,1,1789167907.0737154,-0.7796947358262125,0.6254357159232738,0.013747846080189828,-0.026782100376743414,176.61960483982097,-0.6911595823805984,-77.44961120845662,-0.0009430013948525363,0.04550230439581896,0.010993654425387082,0.1623981266784668,0.3833419548225403,-9.696227280921935
2026-09-11T19:05:07.119,3.3756776640000226,-317.8648681640625,-28607.838134765625,-114431.3525390625,-217.73743469238283,0.0002508544921875,0.7052257657051086,0.4830796495079995,1.0806183999373633,14.45727103900567,0.0,-0.29145240783691406,-2387.578125,-104.92286682128906,0.03051757998764515,10.986328795552254,0.0,1,1789167906.8387556,38.990285156666666,-76.94089626,-9.061,0,1,7.203856000000001,5.148361,31.584400000000002,1,1,1789167907.1137154,-0.7798945647490403,0.6251552054732978,0.012955156688613302,-0.027885495507837227,176.57741406418032,-0.8398838056739948,-77.4054921596072,-0.0011835077657773548,0.05930524078521612,0.014202965853954256,0.231731143321991,0.4206072254371643,-9.688381960792542
2026-09-11T19:05:07.152,3.4091016640000475,-317.86492919921875,-28607.843627929688,-114431.37451171875,-217.73747650146487,0.00020904541015625002,0.13820989429950714,0.09467377759516239,0.21177920900850547,-11.620568211840196,0.0,-0.2894763946533203,-2371.390625,-104.21150207519531,0.0915527418255806,32.958987057209015,657.3916425813886,1,1789167906.8387556,38.990285156666666,-76.94089626,-9.061,0,1,7.203856000000001,5.148361,31.584400000000002,1,1,1789167907.1457155,-0.7800551936946573,0.624929615146454,0.012439297796257376,-0.028672892655469087,176.54363390475584,-0.9414350424291976,-77.3704818104474,-0.0018940313042642466,0.05257263319564799,0.01128913866774972,0.20996037996292113,0.4236472869873047,-9.721332305335999
2026-09-11T19:05:07.185,3.4425143360000448,-317.8647766113281,-28607.82989501953,-114431.31958007812,-217.7373719787598,0.000313568115234375,0.03511609882116318,0.024054527692496778,0.05380844598357362,-2.113546917249585,0.0,-0.2848052978515625,-2333.125,-102.5299072265625,0.1068115383386612,38.45215380191803,164.40369524201702,1,1789167906.8387556,38.990285156666666,-76.94089626,-9.061,0,1,7.203856000000001,5.148361,31.584400000000002,1,1,1789167907.1737154,-0.7801330490975527,0.6248230715274405,0.012114765336392426,-0.02901357360985482,176.5362420621053,-0.9943862420035535,-77.3537059676678,0.00013700834628155485,0.04775831698694683,0.023169245820224723,0.22025736263275147,0.36676871604919437,-9.677692712116242
2026-09-11T19:05:07.219,3.4759279680000077,-317.865234375,-28607.87109375,-114431.484375,-217.737685546875,0.0,0.0,0.0,0.0,-0.7199016165774332,0.0,-0.28209495544433594,-2310.921875,-101.55418395996094,0.0762939602136612,27.46582567691803,-328.7977830429264,1,1789167906.8387556,38.990285156666666,-76.94089626,-9.061,0,1,7.203856000000001,5.148361,31.584400000000002,1,1,1789167907.2137156,-0.780173607366586,0.6247450920974744,0.009538707748191308,-0.030524176044911207,176.58527356649233,-1.332588625159637,-77.33416468941755,-0.0007354817467904104,0.045739145575314596,0.01224400830151582,0.5133781359672547,0.3561775338745117,-9.629836259326934
2026-09-11T19:05:07.253,3.509355008,-317.865234375,-28607.87109375,-114431.484375,-217.737685546875,0.0,0.0,0.0,0.0,0.0,0.0,-0.2803459167480469,-2296.59375,-100.92453002929688,0.061035171151161194,21.97266161441803,-164.33294908856018,1,1789167906.8387556,38.990285156666666,-76.94089626,-9.061,0,1,7.203856000000001,5.148361,31.584400000000002,1,1,1789167907.2457154,-0.7804131299516698,0.6244400176084859,0.008977152967147984,-0.03081268785348798,176.59908001596744,-1.4021432994529575,-77.287792962495,-0.00020943951023931956,0.04295133116110405,0.005901481799768426,0.19554460422515868,0.35068580978393554,-9.730942822494507
2026-09-11T19:05:07.286,3.542769376000024,-317.865234375,-28607.87109375,-114431.484375,-217.737685546875,0.0,0.0,0.0,0.0,0.0,0.0,-0.2762737274169922,-2263.234375,-99.45854187011719,0.1678466945886612,60.42481005191803,1150.76689277716,1,1789167906.8387556,38.990285156666666,-76.94089626,-9.061,0,1,7.203856000000001,5.148361,31.584400000000002,1,1,1789167907.2737155,-0.7805980981594186,0.6242260965142575,0.008648591437494269,-0.030554728711257233,176.645303517811,-1.4121384345839942,-77.2556671136469,0.001353677367846802,0.021947864409679094,0.012177511257014837,0.30822301458358764,0.3116553421401978,-9.72241103685379
2026-09-11T19:05:07.319,3.5761895360000153,-317.865234375,-28607.87109375,-114431.484375,-217.737685546875,0.0,0.0,0.0,0.0,0.0,0.0,-0.26909446716308594,-2204.421875,-96.87400817871094,0.2899170219898224,104.37012791633606,1314.9343948212465,1,1789167906.8387556,38.990285156666666,-76.94089626,-9.061,0,1,7.203856000000001,5.148361,31.584400000000002,1,1,1789167907.3137155,-0.7807437000344787,0.6240297623280463,0.009048435347107628,-0.030728755312301036,176.60077064913145,-1.3879711909971564,-77.22782940466792,0.0006581636609270617,-0.02161380839084738,0.019135266320090234,0.319892928276062,0.45669569803237914,-9.686616763763427
2026-09-11T19:05:07.353,3.609615968000014,-317.865234375,-28607.87109375,-114431.484375,-217.737685546875,0.0,0.0,0.0,0.0,0.0,0.0,-0.2522716522216797,-2066.609375,-90.81779479980469,0.5798340439796448,208.74025583267212,3122.383146258018,1,1789167906.8387556,38.990285156666666,-76.94089626,-9.061,0,1,7.203856000000001,5.148361,31.584400000000002,1,1,1789167907.3457155,-0.7808300594602393,0.6239087626013994,0.010567729411261629,-0.030505692708087784,176.51195537913134,-1.2355266251724948,-77.21437643551262,0.0007093018080104956,-0.045231778361759845,0.021767397365022877,0.12532898906707762,0.510730340423584,-9.751340654830933
2026-09-11T19:05:07.386,3.643038304000015,-317.865234375,-28607.87109375,-114431.484375,-217.737685546875,0.0,0.0,0.0,0.0,0.0,0.0,-0.24431991577148438,-2001.46875,-87.95516967773438,0.18310552835464478,65.91799020767212,-4273.258027954591,1,1789167906.8387556,38.990285156666666,-76.94089626,-9.061,0,1,7.203856000000001,5.148361,31.584400000000002,1,1,1789167907.3737154,-0.7808257381117618,0.6239047948464367,0.011650147764750377,-0.030302602642469877,176.45277701716375,-1.1241240798672798,-77.21714160543779,-0.0011702432634621979,-0.05347217589212588,0.029275454741252087,0.319892928276062,0.4718960057830811,-9.650528291168213
2026-09-11T19:05:07.419,3.6764543040000035,-317.865234375,-28607.87109375,-114431.484375,-217.737685546875,0.0,0.0,0.0,0.0,0.0,0.0,-0.2274951934814453,-1863.640625,-81.89826965332031,0.5950928330421448,214.23341989517212,4438.4555209346345,1,1789167906.8387556,38.990285156666666,-76.94089626,-9.061,0,1,7.203856000000001,5.148361,31.584400000000002,1,1,1789167907.4137154,-0.7807884618276799,0.6239239167078183,0.010820826923103143,-0.031164623235989408,176.4348339747911,-1.2601018893008917,-77.21711373423723,-0.0002537708732399755,-0.019476129123004723,0.015095527233424154,0.30224095798492434,0.42325502098083495,-9.665238266410828
2026-09-11T19:05:07.453,3.7098838720000344,-317.865234375,-28607.87109375,-114431.484375,-217.737685546875,0.0,0.0,0.0,0.0,0.0,0.0,-0.217132568359375,-1778.75,-78.167724609375,0.0,0.0,-6408.500998127581,1,1789167906.8387556,38.990285156666666,-76.94089626,-9.061,0,1,7.203856000000001,5.148361,31.584400000000002,1,1,1789167907.4457154,-0.7809286203924025,0.6237614427088264,0.010979242585264743,-0.03084815511624907,176.45161848670656,-1.2225423360648866,-77.19387781975456,-0.0007620107514207243,0.0138203896819171,0.010692236063567662,0.05275977787017822,0.4047204521751404,-9.715448315238953
2026-09-11T19:05:07.486,3.743307712000046,-317.865234375,-28607.87109375,-114431.484375,-217.737685546875,0.0,0.0,0.0,0.0,0.0,0.0,-0.21747398376464844,-1781.546875,-78.29063415527344,0.0,0.0,0.0,1,1789167906.8387556,38.990285156666666,-76.94089626,-9.061,0,1,7.203856000000001,5.148361,31.584400000000002,1,1,1789167907.4737155,-0.7810551662179955,0.6236014873710366,0.010099601762015426,-0.031177079995712467,176.48472357534138,-1.3240774773257877,-77.1677308786648,0.0010683160351457291,0.047051109574038734,0.011404504931306547,0.4545382349967957,0.3849110188484192,-9.712015987682342
2026-09-11T19:05:07.520,3.7767278080000324,-317.865234375,-28607.87109375,-114431.484375,-217.737685546875,0.0,0.0,0.0,0.0,0.0,0.0,-0.217376708984375,-1780.75,-78.255615234375,0.0,0.0,0.0,1,1789167906.8387556,38.990285156666666,-76.94089626,-9.061,0,1,7.203856000000001,5.148361,31.584400000000002,1,1,1789167907.5137155,-0.7812942330079868,0.6232734503381672,0.0088005489635073,-0.032125969401076516,176.49181518914594,-1.5067599616311396,-77.11572310567355,0.0015067427432467048,0.059806848412239294,0.006915867161027531,0.21231397600173949,0.40883924524307247,-9.714761849727632
2026-09-11T19:05:07.553,3.8101486400000226,-317.865234375,-28607.87109375,-114431.484375,-217.737685546875,0.0,0.0,0.0,0.0,0.0,0.0,-0.21719741821289062,-1779.28125,-78.19107055664062,0.015258789993822575,5.493164397776127,164.36348436142256,1,1789167906.8387556,38.990285156666666,-76.94089626,-9.061,0,1,7.203856000000001,5.148361,31.584400000000002,1,1,1789167907.5457156,-0.7815074433407044,0.6230158239050325,0.008308343401669305,-0.032068217863318864,176.5316266704697,-1.5455663309767436,-77.07673656302887,0.0004089306437422714,0.05189928517022858,0.010355911116708355,0.2643872883605957,0.3585311299133301,-9.721920704345703
2026-09-11T19:05:07.586,3.8435717120000277,-317.865234375,-28607.87109375,-114431.484375,-217.737685546875,0.0,0.0,0.0,0.0,0.0,0.0,-0.21401023864746094,-1753.171875,-77.04368591308594,0.1068115308880806,38.452151119709015,986.1148227765511,1,1789167906.8387556,38.990285156666666,-76.94089626,-9.061,0,1,7.203856000000001,5.148361,31.584400000000002,1,1,1789167907.5857842,-0.7817452568978064,0.6226965692176711,0.007692597233552884,-0.0326214645613431,176.5252620752725,-1.638839512159902,-77.02820160851746,-0.001270599695451872,0.02721823515192637,0.014553078901904317,0.37059330961227416,0.3921679399681091,-9.668474460964202
2026-09-11T19:05:07.620,3.8769909119999966,-317.865234375,-28607.87109375,-114431.484375,-217.737685546875,0.0,0.0,0.0,0.0,0.0,0.0,-0.20938491821289062,-1715.28125,-75.37857055664062,0.1678466945886612,60.42481005191803,657.4860838149766,1,1789167906.8387556,38.990285156666666,-76.94089626,-9.061,0,1,7.203856000000001,5.148361,31.584400000000002,1,1,1789167907.6137843,-0.7818758950119558,0.6225366728699859,0.0075707569895608635,-0.03257083618555667,176.5381600503648,-1.645434091873878,-77.00451487204452,0.0025593508151244846,0.013505357751932123,0.014357776558606154,0.3039080885124207,0.38373422082901,-9.70524939907074
2026-09-11T19:05:07.653,3.9104113280000092,-317.865234375,-28607.87109375,-114431.484375,-217.737685546875,0.0,0.0,0.0,0.0,0.0,0.0,-0.20109176635742188,-1647.34375,-72.39303588867188,0.2746582329273224,98.87696385383606,1150.5588021975386,1,1789167906.8387556,38.990285156666666,-76.94089626,-9.061,0,1,7.203856000000001,5.148361,31.584400000000002,1,1,1789167907.6457844,-0.7819986669718216,0.6223926903887687,0.007585503039535496,-0.03237103564240228,176.55474404540215,-1.6292122020715774,-76.98355854868232,0.001721767307092406,0.0016149531568703532,0.015379143236873236,0.2832160566711426,0.35490266935348513,-9.710741123161316
2026-09-11T19:05:07.686,3.943831904000035,-317.865234375,-28607.87109375,-114431.484375,-217.737685546875,0.0,0.0,0.0,0.0,0.0,0.0,-0.18764495849609375,-1537.1875,-67.55218505859375,0.5493164658546448,197.75392770767212,2958.5655212453375,1,1789167906.8387556,38.990285156666666,-76.94089626,-9.061,0,1,7.203856000000001,5.148361,31.584400000000002,1,1,1789167907.6857843,-0.782086180556885,0.6222983482070692,0.008767201316668204,-0.03176646316116663,176.52459513844744,-1.4797146083492496,-76.97295405062502,-0.0019303341527057286,-0.04080771777380462,0.023540477352123917,0.2704674114608765,0.45914736057281497,-9.66710152994156
2026-09-11T19:05:07.721,3.9772574720000193,-317.865234375,-28607.87109375,-114431.484375,-217.737685546875,0.0,0.0,0.0,0.0,0.0,0.0,-0.1719684600830078,-1408.765625,-61.90864562988281,0.3204346299171448,115.35646677017212,-2465.102790101845,1,1789167906.8387556,38.990285156666666,-76.94089626,-9.061,0,1,7.203856000000001,5.148361,31.584400000000002,1,1,1789167907.7137842,-0.7820150955155913,0.6223859758666391,0.009422165135579537,-0.03161186856909002,176.4919428367254,-1.4103643966306822,-76.98759243571484,0.0011915362803365287,-0.059883293833476646,0.03141540293712233,0.3633363884925842,0.45542083351135254,-9.67543718257904
2026-09-11T19:05:07.754,4.010677439999995,-317.865234375,-28607.87109375,-114431.484375,-217.737685546875,0.0,0.0,0.0,0.0,0.0,0.0,-0.14924240112304688,-1222.59375,-53.727264404296875,0.9918214082717896,357.05570697784424,7232.180479881028,1,1789167906.8387556,38.990285156666666,-76.94089626,-9.061,0,1,7.203856000000001,5.148361,31.584400000000002,1,1,1789167907.7457843,-0.7818893395921162,0.622551194149739,0.009205592942216264,-0.031532972481525604,176.51476654994107,-1.4248791543787738,-77.01123227868904,0.002108008670558751,-0.06406039033227467,0.028336118537828737,0.5113187394332885,0.3804980262756348,-9.765364164562225
2026-09-11T19:05:07.787,4.04409376000001,-317.865234375,-28607.87109375,-114431.484375,-217.737685546875,0.0,0.0,0.0,0.0,0.0,0.0,-0.1423664093017578,-1166.265625,-51.25190734863281,-0.1678467094898224,-60.42481541633606,-12493.312321464336,1,1789167906.8387556,38.990285156666666,-76.94089626,-9.061,0,1,7.203856000000001,5.148361,31.584400000000002,1,1,1789167907.7857842,-0.7818795210670039,0.6225896606529145,0.010276824330009315,-0.030674351921625743,176.51549163127459,-1.2677491710036621,-77.02017283199936,0.0005434955290710342,-0.05275222757567821,0.02501370977373233,0.2558555027198791,0.4055049841880798,-9.705837798080445
2026-09-11T19:05:07.821,4.0775137920000475,-317.865234375,-28607.87109375,-114431.484375,-217.737685546875,0.0,0.0,0.0,0.0,0.0,0.0,-0.13623428344726562,-1116.03125,-49.044342041015625,0.09155276417732239,32.95899510383606,2794.246591986108,1,1789167906.8387556,38.990285156666666,-76.94089626,-9.061,0,1,7.203856000000001,5.148361,31.584400000000002,1,1,1789167907.8137844,-0.7818731681737365,0.6225974056899768,0.009572766987053326,-0.030906009937968763,176.54493135198203,-1.34741289889677,-77.01924421699071,-0.0005619960191421741,-0.0007426375967235872,0.016008334432217188,0.11728753593444824,0.3209716597938538,-9.65405868522644
2026-09-11T19:05:07.854,4.110928544000046,-317.865234375,-28607.87109375,-114431.484375,-217.737685546875,0.0,0.0,0.0,0.0,0.0,0.0,-0.132476806640625,-1085.25,-47.691650390625,0.04577639698982239,16.47950291633606,-493.18014353362867,1,1789167907.8398821,38.99028535,-76.94089614,-9.079999999999998,0,1,7.279204,6.1652890000000005,37.552384,1,1,1789167907.8457842,-0.7820018128064179,0.6224499383284953,0.008691151492681735,-0.030882081018935078,176.60968900143877,-1.4240674252000405,-76.99532364325825,0.00017034413499464655,0.028263512840945776,0.007341727498514148,-0.014611908740997314,0.3481360807418823,-9.550304326515198
2026-09-11T19:05:07.888,4.144342015999996,-317.865234375,-28607.87109375,-114431.484375,-217.737685546875,0.0,0.0,0.0,0.0,0.0,0.0,-0.12977981567382812,-1063.15625,-46.720733642578125,0.06103518605232239,21.97266697883606,164.39967874359982,1,1789167907.8398821,38.99028535,-76.94089614,-9.079999999999998,0,1,7.279204,6.1652890000000005,37.552384,1,1,1789167907.8857844,-0.78227396880097,0.6220748405462103,0.008487302226757268,-0.03159582562140019,176.5594413506238,-1.4916432481793445,-76.93958799144815,0.0013311626204960752,0.04248881890932556,0.011604345130659898,0.37343723815917973,0.4214898239517212,-9.635229916915893
2026-09-11T19:05:07.921,4.177761728000007,-317.865234375,-28607.87109375,-114431.484375,-217.737685546875,0.0,0.0,0.0,0.0,0.0,0.0,-0.12757301330566406,-1045.078125,-45.92628479003906,0.07629397511482239,27.46583104133606,164.36898266801788,1,1789167907.8398821,38.99028535,-76.94089614,-9.079999999999998,0,1,7.279204,6.1652890000000005,37.552384,1,1,1789167907.9137843,-0.7824557168744665,0.6218220732482956,0.007863803004505066,-0.03222609119893991,176.54675665798757,-1.5914020539590714,-76.90076192003828,0.0009096656061394446,0.04140723837186467,0.009817651575393303,0.35627560037612915,0.3989345285797119,-9.714859916229248
2026-09-11T19:05:07.954,4.2111748480000415,-317.865234375,-28607.87109375,-114431.484375,-217.737685546875,0.0,0.0,0.0,0.0,0.0,0.0,-0.12384414672851562,-1014.53125,-44.583892822265625,0.1525879204273224,54.93165135383606,822.0070532913967,1,1789167907.8398821,38.99028535,-76.94089614,-9.079999999999998,0,1,7.279204,6.1652890000000005,37.552384,1,1,1789167907.9457843,-0.7827072274101032,0.6214977695535837,0.007845796348243277,-0.0323784199671868,176.53369244811842,-1.6024457571028339,-76.8531945739281,0.0003373721444105039,0.03135204748527494,0.004560196269610784,0.28115666013717655,0.42403955299377444,-9.693677551879883
2026-09-11T19:05:07.988,4.24458729600002,-317.865234375,-28607.87109375,-114431.484375,-217.737685546875,0.0,0.0,0.0,0.0,0.0,0.0,-0.11684608459472656,-957.203125,-42.06459045410156,0.2441406548023224,87.89063572883606,986.4283028594924,1,1789167907.8398821,38.99028535,-76.94089614,-9.079999999999998,0,1,7.279204,6.1652890000000005,37.552384,1,1,1789167907.9857843,-0.7829539218994179,0.6211626714628704,0.007556247830468768,-0.03290888758610062,176.50592468537263,-1.6647429251971604,-76.80322704996665,0.0006335545184739416,0.006692639549697456,0.006258401631801267,0.37275077264785766,0.4193323609161377,-9.6532741532135
2026-09-11T19:05:08.021,4.278008671999999,-317.865234375,-28607.87109375,-114431.484375,-217.737685546875,0.0,0.0,0.0,0.0,0.0,0.0,-0.11292457580566406,-925.078125,-40.65284729003906,0.015258789993822575,5.493164397776127,-2465.41229574489,1,1789167907.8398821,38.99028535,-76.94089614,-9.079999999999998,0,1,7.279204,6.1652890000000005,37.552384,1,1,1789167908.0137842,-0.7831009330951074,0.6209842637125974,0.007683559106958455,-0.032748064467162136,176.51095011696745,-1.6410643855410925,-76.7775203766186,0.0015318754844754231,-0.014004347385077302,0.010832909601278405,0.295572435874939,0.40138619112014773,-9.708877859630585
2026-09-11T19:05:08.055,4.311420704,-317.865234375,-28607.87109375,-114431.484375,-217.737685546875,0.0,0.0,0.0,0.0,0.0,0.0,-0.10988426208496094,-900.171875,-39.55833435058594,0.0915527492761612,32.95898973941803,822.0339709252346,1,1789167907.8398821,38.99028535,-76.94089614,-9.079999999999998,0,1,7.279204,6.1652890000000005,37.552384,1,1,1789167908.0457842,-0.7832653653033028,0.6207805205251992,0.007648676378106602,-0.032686550787887715,176.51853595364068,-1.6389092180993001,-76.74767655991656,-0.0005098106745075436,-0.025392795287265502,0.007267376472379189,0.4621874221229553,0.3758889006996155,-9.664159534893036
2026-09-11T19:05:08.088,4.344833728000026,-317.865234375,-28607.87109375,-114431.484375,-217.737685546875,0.0,0.0,0.0,0.0,0.0,0.0,-0.109466552734375,-896.75,-39.407958984375,0.0,0.0,-986.4114585795066,1,1789167907.8398821,38.99028535,-76.94089614,-9.079999999999998,0,1,7.279204,6.1652890000000005,37.552384,1,1,1789167908.0857842,-0.7835468396517113,0.6204564345314196,0.0068159103314535995,-0.03227547500389505,176.61401913528897,-1.6830123173400342,-76.69857366976872,0.0024013985178189977,-0.022593985298767393,-0.0028776988706882504,0.443947052822113,0.3080268815803528,-9.6617078723526
2026-09-11T19:05:08.122,4.378252000000032,-317.865234375,-28607.87109375,-114431.484375,-217.737685546875,0.0,0.0,0.0,0.0,0.0,0.0,-0.11044502258300781,-904.765625,-39.76020812988281,-0.015258789993822575,-5.493164397776127,-164.37607539298182,1,1789167907.8398821,38.99028535,-76.94089614,-9.079999999999998,0,1,7.279204,6.1652890000000005,37.552384,1,1,1789167908.1137843,-0.7838416251238965,0.6201056093187601,0.006658794096895522,-0.03189044489676256,176.65907361865536,-1.6682308628132942,-76.64715191546308,0.0014378022377929285,-0.014895512501145606,-0.007695156672042999,0.3598059944343567,0.33244544048309327,-9.675731382083892
2026-09-11T19:05:08.155,4.411669728000049,-317.865234375,-28607.87109375,-114431.484375,-217.737685546875,0.0,0.0,0.0,0.0,0.0,0.0,-0.11171150207519531,-915.140625,-40.21614074707031,-0.0457763709127903,-16.479493528604507,-328.7575125042188,1,1789167907.8398821,38.99028535,-76.94089614,-9.079999999999998,0,1,7.279204,6.1652890000000005,37.552384,1,1,1789167908.1457844,-0.7842303587977477,0.6196300920291968,0.006789567366159925,-0.03154671404164754,176.6797274939723,-1.6300222077704354,-76.57815175890649,-0.0011746065865921838,-0.015347552777412137,-0.01314547086017089,0.320579393787384,0.36402285400390627,-9.705445532073975
2026-09-11T19:05:08.188,4.445084575999999,-317.865234375,-28607.87109375,-114431.484375,-217.737685546875,0.0,0.0,0.0,0.0,0.0,0.0,-0.11266517639160156,-922.953125,-40.55946350097656,-0.0915527418255806,-32.958987057209015,-493.17876677545354,1,1789167907.8398821,38.99028535,-76.94089614,-9.079999999999998,0,1,7.279204,6.1652890000000005,37.552384,1,1,1789167908.1857843,-0.7847005296455076,0.6190422215101455,0.007167503817459126,-0.03131187715341274,176.67286407881352,-1.5768677476508404,-76.49329477021007,0.0029206339702873107,-0.016142026652919955,-0.01250842568319296,0.3442134206771851,0.40609338319778443,-9.69760021194458
2026-09-11T19:05:08.222,4.478511647999994,-317.865234375,-28607.87109375,-114431.484375,-217.737685546875,0.0,0.0,0.0,0.0,0.0,0.0,-0.11650848388671875,-954.4375,-41.94305419921875,-0.1220703274011612,-43.94531786441803,-328.6656637832555,1,1789167907.8398821,38.99028535,-76.94089614,-9.079999999999998,0,1,7.279204,6.1652890000000005,37.552384,1,1,1789167908.2137842,-0.7850308954137465,0.6186251310076216,0.007681738383951401,-0.031151748379427104,176.6500187457642,-1.5174673232890934,-76.43371460692906,0.00035499996985564663,-0.018696839611989254,-0.015098668826077745,0.2773320665740967,0.43649399869918826,-9.70103253950119
2026-09-11T19:05:08.255,4.511930464000045,-317.865234375,-28607.87109375,-114431.484375,-217.737685546875,0.0,0.0,0.0,0.0,0.0,0.0,-0.12005424499511719,-983.484375,-43.21952819824219,-0.1373291164636612,-49.43848192691803,-164.3733896045763,1,1789167907.8398821,38.99028535,-76.94089614,-9.079999999999998,0,1,7.279204,6.1652890000000005,37.552384,1,1,1789167908.2457843,-0.7853824287125166,0.6181836359683464,0.008676420417532736,-0.03079208695951097,176.6111546567619,-1.4005464279356867,-76.37195646833372,0.0004698426346368735,-0.02080956067152839,-0.01177905258878453,0.22172836015701294,0.462579688129425,-9.696325347423553
2026-09-11T19:05:08.289,4.5453481280000005,-317.865234375,-28607.87109375,-114431.484375,-217.737685546875,0.0,0.0,0.0,0.0,0.0,0.0,-0.1274871826171875,-1044.375,-45.8953857421875,-0.3662109673023224,-131.83594822883606,-2465.6860007338564,1,1789167907.8398821,38.99028535,-76.94089614,-9.079999999999998,0,1,7.279204,6.1652890000000005,37.552384,1,1,1789167908.2857842,-0.7857969702410758,0.6176354700471257,0.009026860790537484,-0.03111371858007721,176.55637531674137,-1.3894048497674,-76.29284013259763,0.0031339132048810183,-0.007575427085356187,-0.008518079414358325,0.3715739746284485,0.45561696651458744,-9.691912354850768
2026-09-11T19:05:08.322,4.578765056000009,-317.865234375,-28607.87109375,-114431.484375,-217.737685546875,0.0,0.0,0.0,0.0,0.0,0.0,-0.14110374450683594,-1155.921875,-50.79734802246094,-0.3814697563648224,-137.32911229133606,-164.3826764237167,1,1789167907.8398821,38.99028535,-76.94089614,-9.079999999999998,0,1,7.279204,6.1652890000000005,37.552384,1,1,1789167908.3137844,-0.7861291981599309,0.6172002958565213,0.008514849037181816,-0.03149882443712526,176.55705632754982,-1.4608926783028326,-76.22793392340262,0.0002665117767795341,0.007474197988740517,-0.01999396831207144,0.39971906059265133,0.3968751320457458,-9.694658216896057
2026-09-11T19:05:08.355,4.612177631999998,-317.865234375,-28607.87109375,-114431.484375,-217.737685546875,0.0,0.0,0.0,0.0,0.0,0.0,-0.1443195343017578,-1182.265625,-51.95503234863281,0.0,0.0,4110.102504260079,1,1789167907.8398821,38.99028535,-76.94089614,-9.079999999999998,0,1,7.279204,6.1652890000000005,37.552384,1,1,1789167908.3457842,-0.7865960987838937,0.6166285551011236,0.00799991483035535,-0.03117376741053913,176.6217179756708,-1.4818264106767838,-76.14352619617092,0.0011522663721666563,0.023452512757823406,-0.02417699893032625,0.18456115604400636,0.3296995784378052,-9.679457909145356
2026-09-11T19:05:08.389,4.645592832000034,-317.865234375,-28607.87109375,-114431.484375,-217.737685546875,0.0,0.0,0.0,0.0,0.0,0.0,-0.14762115478515625,-1209.3125,-53.14361572265625,-0.030517593026161194,-10.98633348941803,-328.7825148257753,1,1789167907.8398821,38.99028535,-76.94089614,-9.079999999999998,0,1,7.279204,6.1652890000000005,37.552384,1,1,1789167908.3857844,-0.787078024848341,0.6160685428575128,0.00913600545649332,-0.029736622312461346,176.67031367208781,-1.2754003373195788,-76.06554000678638,0.001182809634076557,0.0031202996367154625,-0.00725166850911124,0.038736268138885505,0.3867742823791504,-9.67739851261139
2026-09-11T19:05:08.422,4.679017664000014,-317.865234375,-28607.87109375,-114431.484375,-217.737685546875,0.0,0.0,0.0,0.0,0.0,0.0,-0.1476154327392578,-1209.265625,-53.14155578613281,0.0,0.0,328.6877699018669,1,1789167907.8398821,38.99028535,-76.94089614,-9.079999999999998,0,1,7.279204,6.1652890000000005,37.552384,1,1,1789167908.4137843,-0.787288427915634,0.6158080208463671,0.009480306422970835,-0.029453972932970456,176.6711406372787,-1.223272709957744,-76.02867636985548,0.0006012659273120465,-0.020204629552787158,0.0010981611653548323,0.3016525589752197,0.4005035926055908,-9.67965404214859
2026-09-11T19:05:08.455,4.712432223999997,-317.865234375,-28607.87109375,-114431.484375,-217.737685546875,0.0,0.0,0.0,0.0,0.0,0.0,-0.147430419921875,-1207.75,-53.074951171875,0.0,0.0,0.0,1,1789167907.8398821,38.99028535,-76.94089614,-9.079999999999998,0,1,7.279204,6.1652890000000005,37.552384,1,1,1789167908.4457843,-0.787506597513836,0.6155322208705848,0.00894287628788428,-0.02955450737207399,176.6995245811209,-1.2777075273493281,-75.987095477792,0.0002694788365079245,-0.023276932635072772,-0.0036048030370690884,0.32793438140869136,0.3868723488807678,-9.70299386953354
2026-09-11T19:05:08.490,4.745848960000046,-317.865234375,-28607.87109375,-114431.484375,-217.737685546875,0.0,0.0,0.0,0.0,0.0,0.0,-0.147430419921875,-1207.75,-53.074951171875,0.0,0.0,0.0,1,1789167907.8398821,38.99028535,-76.94089614,-9.079999999999998,0,1,7.279204,6.1652890000000005,37.552384,1,1,1789167908.4857843,-0.787849000926852,0.6151187702810229,0.009584739999862554,-0.028826774805000992,176.71941890489546,-1.1666871440961497,-75.92897754891374,0.00036896260387160124,-0.013240242238554183,-0.00044767695313654553,0.20819518293380737,0.3609827924537659,-9.720449706821443
2026-09-11T19:05:08.522,4.779264640000008,-317.865234375,-28607.87109375,-114431.484375,-217.737685546875,0.0,0.0,0.0,0.0,0.0,0.0,-0.147430419921875,-1207.75,-53.074951171875,0.0,0.0,0.0,1,1789167907.8398821,38.99028535,-76.94089614,-9.079999999999998,0,1,7.279204,6.1652890000000005,37.552384,1,1,1789167908.5137842,-0.7880384859259432,0.6148854452711803,0.00932364344214686,-0.028710687316279366,176.7479648049216,-1.181109393888568,-75.89440629882856,0.0005960299395560636,-0.0113268377795928,-0.0005534439058074019,0.29047297779083253,0.38353808782577514,-9.693971751384735
2026-09-11T19:05:08.556,4.812684192000006,-317.865234375,-28607.87109375,-114431.484375,-217.737685546875,0.0,0.0,0.0,0.0,0.0,0.0,-0.147430419921875,-1207.75,-53.074951171875,0.0,0.0,0.0,1,1789167907.8398821,38.99028535,-76.94089614,-9.079999999999998,0,1,7.279204,6.1652890000000005,37.552384,1,1,1789167908.5457842,-0.7882762179924095,0.6145810543995175,0.009572600288154192,-0.028619871496633836,176.73819532287882,-1.1509637096544274,-75.85088554859367,0.0012020082558484948,0.002744530248761083,-0.001544441855089782,0.17632356990814207,0.4172729643821716,-9.68995102481842
2026-09-11T19:05:08.589,4.846105664000049,-317.865234375,-28607.87109375,-114431.484375,-217.737685546875,0.0,0.0,0.0,0.0,0.0,0.0,-0.147430419921875,-1207.75,-53.074951171875,0.0,0.0,0.0,1,1789167907.8398821,38.99028535,-76.94089614,-9.079999999999998,0,1,7.279204,6.1652890000000005,37.552384,1,1,1789167908.5857842,-0.7885757814450185,0.6142010622451315,0.009303332214773518,-0.028613634250689076,176.7571537654446,-1.1732866611612855,-75.79497219025222,-0.00018011797880581478,0.015720529638563324,0.0008679522370167802,0.2846870541954041,0.35921759542465215,-9.70024800748825
2026-09-11T19:05:08.622,4.879546144000017,-317.865234375,-28607.87109375,-114431.484375,-217.737685546875,0.0,0.0,0.0,0.0,0.0,0.0,-0.147430419921875,-1207.75,-53.074951171875,0.0,0.0,0.0,1,1789167907.8398821,38.99028535,-76.94089614,-9.079999999999998,0,1,7.279204,6.1652890000000005,37.552384,1,1,1789167908.6137843,-0.7887616403603791,0.6139661376922865,0.009032522408611382,-0.028619399053062624,176.77533158428938,-1.1972061926770077,-75.76014417498229,0.0008953539062730911,0.016760571339826745,0.0009456193887305278,0.24173392648696898,0.38912787841796875,-9.707406862106323
2026-09-11T19:05:08.656,4.912966400000016,-317.865234375,-28607.87109375,-114431.484375,-217.737685546875,0.0,0.0,0.0,0.0,0.0,0.0,-0.147430419921875,-1207.75,-53.074951171875,0.0,0.0,0.0,1,1789167907.8398821,38.99028535,-76.94089614,-9.079999999999998,0,1,7.279204,6.1652890000000005,37.552384,1,1,1789167908.6457844,-0.7889712688267664,0.6136942397758806,0.00882337548249629,-0.02873786834267814,176.7788982685941,-1.2233434608815343,-75.72008688940011,0.001636595239595083,0.017182941018809374,0.002459867047760808,0.25762069974899293,0.38030189327239994,-9.681321172676085
2026-09-11T19:05:08.689,4.946391584000025,-317.865234375,-28607.87109375,-114431.484375,-217.737685546875,0.0,0.0,0.0,0.0,0.0,0.0,-0.147430419921875,-1207.75,-53.074951171875,0.0,0.0,0.0,1,1789167907.8398821,38.99028535,-76.94089614,-9.079999999999998,0,1,7.279204,6.1652890000000005,37.552384,1,1,1789167908.6857843,-0.7892520257893793,0.6133371203995979,0.008295590211473075,-0.028809715554543026,176.8089228070794,-1.274679165900005,-75.66689967314585,-0.0011672762037338075,0.01535278876516812,0.003491356635689457,0.2637008228492737,0.3517645413017273,-9.708485593624115
2026-09-11T19:05:08.723,4.9798157760000095,-317.865234375,-28607.87109375,-114431.484375,-217.737685546875,0.0,0.0,0.0,0.0,0.0,0.0,-0.147430419921875,-1207.75,-53.074951171875,0.0,0.0,0.0,1,1789167907.8398821,38.99028535,-76.94089614,-9.079999999999998,0,1,7.279204,6.1652890000000005,37.552384,1,1,1789167908.7137842,-0.7894330564154007,0.6130928373615869,0.00803074028178546,-0.029122661710156924,176.7987794870352,-1.3196572069184436,-75.63068141979892,0.0029204594373621116,0.010097776920338392,0.0026888542456224643,0.3330338394927978,0.40364172065734866,-9.674358451061249
2026-09-11T19:05:08.756,5.013247392000039,-317.865234375,-28607.87109375,-114431.484375,-217.737685546875,0.0,0.0,0.0,0.0,0.0,0.0,-0.147430419921875,-1207.75,-53.074951171875,0.0,0.0,0.0,1,1789167907.8398821,38.99028535,-76.94089614,-9.079999999999998,0,1,7.279204,6.1652890000000005,37.552384,1,1,1789167908.7457843,-0.7896343564816656,0.6128209814076502,0.0077400410166969975,-0.029463868982373107,176.78781296175376,-1.368843282975488,-75.59040490222736,0.0018791960056222946,0.007299839596466283,0.001339540200905648,0.295572435874939,0.40334752115249634,-9.673573919048309
2026-09-11T19:05:08.790,5.046663264000017,-317.865234375,-28607.87109375,-114431.484375,-217.737685546875,0.0,0.0,0.0,0.0,0.0,0.0,-0.147430419921875,-1207.75,-53.074951171875,0.0,0.0,0.0,1,1789167907.8398821,38.99028535,-76.94089614,-9.079999999999998,0,1,7.279204,6.1652890000000005,37.552384,1,1,1789167908.7857842,-0.7899223700782376,0.6124432165923792,0.007646604484061257,-0.029622375661382528,176.77934512574305,-1.3868994588133126,-75.5353375124148,0.00019093902016817965,0.001075122819228507,0.00014206980111233842,0.328522780418396,0.40011132659912113,-9.69760021194458
2026-09-11T19:05:08.823,5.08007875200002,-317.865234375,-28607.87109375,-114431.484375,-217.737685546875,0.0,0.0,0.0,0.0,0.0,0.0,-0.147430419921875,-1207.75,-53.074951171875,0.0,0.0,0.0,1,1789167907.8398821,38.99028535,-76.94089614,-9.079999999999998,0,1,7.279204,6.1652890000000005,37.552384,1,1,1789167908.8137844,-0.7900978492836107,0.6122052254684353,0.007493415667081978,-0.02989981920004729,176.76451278451952,-1.4192806941024643,-75.50035336315145,0.0026417303558186173,-0.0035348153340641155,0.0012557643968099201,0.315578002204895,0.43159067361831666,-9.687597428779602
2026-09-11T19:05:08.856,5.113498944000014,-317.865234375,-28607.87109375,-114431.484375,-217.737685546875,0.0,0.0,0.0,0.0,0.0,0.0,-0.147430419921875,-1207.75,-53.074951171875,0.0,0.0,0.0,1,1789167908.8399014,38.990285505,-76.94089627833333,-9.117999999999999,0,1,7.279204,6.1652890000000005,37.552384,1,1,1789167908.8537843,-0.7903728887261938,0.6118461608062011,0.007567608729006451,-0.029961701744871068,176.75305574366715,-1.4154321576682944,-75.44846685338834,-0.0014557791290884703,-0.00651915382204922,-0.0019278906917529364,0.3083210810852051,0.40501465167999273,-9.689362625808716
2026-09-11T19:05:08.890,5.146917472000041,-317.865234375,-28607.87109375,-114431.484375,-217.737685546875,0.0,0.0,0.0,0.0,0.0,0.0,-0.147430419921875,-1207.75,-53.074951171875,0.0,0.0,0.0,1,1789167908.8399014,38.990285505,-76.94089627833333,-9.117999999999999,0,1,7.279204,6.1652890000000005,37.552384,1,1,1789167908.8857844,-0.7905923624626445,0.611564738565024,0.007599572104012187,-0.02990875228865618,176.75511798978616,-1.4076668188510335,-75.40779705051438,0.00023649211364523164,-0.008174075018790243,-0.0028733355475582647,0.2848831871986389,0.4276680135536194,-9.68691096326828
2026-09-11T19:05:08.923,5.18032867200003,-317.865234375,-28607.87109375,-114431.484375,-217.737685546875,0.0,0.0,0.0,0.0,0.0,0.0,-0.147430419921875,-1207.75,-53.074951171875,0.0,0.0,0.0,1,1789167908.8399014,38.990285505,-76.94089627833333,-9.117999999999999,0,1,7.279204,6.1652890000000005,37.552384,1,1,1789167908.9137843,-0.7907803525052288,0.6113215269484019,0.007741235202175531,-0.029874706002311804,176.74785545542989,-1.3914426411333103,-75.37292665666988,0.002747148242639075,-0.0048939032225921,-0.00020751964806212578,0.28645225122451784,0.4181555628967285,-9.697502145442963
2026-09-11T19:05:08.956,5.213744064000025,-317.865234375,-28607.87109375,-114431.484375,-217.737685546875,0.0,0.0,0.0,0.0,0.0,0.0,-0.147430419921875,-1207.75,-53.074951171875,0.0,0.0,0.0,1,1789167908.8399014,38.990285505,-76.94089627833333,-9.117999999999999,0,1,7.279204,6.1652890000000005,37.552384,1,1,1789167908.9537842,-0.7910705083246102,0.6109560263903487,0.00770346287687223,-0.029678971277032572,176.76762772328075,-1.3796511456916367,-75.32000251746588,-0.0005599016240397809,-0.003797487386489262,-0.0033372440627383575,0.26801574892044067,0.38422455333709715,-9.70524939907074
2026-09-11T19:05:08.990,5.2471595840000305,-317.865234375,-28607.87109375,-114431.484375,-217.737685546875,0.0,0.0,0.0,0.0,0.0,0.0,-0.147430419921875,-1207.75,-53.074951171875,0.0,0.0,0.0,1,1789167908.8399014,38.990285505,-76.94089627833333,-9.117999999999999,0,1,7.279204,6.1652890000000005,37.552384,1,1,1789167908.9857843,-0.7912949258869871,0.610670029017038,0.00772988762580273,-0.02957540808053454,176.7746863230399,-1.368834073634525,-75.27871586428374,0.0005654866776461627,-9.599310885968812e-05,-0.0009909979492823803,0.27762626607894897,0.39599253353118896,-9.691618155345916
2026-09-11T19:05:09.023,5.280566560000011,-317.865234375,-28607.87109375,-114431.484375,-217.737685546875,0.0,0.0,0.0,0.0,0.0,0.0,-0.147430419921875,-1207.75,-53.074951171875,0.0,0.0,0.0,1,1789167908.8399014,38.990285505,-76.94089627833333,-9.117999999999999,0,1,7.279204,6.1652890000000005,37.552384,1,1,1789167909.0137842,-0.7914892023282643,0.6104237933732566,0.007614720581544502,-0.02948984760959,176.7900860795773,-1.3722889742516637,-75.24284707974725,0.002327571090459638,0.00602051325475444,0.0023061035406601077,0.2844909211921692,0.3725546396446228,-9.71436958372116
2026-09-11T19:05:09.057,5.31398944,-317.865234375,-28607.87109375,-114431.484375,-217.737685546875,0.0,0.0,0.0,0.0,0.0,0.0,-0.147430419921875,-1207.75,-53.074951171875,0.0,0.0,0.0,1,1789167908.8399014,38.990285505,-76.94089627833333,-9.117999999999999,0,1,7.279204,6.1652890000000005,37.552384,1,1,1789167909.0537844,-0.791788060214863,0.6100420804018275,0.0074384031670249465,-0.029410848313491833,176.80892543812857,-1.381216028108651,-75.18724729742159,0.0007539822368615504,0.0036681584889164823,-0.0012027063875492926,0.2866483842277527,0.38873561241149907,-9.700738339996338
2026-09-11T19:05:09.090,5.347415232000003,-317.865234375,-28607.87109375,-114431.484375,-217.737685546875,0.0,0.0,0.0,0.0,0.0,0.0,-0.147430419921875,-1207.75,-53.074951171875,0.0,0.0,0.0,1,1789167908.8399014,38.990285505,-76.94089627833333,-9.117999999999999,0,1,7.279204,6.1652890000000005,37.552384,1,1,1789167909.0857842,-0.7920157333706448,0.6097410572976277,0.007398130177281777,-0.02953284288399221,176.80012555209782,-1.3921896729056586,-75.14356648019108,0.00088645272708792,0.0032409018880282703,0.00030141836181942074,0.2963569678878784,0.39246213947296144,-9.70142480550766
2026-09-11T19:05:09.124,5.380831808000039,-317.865234375,-28607.87109375,-114431.484375,-217.737685546875,0.0,0.0,0.0,0.0,0.0,0.0,-0.147430419921875,-1207.75,-53.074951171875,0.0,0.0,0.0,1,1789167908.8399014,38.990285505,-76.94089627833333,-9.117999999999999,0,1,7.279204,6.1652890000000005,37.552384,1,1,1789167909.1137843,-0.7921942888077541,0.6095144513580584,0.00724170876064975,-0.02946014291016363,176.8172588096115,-1.4003958538573957,-75.11047398990569,0.001131496954067924,0.006129770865929285,0.0009313076888641742,0.29194397531509403,0.38216515680313107,-9.697796344947815
2026-09-11T19:05:09.157,5.414246976000015,-317.865234375,-28607.87109375,-114431.484375,-217.737685546875,0.0,0.0,0.0,0.0,0.0,0.0,-0.147430419921875,-1207.75,-53.074951171875,0.0,0.0,0.0,1,1789167908.8399014,38.990285505,-76.94089627833333,-9.117999999999999,0,1,7.279204,6.1652890000000005,37.552384,1,1,1789167909.1537843,-0.7924784795867126,0.6091394158832921,0.0071861309425798915,-0.02958700612381119,176.80893716966384,-1.4128001152839675,-75.05608218605717,0.0019142771235873806,-0.003315427447088428,0.0006693337681398254,0.311263076133728,0.41021217626571654,-9.697502145442963
2026-09-11T19:05:09.190,5.447666656000024,-317.865234375,-28607.87109375,-114431.484375,-217.737685546875,0.0,0.0,0.0,0.0,0.0,0.0,-0.147430419921875,-1207.75,-53.074951171875,0.0,0.0,0.0,1,1789167908.8399014,38.990285505,-76.94089627833333,-9.117999999999999,0,1,7.279204,6.1652890000000005,37.552384,1,1,1789167909.1857843,-0.7926826880289433,0.6088741092606934,0.007144212481279963,-0.02958775759040453,176.81132033887673,-1.415593389345038,-75.0176512047678,0.0027584928827770376,-0.004169417050089254,-0.0001319468914507713,0.29331690633773805,0.40275912214279175,-9.693873684883117
2026-09-11T19:05:09.224,5.481090784000003,-317.865234375,-28607.87109375,-114431.484375,-217.737685546875,0.0,0.0,0.0,0.0,0.0,0.0,-0.147430419921875,-1207.75,-53.074951171875,0.0,0.0,0.0,1,1789167908.8399014,38.990285505,-76.94089627833333,-9.117999999999999,0,1,7.279204,6.1652890000000005,37.552384,1,1,1789167909.2137842,-0.7928695380673907,0.6086379253981753,0.007080390510902081,-0.029455720022107838,176.8273634145027,-1.4112279994462982,-74.98344806026587,0.0019465657147492758,-0.0008510225432724351,-0.00047891834674724403,0.29331690633773805,0.3991306615829468,-9.702111271018982
2026-09-11T19:05:09.257,5.514507840000022,-317.865234375,-28607.87109375,-114431.484375,-217.737685546875,0.0,0.0,0.0,0.0,0.0,0.0,-0.147430419921875,-1207.75,-53.074951171875,0.0,0.0,0.0,1,1789167908.8399014,38.990285505,-76.94089627833333,-9.117999999999999,0,1,7.279204,6.1652890000000005,37.552384,1,1,1789167909.2537842,-0.7931479553172729,0.6082728428321489,0.007165261019858027,-0.029480988508571157,176.8185013358919,-1.4038151485254702,-74.93090819810426,0.002952398962673608,-0.00422003159839709,-0.0010522590060273813,0.27909726360321047,0.4047204521751404,-9.668376394462586
2026-09-11T19:05:09.290,5.547923776000005,-317.865234375,-28607.87109375,-114431.484375,-217.737685546875,0.0,0.0,0.0,0.0,0.0,0.0,-0.147430419921875,-1207.75,-53.074951171875,0.0,0.0,0.0,1,1789167908.8399014,38.990285505,-76.94089627833333,-9.117999999999999,0,1,7.279204,6.1652890000000005,37.552384,1,1,1789167909.2857842,-0.7933689437413012,0.6079909479980602,0.007211959606745008,-0.02933792592981288,176.82777674930676,-1.3884640382290476,-74.89038500048797,0.002828829651632409,-0.0040486402658512465,0.00039479347680111736,0.28301992366790774,0.38353808782577514,-9.701522872009278
2026-09-11T19:05:09.324,5.581340128000022,-317.865234375,-28607.87109375,-114431.484375,-217.737685546875,0.0,0.0,0.0,0.0,0.0,0.0,-0.147430419921875,-1207.75,-53.074951171875,0.0,0.0,0.0,1,1789167908.8399014,38.990285505,-76.94089627833333,-9.117999999999999,0,1,7.279204,6.1652890000000005,37.552384,1,1,1789167909.3137844,-0.7935401468141895,0.607777713377536,0.007073584826051479,-0.029159062285962656,176.85332659431674,-1.387731128868788,-74.8593728435986,0.0010435323597674097,0.0007476990515543708,-0.0005866051615952941,0.2903749112892151,0.39314860498428345,-9.697698278446198
2026-09-11T19:05:09.358,5.61476198400004,-317.865234375,-28607.87109375,-114431.484375,-217.737685546875,0.0,0.0,0.0,0.0,0.0,0.0,-0.147430419921875,-1207.75,-53.074951171875,0.0,0.0,0.0,1,1789167908.8399014,38.990285505,-76.94089627833333,-9.117999999999999,0,1,7.279204,6.1652890000000005,37.552384,1,1,1789167909.3537843,-0.7938217126836665,0.6074093823176632,0.007139204966812847,-0.029154116294053147,176.84856856841472,-1.379956482228628,-74.806377764088,0.0021767746430873276,0.0007637560806727186,0.001184031364552953,0.2844909211921692,0.38510715185165406,-9.70524939907074
2026-09-11T19:05:09.391,5.648179424000034,-317.865234375,-28607.87109375,-114431.484375,-217.737685546875,0.0,0.0,0.0,0.0,0.0,0.0,-0.147430419921875,-1207.75,-53.074951171875,0.0,0.0,0.0,1,1789167908.8399014,38.990285505,-76.94089627833333,-9.117999999999999,0,1,7.279204,6.1652890000000005,37.552384,1,1,1789167909.3857844,-0.7940181023351597,0.6071602130874124,0.006967595837416372,-0.02903758626274216,176.8706899377975,-1.38647199214907,-74.7700985262537,0.002034181243199391,0.004462457831499102,0.0011691960659110012,0.28439285469055176,0.38873561241149907,-9.698482810459137
2026-09-11T19:05:09.424,5.681598592,-317.865234375,-28607.87109375,-114431.484375,-217.737685546875,0.0,0.0,0.0,0.0,0.0,0.0,-0.147430419921875,-1207.75,-53.074951171875,0.0,0.0,0.0,1,1789167908.8399014,38.990285505,-76.94089627833333,-9.117999999999999,0,1,7.279204,6.1652890000000005,37.552384,1,1,1789167909.4137843,-0.79419798576869,0.6069234235131037,0.0069356129860857615,-0.02907601528058182,176.8689982536389,-1.391125207328547,-74.73585999622654,0.0010332349171806431,0.004585678076689901,-0.001059414855960558,0.2888058472633362,0.4034455876541138,-9.685636098747253
2026-09-11T19:05:09.458,5.715017952000039,-317.865234375,-28607.87109375,-114431.484375,-217.737685546875,0.0,0.0,0.0,0.0,0.0,0.0,-0.147430419921875,-1207.75,-53.074951171875,0.0,0.0,0.0,1,1789167908.8399014,38.990285505,-76.94089627833333,-9.117999999999999,0,1,7.279204,6.1652890000000005,37.552384,1,1,1789167909.4537842,-0.794456419342261,0.6065846775322322,0.006790678554903451,-0.029118953170665974,176.8745619154338,-1.4059747126433524,-74.68667641750918,0.0020917771085152037,0.004219507999621491,4.956735075663896e-05,0.2979260319137573,0.39030467643737793,-9.710446923656464
2026-09-11T19:05:09.491,5.748440576000007,-317.865234375,-28607.87109375,-114431.484375,-217.737685546875,0.0,0.0,0.0,0.0,0.0,0.0,-0.147430419921875,-1207.75,-53.074951171875,0.0,0.0,0.0,1,1789167908.8399014,38.990285505,-76.94089627833333,-9.117999999999999,0,1,7.279204,6.1652890000000005,37.552384,1,1,1789167909.4857843,-0.794662028581655,0.6063136516540288,0.006714246334407331,-0.029170790949287817,176.8746641338675,-1.4154748855894221,-74.64741811145163,0.0016992525597416793,0.004698426346368735,-0.0005340707511102648,0.2948859703636169,0.4026610556411743,-9.682596037197113
2026-09-11T19:05:09.525,5.78186499200001,-317.865234375,-28607.87109375,-114431.484375,-217.737685546875,0.0,0.0,0.0,0.0,0.0,0.0,-0.147430419921875,-1207.75,-53.074951171875,0.0,0.0,0.0,1,1789167908.8399014,38.990285505,-76.94089627833333,-9.117999999999999,0,1,7.279204,6.1652890000000005,37.552384,1,1,1789167909.5137842,-0.7948253304493517,0.606099293868915,0.006610300550426518,-0.029200068053257887,176.87882911750384,-1.426136798794841,-74.61628568320192,-0.00030630528372500485,-0.0010208430794914833,-0.00034522612604447837,0.30753654907226563,0.40217072313308716,-9.702111271018982
2026-09-11T19:05:09.558,5.815276928000003,-317.865234375,-28607.87109375,-114431.484375,-217.737685546875,0.0,0.0,0.0,0.0,0.0,0.0,-0.147430419921875,-1207.75,-53.074951171875,0.0,0.0,0.0,1,1789167908.8399014,38.990285505,-76.94089627833333,-9.117999999999999,0,1,7.279204,6.1652890000000005,37.552384,1,1,1789167909.5537844,-0.7950872712961062,0.60575942819563,0.006550759683537276,-0.02913475111587214,176.88831171224356,-1.425691842500395,-74.56722403527739,0.0017252579655963947,-0.002438224965036078,-0.00017191493132144144,0.3016525589752197,0.39324667148590087,-9.699169275970458
2026-09-11T19:05:09.591,5.848699871999997,-317.865234375,-28607.87109375,-114431.484375,-217.737685546875,0.0,0.0,0.0,0.0,0.0,0.0,-0.147430419921875,-1207.75,-53.074951171875,0.0,0.0,0.0,1,1789167908.8399014,38.990285505,-76.94089627833333,-9.117999999999999,0,1,7.279204,6.1652890000000005,37.552384,1,1,1789167909.5857842,-0.7952818653213858,0.605505492843963,0.006546885122160554,-0.029103111894159393,176.8910135042066,-1.4228548895536293,-74.53065815262555,0.0007269296334556383,-0.00211446638879113,-0.0025289820861397836,0.2910613768005371,0.40413205316543577,-9.690049091320038
2026-09-11T19:05:09.625,5.88212028800001,-317.865234375,-28607.87109375,-114431.484375,-217.737685546875,0.0,0.0,0.0,0.0,0.0,0.0,-0.147430419921875,-1207.75,-53.074951171875,0.0,0.0,0.0,1,1789167908.8399014,38.990285505,-76.94089627833333,-9.117999999999999,0,1,7.279204,6.1652890000000005,37.552384,1,1,1789167909.6137843,-0.795474100677879,0.605257766050954,0.006710095158319956,-0.028964916859793736,176.89187101162148,-1.3974146038143866,-74.49541283920475,-0.0005752605214573311,-0.005211378613529869,-0.001912008195559788,0.2725268079948425,0.3819690237998962,-9.700738339996338
2026-09-11T19:05:09.658,5.915540480000004,-317.865234375,-28607.87109375,-114431.484375,-217.737685546875,0.0,0.0,0.0,0.0,0.0,0.0,-0.147430419921875,-1207.75,-53.074951171875,0.0,0.0,0.0,1,1789167908.8399014,38.990285505,-76.94089627833333,-9.117999999999999,0,1,7.279204,6.1652890000000005,37.552384,1,1,1789167909.6537843,-0.795721461287572,0.6049406109845116,0.006643096128484897,-0.028811152387305333,176.90999849665954,-1.3916200560979448,-74.44968340579695,0.0023989550568662057,0.002630211182755455,9.285151620609833e-05,0.2814508596420288,0.39236407297134396,-9.699953807983398
2026-09-11T19:05:09.691,5.948958208000022,-317.865234375,-28607.87109375,-114431.484375,-217.737685546875,0.0,0.0,0.0,0.0,0.0,0.0,-0.147430419921875,-1207.75,-53.074951171875,0.0,0.0,0.0,1,1789167908.8399014,38.990285505,-76.94089627833333,-9.117999999999999,0,1,7.279204,6.1652890000000005,37.552384,1,1,1789167909.6857843,-0.7959098218713598,0.6046988439784817,0.006529093239146175,-0.02870948416921563,176.92675894410496,-1.3940318302995571,-74.41468942060882,0.000831649388575298,0.003752981490563407,0.0011620402159778246,0.2798817956161499,0.38873561241149907,-9.706720396595001
2026-09-11T19:05:09.725,5.982375744000024,-317.865234375,-28607.87109375,-114431.484375,-217.737685546875,0.0,0.0,0.0,0.0,0.0,0.0,-0.147430419921875,-1207.75,-53.074951171875,0.0,0.0,0.0,1,1789167908.8399014,38.990285505,-76.94089627833333,-9.117999999999999,0,1,7.279204,6.1652890000000005,37.552384,1,1,1789167909.7137842,-0.7960761302284007,0.6044839065025185,0.006400141880609251,-0.028653792836843862,176.940399638202,-1.4011081303451187,-74.3835122040993,-0.00015184364492350666,0.0009241518389309975,-0.002026152728640217,0.29194397531509403,0.3865781493759155,-9.698482810459137
2026-09-11T19:05:09.759,6.015797600000042,-317.865234375,-28607.87109375,-114431.484375,-217.737685546875,0.0,0.0,0.0,0.0,0.0,0.0,-0.147430419921875,-1207.75,-53.074951171875,0.0,0.0,0.0,1,1789167908.8399014,38.990285505,-76.94089627833333,-9.117999999999999,0,1,7.279204,6.1652890000000005,37.552384,1,1,1789167909.7537842,-0.7963207447269088,0.6041587218660298,0.006364874081646243,-0.02872279040608126,176.93596394344436,-1.4078580680738624,-74.33662842172376,0.0014514158059584844,0.006037093882648385,-0.0013030628195389664,0.28655031772613526,0.40628951620101933,-9.685538032245637
2026-09-11T19:05:09.791,6.049219008000023,-317.865234375,-28607.87109375,-114431.484375,-217.737685546875,0.0,0.0,0.0,0.0,0.0,0.0,-0.147430419921875,-1207.75,-53.074951171875,0.0,0.0,0.0,1,1789167908.8399014,38.990285505,-76.94089627833333,-9.117999999999999,0,1,7.279204,6.1652890000000005,37.552384,1,1,1789167909.7857842,-0.7965244276396255,0.6038875046015421,0.006270807878970974,-0.02879921748997373,176.93500629926368,-1.4206954147556674,-74.29738914291329,0.000554665636283798,0.007888015554388372,-0.0008162904911577479,0.29341497283935547,0.3902066099357605,-9.689460692310334
2026-09-11T19:05:09.825,6.082640576000017,-317.865234375,-28607.87109375,-114431.484375,-217.737685546875,0.0,0.0,0.0,0.0,0.0,0.0,-0.147430419921875,-1207.75,-53.074951171875,0.0,0.0,0.0,1,1789167908.8399014,38.990285505,-76.94089627833333,-9.117999999999999,0,1,7.279204,6.1652890000000005,37.552384,1,1,1789167909.8137844,-0.7966849661019864,0.6036738451271131,0.0062421394123423415,-0.028844222854501052,176.93249361045716,-1.4256069908967943,-74.26658869596733,0.00015428710587629874,-0.0012264428653764154,-0.0002832669375986797,0.292630440826416,0.39834612957000737,-9.695344682407379
2026-09-11T19:05:09.859,6.116060288000028,-317.865234375,-28607.87109375,-114431.484375,-217.737685546875,0.0,0.0,0.0,0.0,0.0,0.0,-0.147430419921875,-1207.75,-53.074951171875,0.0,0.0,0.0,1,1789167909.8393984,38.990285585,-76.94089643,-9.137999999999998,0,1,8.392608999999998,6.3453610000000005,43.059844000000005,1,1,1789167909.8537843,-0.796932196298636,0.6033455333724724,0.006162852496439157,-0.02890088426374112,176.93220489719758,-1.4355061530854187,-74.21920382421261,0.00012042771838760874,0.0014508922071828861,-0.0021507692372326123,0.2978279654121399,0.39834612957000737,-9.69760021194458
2026-09-11T19:05:09.892,6.149475712000026,-317.865234375,-28607.87109375,-114431.484375,-217.737685546875,0.0,0.0,0.0,0.0,0.0,0.0,-0.147430419921875,-1207.75,-53.074951171875,0.0,0.0,0.0,1,1789167909.8393984,38.990285585,-76.94089643,-9.137999999999998,0,1,8.392608999999998,6.3453610000000005,43.059844000000005,1,1,1789167909.8857844,-0.7971106616511072,0.6031177344236094,0.00605804406495042,-0.028755723047315926,176.95231432590313,-1.4341662914318682,-74.18632099350845,-0.0004352851154473858,-0.000398284135305106,-0.0017153095888600273,0.29645503438949583,0.38883367891311643,-9.70524939907074
2026-09-11T19:05:09.926,6.182896319999998,-317.865234375,-28607.87109375,-114431.484375,-217.737685546875,0.0,0.0,0.0,0.0,0.0,0.0,-0.147430419921875,-1207.75,-53.074951171875,0.0,0.0,0.0,1,1789167909.8393984,38.990285585,-76.94089643,-9.137999999999998,0,1,8.392608999999998,6.3453610000000005,43.059844000000005,1,1,1789167909.9137843,-0.7972717483207331,0.602908757567401,0.006022145971060181,-0.028679664154897287,176.96137680907412,-1.4313898798040832,-74.15626065182072,0.0012144000935376546,-0.00531836729667712,-0.0010636036461653445,0.29272850732803346,0.39305053848266597,-9.68043857416153
2026-09-11T19:05:09.959,6.216315520000023,-317.865234375,-28607.87109375,-114431.484375,-217.737685546875,0.0,0.0,0.0,0.0,0.0,0.0,-0.147430419921875,-1207.75,-53.074951171875,0.0,0.0,0.0,1,1789167909.8393984,38.990285585,-76.94089643,-9.137999999999998,0,1,8.392608999999998,6.3453610000000005,43.059844000000005,1,1,1789167909.9537842,-0.7975322311970445,0.6025653168248505,0.006126561264975229,-0.028632925255693394,176.9578319615332,-1.4173072411946306,-74.10717468102217,-0.00046705010783368257,-0.002582040095400411,-0.0014166837538437975,0.28517738670349124,0.3872646148872375,-9.705935864582061
2026-09-11T19:05:09.992,6.2497245760000055,-317.865234375,-28607.87109375,-114431.484375,-217.737685546875,0.0,0.0,0.0,0.0,0.0,0.0,-0.147430419921875,-1207.75,-53.074951171875,0.0,0.0,0.0,1,1789167909.8393984,38.990285585,-76.94089643,-9.137999999999998,0,1,8.392608999999998,6.3453610000000005,43.059844000000005,1,1,1789167909.9857843,-0.7977284515628866,0.6023099598109428,0.006131550470626049,-0.028538289515070068,176.96569785691273,-1.4093414086642926,-74.07056550348416,-0.0011313224211427244,-0.002207143372072029,-0.0032485813367370453,0.2859619187164307,0.39667899904251097,-9.67739851261139
2026-09-11T19:05:10.026,6.283158368000045,-317.865234375,-28607.87109375,-114431.484375,-217.737685546875,0.0,0.0,0.0,0.0,0.0,0.0,-0.147430419921875,-1207.75,-53.074951171875,0.0,0.0,0.0,1,1789167909.8393984,38.990285585,-76.94089643,-9.137999999999998,0,1,8.392608999999998,6.3453610000000005,43.059844000000005,1,1,1789167910.0137842,-0.7978864913084306,0.6020980463158804,0.0061704973819344386,-0.028583466762814737,176.95850150540022,-1.4080930422885265,-74.04020472638534,0.0014006267247254494,-0.002110277598586344,0.0001616174887346749,0.2820392586517334,0.40197459012985226,-9.703582268543244
2026-09-11T19:05:10.059,6.31657958400001,-317.865234375,-28607.87109375,-114431.484375,-217.737685546875,0.0,0.0,0.0,0.0,0.0,0.0,-0.147430419921875,-1207.75,-53.074951171875,0.0,0.0,0.0,1,1789167909.8393984,38.990285585,-76.94089643,-9.137999999999998,0,1,8.392608999999998,6.3453610000000005,43.059844000000005,1,1,1789167910.0537844,-0.7981191171261722,0.6017935808273576,0.006119140673621272,-0.028511700583138445,176.96807816658063,-1.4066788134559964,-73.99643476588886,-0.0010719812265749173,0.0008347909812288878,-0.0001869247628885927,0.2874329162406921,0.39314860498428345,-9.693187219371795
2026-09-11T19:05:10.092,6.349992127999997,-317.865234375,-28607.87109375,-114431.484375,-217.737685546875,0.0,0.0,0.0,0.0,0.0,0.0,-0.147430419921875,-1207.75,-53.074951171875,0.0,0.0,0.0,1,1789167909.8393984,38.990285585,-76.94089643,-9.137999999999998,0,1,8.392608999999998,6.3453610000000005,43.059844000000005,1,1,1789167910.0857842,-0.7983120551670833,0.6015376433171613,0.006062777911026626,-0.028523130461877353,176.9704644002227,-1.4116527602064097,-73.95958872809291,-0.0007857472292478471,-0.001361705882405976,-0.0028438394831995606,0.29331690633773805,0.40060165910720824,-9.707308795604707
2026-09-11T19:05:10.126,6.383415488000026,-317.865234375,-28607.87109375,-114431.484375,-217.737685546875,0.0,0.0,0.0,0.0,0.0,0.0,-0.147430419921875,-1207.75,-53.074951171875,0.0,0.0,0.0,1,1789167909.8393984,38.990285585,-76.94089643,-9.137999999999998,0,1,8.392608999999998,6.3453610000000005,43.059844000000005,1,1,1789167910.1137843,-0.7984648148630471,0.6013352167581785,0.0059642128246989515,-0.02853637463827739,176.97568275802212,-1.4208188691772783,-73.93033849427823,0.0014877186543999664,0.003489087707661864,0.0006974335690969341,0.2941014383506775,0.3939331369972229,-9.698384743957519
