timestamp,time_s,drive_pos_turns,drive_encoder_count,drive_wheel_angle_deg,drive_distance_m,drive_distance_since_start_m,drive_velocity_turns_s,drive_velocity_mps,drive_velocity_mph,drive_acceleration_mps2,drive_iq_A,steer_pos_turns,steer_encoder_count,steer_angle_deg,steer_velocity_turns_s,steer_velocity_deg_s,steer_acceleration_deg_s2,gps_received,gps_ros_stamp_s,gps_latitude_deg,gps_longitude_deg,gps_altitude_m,gps_status,gps_service,gps_cov_x_m2,gps_cov_y_m2,gps_cov_z_m2,gps_covariance_type,imu_received,imu_ros_stamp_s,imu_qx,imu_qy,imu_qz,imu_qw,imu_roll_deg,imu_pitch_deg,imu_yaw_deg,imu_gyro_x_rad_s,imu_gyro_y_rad_s,imu_gyro_z_rad_s,imu_accel_x_mps2,imu_accel_y_mps2,imu_accel_z_mps2
2026-09-11T19:05:45.243,8.063999985097325e-06,0.0,0.0,0.0,0.0,0.0,0.0,0.0,0.0,0.0,0.0,0.017057418823242188,139.734375,6.1406707763671875,0.0,0.0,0.0,1,1789167944.84063,38.99028692,-76.94089742,-9.317999999999998,0,1,7.290000000000001,6.180196000000001,37.5769,1,1,1789167945.2375813,-0.8274846212430961,0.5609227864812527,-0.0012381495403207745,-0.025165376969017446,177.69165157775353,-1.7352253483511046,-68.22897334728769,0.0002930407814098479,0.0015194836467862633,-0.0016296139225871055,0.3046926205253601,0.39030467643737793,-9.694756283397675
2026-09-11T19:05:45.276,0.03342406399997344,0.0,0.0,0.0,0.0,0.0,0.0,0.0,0.0,0.0,0.0,0.017057418823242188,139.734375,6.1406707763671875,0.0,0.0,0.0,1,1789167944.84063,38.99028692,-76.94089742,-9.317999999999998,0,1,7.290000000000001,6.180196000000001,37.5769,1,1,1789167945.2655811,-0.8274811728442859,0.5609298146400116,-0.001269658976703596,-0.02512050163213387,177.69795089665834,-1.735348493073951,-68.22995495241182,-0.000685739863108572,-0.002230007185273155,-0.0004967207051175861,0.3053790860366821,0.39324667148590087,-9.694952416400909
2026-09-11T19:05:45.311,0.06683622399998512,0.0,0.0,0.0,0.0,0.0,0.0,0.0,0.0,0.0,0.0,0.017057418823242188,139.734375,6.1406707763671875,0.0,0.0,0.0,1,1789167944.84063,38.99028692,-76.94089742,-9.317999999999998,0,1,7.290000000000001,6.180196000000001,37.5769,1,1,1789167945.305581,-0.8274802248284936,0.5609314741043967,-0.0012894636127841563,-0.02511366481511327,177.69987583094243,-1.7367922579106183,-68.23017355571106,-0.0005431464632206353,0.0025939083343139726,0.0002691297706575256,0.3061636180496216,0.3935408709907532,-9.695442748908997
2026-09-11T19:05:45.344,0.10025385599999481,0.0,0.0,0.0,0.0,0.0,0.0,0.0,0.0,0.0,0.0,0.017057418823242188,139.734375,6.1406707763671875,0.0,0.0,0.0,1,1789167944.84063,38.99028692,-76.94089742,-9.317999999999998,0,1,7.290000000000001,6.180196000000001,37.5769,1,1,1789167945.3375812,-0.8274921596619281,0.5609132839282882,-0.0012439313227366518,-0.025128992134308054,177.69545730057862,-1.7334077629249987,-68.22768108635951,-0.0012473868164003473,0.0014262830647297662,-0.00029251718263424963,0.3016525589752197,0.39589446702957154,-9.691618155345916
2026-09-11T19:05:45.377,0.13365372799995612,0.0,0.0,0.0,0.0,0.0,0.0,0.0,0.0,0.0,0.0,0.017057418823242188,139.734375,6.1406707763671875,0.0,0.0,0.0,1,1789167944.84063,38.99028692,-76.94089742,-9.317999999999998,0,1,7.290000000000001,6.180196000000001,37.5769,1,1,1789167945.365581,-0.8275106148490821,0.5608821377982778,-0.0011631325685222652,-0.02522016918174342,177.6815452911096,-1.7315182053135882,-68.22336653992177,0.00037297686115118824,-0.0008145451619057536,-0.0004796164784480418,0.3066539505577087,0.3955022010231018,-9.694952416400909
2026-09-11T19:05:45.411,0.16705484799996384,0.0,0.0,0.0,0.0,0.0,0.0,0.0,0.0,0.0,0.0,0.017057418823242188,139.734375,6.1406707763671875,0.0,0.0,0.0,1,1789167944.84063,38.99028692,-76.94089742,-9.317999999999998,0,1,7.290000000000001,6.180196000000001,37.5769,1,1,1789167945.4055812,-0.8275265040101153,0.5608565148409513,-0.0010922934681987743,-0.02527175926281299,177.6720431225734,-1.7280428548111804,-68.21984036252012,-0.0014515903388836837,0.0013857914260834976,-0.0014526375364348804,0.30135835947036743,0.39442346950531004,-9.690441357326508
2026-09-11T19:05:45.444,0.20045644800001128,0.0,0.0,0.0,0.0,0.0,0.0,0.0,0.0,0.0,0.0,0.017057418823242188,139.734375,6.1406707763671875,0.0,0.0,0.0,1,1789167944.84063,38.99028692,-76.94089742,-9.317999999999998,0,1,7.290000000000001,6.180196000000001,37.5769,1,1,1789167945.437581,-0.8275397150806911,0.5608377679660383,-0.0010973702332063506,-0.025254975066551968,177.67392361808504,-1.7273926735298226,-68.21725346814081,-0.0007344345492392139,-0.0011091567396423964,-0.00039374627924992076,0.30439842102050785,0.3912853414535522,-9.691912354850768
2026-09-11T19:05:45.479,0.23386687999999367,0.0,0.0,0.0,0.0,0.0,0.0,0.0,0.0,0.0,0.0,0.017057418823242188,139.734375,6.1406707763671875,0.0,0.0,0.0,1,1789167944.84063,38.99028692,-76.94089742,-9.317999999999998,0,1,7.290000000000001,6.180196000000001,37.5769,1,1,1789167945.477581,-0.8275420973030007,0.5608358162569554,-0.0011666206965744454,-0.025217124953010955,177.68196151002888,-1.7315236671162864,-68.21695270433658,0.0015837117632596547,0.0018502235400391887,-0.0003145083312093782,0.3066539505577087,0.39403120349884035,-9.692402687358856
2026-09-11T19:05:45.511,0.26726694399997086,0.0,0.0,0.0,0.0,0.0,0.0,0.0,0.0,0.0,0.0,0.017057418823242188,139.734375,6.1406707763671875,0.0,0.0,0.0,1,1789167944.84063,38.99028692,-76.94089742,-9.317999999999998,0,1,7.290000000000001,6.180196000000001,37.5769,1,1,1789167945.5055811,-0.8275266316299039,0.5608611298289984,-0.001212965386536791,-0.025159405898706057,177.69047141235012,-1.7322802464444285,-68.22046266281686,-0.001326275698590491,-0.0024773203402807514,0.0002234021442552742,0.3079288150787353,0.39236407297134396,-9.697894411449433
2026-09-11T19:05:45.544,0.3006670080000049,0.0,0.0,0.0,0.0,0.0,0.0,0.0,0.0,0.0,0.0,0.017057418823242188,139.734375,6.1406707763671875,0.0,0.0,0.0,1,1789167944.84063,38.99028692,-76.94089742,-9.317999999999998,0,1,7.290000000000001,6.180196000000001,37.5769,1,1,1789167945.5375812,-0.8275378792608702,0.560844419078114,-0.0011882967166469219,-0.025163146231493776,177.6884966719045,-1.7301337341301817,-68.2181671210892,-0.0004892157893340106,-0.0006998770300497261,-0.0012423253615695636,0.30812494808197016,0.3913834079551697,-9.703974534549713
2026-09-11T19:05:45.579,0.33407385599997497,0.0,0.0,0.0,0.0,0.0,0.0,0.0,0.0,0.0,0.0,0.017057418823242188,139.734375,6.1406707763671875,0.0,0.0,0.0,1,1789167944.84063,38.99028692,-76.94089742,-9.317999999999998,0,1,7.290000000000001,6.180196000000001,37.5769,1,1,1789167945.5775812,-0.8275556504932369,0.5608160426619387,-0.0011257001021046458,-0.025213972891990694,177.6795908976695,-1.7273833508039922,-68.21425284418487,-5.777039824101231e-05,0.00298870181111509,-0.0011273081638631373,0.3045945540237427,0.3945215360069275,-9.698678943462372
2026-09-11T19:05:45.612,0.36747299199998906,0.0,0.0,0.0,0.0,0.0,0.0,0.0,0.0,0.0,0.0,0.017057418823242188,139.734375,6.1406707763671875,0.0,0.0,0.0,1,1789167944.84063,38.99028692,-76.94089742,-9.317999999999998,0,1,7.290000000000001,6.180196000000001,37.5769,1,1,1789167945.605581,-0.8275540190863987,0.5608196958319432,-0.0011474690562467667,-0.025185265050816898,177.68372243118048,-1.727613250006654,-68.21476206821856,-0.0009327039522657697,-0.002630211182755455,-0.00010768681484805013,0.30488875352859496,0.39305053848266597,-9.700444140491486
2026-09-11T19:05:45.645,0.4008822719999898,0.0,0.0,0.0,0.0,0.0,0.0,0.0,0.0,0.0,0.0,0.017057418823242188,139.734375,6.1406707763671875,0.0,0.0,0.0,1,1789167944.84063,38.99028692,-76.94089742,-9.317999999999998,0,1,7.290000000000001,6.180196000000001,37.5769,1,1,1789167945.637581,-0.8275619731087173,0.5608081015300939,-0.001129672092043674,-0.025182886323512666,177.6827809135459,-1.7257394025491042,-68.21317408567273,-0.0008740608893987602,-0.0018278833256136614,0.000450294947014537,0.3031235564994812,0.39569833402633664,-9.691422022342682
2026-09-11T19:05:45.678,0.43428835200001004,0.0,0.0,0.0,0.0,0.0,0.0,0.0,0.0,0.0,0.0,0.017057418823242188,139.734375,6.1406707763671875,0.0,0.0,0.0,1,1789167944.84063,38.99028692,-76.94089742,-9.317999999999998,0,1,7.290000000000001,6.180196000000001,37.5769,1,1,1789167945.677581,-0.8275705607866608,0.5607935611007407,-0.001130524072867296,-0.025224406088591424,177.67886328080218,-1.7284487323939899,-68.21112815876528,-2.1642082724729685e-05,0.002224422131666773,-0.0003279473664497345,0.30635975105285645,0.39344280448913577,-9.68769549528122
2026-09-11T19:05:45.711,0.4677019199999677,0.0,0.0,0.0,0.0,0.0,0.0,0.0,0.0,0.0,0.0,0.017057418823242188,139.734375,6.1406707763671875,0.0,0.0,0.0,1,1789167944.84063,38.99028692,-76.94089742,-9.317999999999998,0,1,7.290000000000001,6.180196000000001,37.5769,1,1,1789167945.7055812,-0.8275530772973128,0.5608220803088982,-0.0012325579150444456,-0.025159079767222276,177.6916792167845,-1.7340091434421856,-68.21504002780483,-0.0003469714552964727,-0.0018945549030398446,0.00011990411961201045,0.30488875352859496,0.39599253353118896,-9.692206554355622
2026-09-11T19:05:45.744,0.501101312000003,0.0,0.0,0.0,0.0,0.0,0.0,0.0,0.0,0.0,0.0,0.017057418823242188,139.734375,6.1406707763671875,0.0,0.0,0.0,1,1789167944.84063,38.99028692,-76.94089742,-9.317999999999998,0,1,7.290000000000001,6.180196000000001,37.5769,1,1,1789167945.7375813,-0.8275885267337617,0.5607659287657345,-0.0011160826996787397,-0.02524990917909723,177.67545662213234,-1.7286405372153382,-68.20729546866806,0.0006332054526235428,-0.002436828701634483,-0.0009620254836992745,0.30910561309814455,0.39599253353118896,-9.697894411449433
2026-09-11T19:05:45.778,0.5345021759999895,0.0,0.0,0.0,0.0,0.0,0.0,0.0,0.0,0.0,0.0,0.017057418823242188,139.734375,6.1406707763671875,0.0,0.0,0.0,1,1789167944.84063,38.99028692,-76.94089742,-9.317999999999998,0,1,7.290000000000001,6.180196000000001,37.5769,1,1,1789167945.776581,-0.8275919188017494,0.5607612152543059,-0.0011168327984088565,-0.025243377053263193,177.6761151632139,-1.7282785591699992,-68.20664735100414,-0.0005190609195431136,-0.00017767451785302273,0.00020943951023931956,0.3039080885124207,0.39569833402633664,-9.69112782283783
2026-09-11T19:05:45.812,0.5679089919999569,0.0,0.0,0.0,0.0,0.0,0.0,0.0,0.0,0.0,0.0,0.017057418823242188,139.734375,6.1406707763671875,0.0,0.0,0.0,1,1789167944.84063,38.99028692,-76.94089742,-9.317999999999998,0,1,7.290000000000001,6.180196000000001,37.5769,1,1,1789167945.805581,-0.8275889827819441,0.5607663296338496,-0.0011035655347169434,-0.025226598463487602,177.676866758752,-1.72595554834155,-68.20737992084678,-5.235987755982989e-06,-0.0028600710452431075,0.000871966494296367,0.3058694185447693,0.39373700399398803,-9.698678943462372
2026-09-11T19:05:45.846,0.6013357759999849,0.0,0.0,0.0,0.0,0.0,0.0,0.0,0.0,0.0,0.0,0.017057418823242188,139.734375,6.1406707763671875,0.0,0.0,0.0,1,1789167945.8264909,38.990286865,-76.94089759833334,-9.338999999999999,0,1,9.759376000000001,6.185169,49.815363999999995,1,1,1789167945.8375812,-0.8275816745905531,0.5607791201215594,-0.0011808319599340227,-0.025178481953208674,177.68642471441765,-1.730229022790516,-68.20912131052049,0.0005560618996853934,-0.002229309053572357,0.0008576547944300136,0.3074384825706482,0.39275633897781376,-9.693481418876647
2026-09-11T19:05:45.878,0.6347475839999674,0.0,0.0,0.0,0.0,0.0,0.0,0.0,0.0,0.0,0.0,0.017057418823242188,139.734375,6.1406707763671875,0.0,0.0,0.0,1,1789167945.8264909,38.990286865,-76.94089759833334,-9.338999999999999,0,1,9.759376000000001,6.185169,49.815363999999995,1,1,1789167945.8775811,-0.827578671163421,0.5607856994846561,-0.0012597869361046581,-0.025126783036571298,177.69641838883194,-1.7344148516357483,-68.21000556910796,-0.0007970918693858103,-0.000299498499642227,-0.002374345914413086,0.3031235564994812,0.3955022010231018,-9.695933081417083
2026-09-11T19:05:45.912,0.6681471039999565,0.0,0.0,0.0,0.0,0.0,0.0,0.0,0.0,0.0,0.0,0.017057418823242188,139.734375,6.1406707763671875,0.0,0.0,0.0,1,1789167945.8264909,38.990286865,-76.94089759833334,-9.338999999999999,0,1,9.759376000000001,6.185169,49.815363999999995,1,1,1789167945.9055812,-0.8275751583908348,0.5607901135591937,-0.0012330100842036097,-0.025145286532141275,177.69295090374652,-1.7330761767893301,-68.21062476838429,0.00019460421159736774,-0.00129887402933418,0.0007834783012202546,0.3061636180496216,0.39324667148590087,-9.695638881912231
2026-09-11T19:05:45.946,0.701555935999977,0.0,0.0,0.0,0.0,0.0,0.0,0.0,0.0,0.0,0.0,0.017057418823242188,139.734375,6.1406707763671875,0.0,0.0,0.0,1,1789167945.8264909,38.990286865,-76.94089759833334,-9.338999999999999,0,1,9.759376000000001,6.185169,49.815363999999995,1,1,1789167945.937581,-0.8275946088296903,0.5607611913704368,-0.0011545088964022606,-0.025153862487661112,177.6870340863304,-1.7260987985645295,-68.20668089045299,0.0012220795422464294,-0.0021170843826691216,0.001404815514930236,0.3003776944541931,0.3922660064697266,-9.691422022342682
2026-09-11T19:05:45.979,0.734962975999963,0.0,0.0,0.0,0.0,0.0,0.0,0.0,0.0,0.0,0.0,0.017057418823242188,139.734375,6.1406707763671875,0.0,0.0,0.0,1,1789167945.8264909,38.990286865,-76.94089759833334,-9.338999999999999,0,1,9.759376000000001,6.185169,49.815363999999995,1,1,1789167945.977581,-0.8276048658983307,0.5607450382647104,-0.0011678720940677884,-0.025175862997846136,177.6857697926907,-1.7287357922492717,-68.20441618175882,-0.000912283600017436,0.0002804744107954888,-0.0004401720373529699,0.30655588405609135,0.39795386356353757,-9.701130606002808
2026-09-11T19:05:46.012,0.7683649599999853,0.0,0.0,0.0,0.0,0.0,0.0,0.0,0.0,0.0,0.0,0.017057418823242188,139.734375,6.1406707763671875,0.0,0.0,0.0,1,1789167945.8264909,38.990286865,-76.94089759833334,-9.338999999999999,0,1,9.759376000000001,6.185169,49.815363999999995,1,1,1789167946.0055811,-0.8276027857085403,0.5607478059254746,-0.0011875895621081328,-0.025181677232904376,177.68648991854573,-1.730988061529457,-68.20477795608285,0.00047228609558966556,-0.0017072810743008532,9.878563566287906e-05,0.3088114135932922,0.3977577305603027,-9.696129214420319
2026-09-11T19:05:46.046,0.801766176000001,0.0,0.0,0.0,0.0,0.0,0.0,0.0,0.0,0.0,0.0,0.017057418823242188,139.734375,6.1406707763671875,0.0,0.0,0.0,1,1789167945.8264909,38.990286865,-76.94089759833334,-9.338999999999999,0,1,9.759376000000001,6.185169,49.815363999999995,1,1,1789167946.0375812,-0.8276069868163343,0.5607415755007473,-0.00118900866764516,-0.02518227821535853,177.68651097577796,-1.7311439260916368,-68.20391375816297,0.0005448917924726297,0.001660855316197804,-3.0368728984701334e-05,0.30361388900756836,0.39795386356353757,-9.693873684883117
2026-09-11T19:05:46.079,0.8351862719999872,0.0,0.0,0.0,0.0,0.0,0.0,0.0,0.0,0.0,0.0,0.017057418823242188,139.734375,6.1406707763671875,0.0,0.0,0.0,1,1789167945.8264909,38.990286865,-76.94089759833334,-9.338999999999999,0,1,9.759376000000001,6.185169,49.815363999999995,1,1,1789167946.0775812,-0.8275983759220388,0.5607554288580975,-0.0012405810040160192,-0.025154286635625203,177.69251004135558,-1.7342763861934918,-68.20580962781706,-3.9269908169872414e-05,-0.0006529276731710786,0.0005520476424058065,0.30635975105285645,0.39236407297134396,-9.702699670028686
2026-09-11T19:05:46.112,0.8685885119999739,0.0,0.0,0.0,0.0,0.0,0.0,0.0,0.0,0.0,0.0,0.017057418823242188,139.734375,6.1406707763671875,0.0,0.0,0.0,1,1789167945.8264909,38.990286865,-76.94089759833334,-9.338999999999999,0,1,9.759376000000001,6.185169,49.815363999999995,1,1,1789167946.104581,-0.8276107556392662,0.5607372853623281,-0.0012245687101389642,-0.025152224278654118,177.6916394534878,-1.7325739894485555,-68.2033130082484,0.00022759093446006055,-0.0005017821599483697,0.0005098106745075436,0.3011622264671326,0.3939331369972229,-9.694658216896057
2026-09-11T19:05:46.146,0.9019887359999643,0.0,0.0,0.0,0.0,0.0,0.0,0.0,0.0,0.0,0.0,0.017057418823242188,139.734375,6.1406707763671875,0.0,0.0,0.0,1,1789167945.8264909,38.990286865,-76.94089759833334,-9.338999999999999,0,1,9.759376000000001,6.185169,49.815363999999995,1,1,1789167946.137581,-0.8276269366304044,0.5607112694612755,-0.0011631068350829818,-0.025202643619025872,177.68285042543985,-1.7299106566491749,-68.19972470569971,0.00119118721448613,0.002635970769287036,-0.001966462468222011,0.3058694185447693,0.39471766901016236,-9.691912354850768
2026-09-11T19:05:46.179,0.935388832000001,0.0,0.0,0.0,0.0,0.0,0.0,0.0,0.0,0.0,0.0,0.017057418823242188,139.734375,6.1406707763671875,0.0,0.0,0.0,1,1789167945.8264909,38.990286865,-76.94089759833334,-9.338999999999999,0,1,9.759376000000001,6.185169,49.815363999999995,1,1,1789167946.177581,-0.8276181560227501,0.5607272453899467,-0.0011680435883195419,-0.02513522972007562,177.6896017481424,-1.7260904260572014,-68.2019843680421,3.3161255787892265e-06,-0.0029129545215785357,-0.0020614083795305028,0.2991028299331665,0.3968751320457458,-9.685930298252105
2026-09-11T19:05:46.213,0.9687972479999871,0.0,0.0,0.0,0.0,0.0,0.0,0.0,0.0,0.0,0.0,0.017057418823242188,139.734375,6.1406707763671875,0.0,0.0,0.0,1,1789167945.8264909,38.990286865,-76.94089759833334,-9.338999999999999,0,1,9.759376000000001,6.185169,49.815363999999995,1,1,1789167946.2055812,-0.8276276033437057,0.5607101567033109,-0.0011595443799704986,-0.025205670198049392,177.68233193511026,-1.729764070607016,-68.19957137484427,0.0012690288991250769,0.00084334309456366,0.0018828611970514828,0.30989014511108404,0.39471766901016236,-9.693971751384735
2026-09-11T19:05:46.246,1.0022068799999602,0.0,0.0,0.0,0.0,0.0,0.0,0.0,0.0,0.0,0.0,0.017057418823242188,139.734375,6.1406707763671875,0.0,0.0,0.0,1,1789167945.8264909,38.990286865,-76.94089759833334,-9.338999999999999,0,1,9.759376000000001,6.185169,49.815363999999995,1,1,1789167946.2375813,-0.8276424709180392,0.5606887993162212,-0.0011438215759221639,-0.025193299232518264,177.68245224963698,-1.7274172894024558,-68.19663797619289,0.0013313371534212745,0.0025727898503648413,4.60766922526503e-05,0.3061636180496216,0.3912853414535522,-9.693971751384735
2026-09-11T19:05:46.280,1.035615392000011,0.0,0.0,0.0,0.0,0.0,0.0,0.0,0.0,0.0,0.0,0.017057418823242188,139.734375,6.1406707763671875,0.0,0.0,0.0,1,1789167945.8264909,38.990286865,-76.94089759833334,-9.338999999999999,0,1,9.759376000000001,6.185169,49.815363999999995,1,1,1789167946.2775812,-0.8276429795211374,0.5606880156831419,-0.0011387896143680652,-0.025194258808086425,177.6820363479334,-1.7269993209453258,-68.19653309500768,0.0006658431096358368,-0.0003043854215478111,-0.0008892452538911109,0.30488875352859496,0.39108920845031736,-9.698188610954285
2026-09-11T19:05:46.313,1.0690191680000112,0.0,0.0,0.0,0.0,0.0,0.0,0.0,0.0,0.0,0.0,0.017057418823242188,139.734375,6.1406707763671875,0.0,0.0,0.0,1,1789167945.8264909,38.990286865,-76.94089759833334,-9.338999999999999,0,1,9.759376000000001,6.185169,49.815363999999995,1,1,1789167946.305581,-0.8276619927374773,0.5606594479791517,-0.0011107255713775864,-0.025206655038815286,177.67899751008844,-1.725053181149265,-68.1925932162235,0.0010665707058937347,0.0013137093279761319,-0.0006490879488166911,0.3071442830657959,0.39305053848266597,-9.693481418876647
2026-09-11T19:05:46.346,1.1024197119999712,0.0,0.0,0.0,0.0,0.0,0.0,0.0,0.0,0.0,0.0,0.017057418823242188,139.734375,6.1406707763671875,0.0,0.0,0.0,1,1789167945.8264909,38.990286865,-76.94089759833334,-9.338999999999999,0,1,9.759376000000001,6.185169,49.815363999999995,1,1,1789167946.3365812,-0.8276565594320394,0.5606685821701923,-0.0011776220981224478,-0.02517883640241138,177.68595397442246,-1.7296382992256583,-68.19382152519157,-0.0007550294344127469,0.00043057272646700114,-0.00035081117965086024,0.30341775600433346,0.3922660064697266,-9.688480027294158
2026-09-11T19:05:46.380,1.135823232000007,0.0,0.0,0.0,0.0,0.0,0.0,0.0,0.0,0.0,0.0,0.017057418823242188,139.734375,6.1406707763671875,0.0,0.0,0.0,1,1789167945.8264909,38.990286865,-76.94089759833334,-9.338999999999999,0,1,9.759376000000001,6.185169,49.815363999999995,1,1,1789167946.3775811,-0.8276418357630088,0.5606916951815847,-0.0012176954045538917,-0.025146209796695698,177.6916737431769,-1.7314081133587262,-68.19701228874911,0.0005330235535590682,0.0002069960492865275,0.0023134339235184836,0.30861528059005733,0.39677706554412845,-9.707602995109559
2026-09-11T19:05:46.413,1.1692326079999589,0.0,0.0,0.0,0.0,0.0,0.0,0.0,0.0,0.0,0.0,0.017057418823242188,139.734375,6.1406707763671875,0.0,0.0,0.0,1,1789167945.8264909,38.990286865,-76.94089759833334,-9.338999999999999,0,1,9.759376000000001,6.185169,49.815363999999995,1,1,1789167946.4055812,-0.8276639111923354,0.5606562853553868,-0.001101496935289665,-0.02521441067736338,177.6776618581262,-1.7246671134345923,-68.19215744931527,0.0010131636307827083,0.0015357152088298106,0.001542696525837788,0.2993970294380188,0.3949138020133972,-9.691716221847535
2026-09-11T19:05:46.447,1.2026399679999713,0.0,0.0,0.0,0.0,0.0,0.0,0.0,0.0,0.0,0.0,0.017057418823242188,139.734375,6.1406707763671875,0.0,0.0,0.0,1,1789167945.8264909,38.990286865,-76.94089759833334,-9.338999999999999,0,1,9.759376000000001,6.185169,49.815363999999995,1,1,1789167946.437581,-0.8276442191537402,0.5606877047464954,-0.0012209975011687484,-0.025156577919193082,177.69089298556608,-1.732376716748244,-68.19644903375489,-0.0011262609663119409,0.0010306169233026516,-0.001523846969916249,0.3073404160690308,0.39275633897781376,-9.696913746433257
2026-09-11T19:05:46.480,1.2360395839999683,0.0,0.0,0.0,0.0,0.0,0.0,0.0,0.0,0.0,0.0,0.017057418823242188,139.734375,6.1406707763671875,0.0,0.0,0.0,1,1789167945.8264909,38.990286865,-76.94089759833334,-9.338999999999999,0,1,9.759376000000001,6.185169,49.815363999999995,1,1,1789167946.477581,-0.8276630906229124,0.5606570745268296,-0.001133588807581386,-0.025222374590055663,177.6789681192453,-1.7282262557442658,-68.19223265046556,0.0021673498651265583,0.0009796533091444171,-8.691739674931761e-05,0.3039080885124207,0.3969731985473633,-9.694854349899293
2026-09-11T19:05:46.513,1.269439583999997,0.0,0.0,0.0,0.0,0.0,0.0,0.0,0.0,0.0,0.0,0.017057418823242188,139.734375,6.1406707763671875,0.0,0.0,0.0,1,1789167945.8264909,38.990286865,-76.94089759833334,-9.338999999999999,0,1,9.759376000000001,6.185169,49.815363999999995,1,1,1789167946.5055811,-0.8276581689902541,0.5606650713842544,-0.00118482314606272,-0.025203754234270844,177.6840430266592,-1.73191329913484,-68.19331001178651,7.888888219014368e-05,-0.0005276130328778859,0.0019324285478081217,0.3108708101272583,0.3964828660392761,-9.700444140491486
2026-09-11T19:05:46.547,1.30284291199996,0.0,0.0,0.0,0.0,0.0,0.0,0.0,0.0,0.0,0.0,0.017057418823242188,139.734375,6.1406707763671875,0.0,0.0,0.0,1,1789167945.8264909,38.990286865,-76.94089759833334,-9.338999999999999,0,1,9.759376000000001,6.185169,49.815363999999995,1,1,1789167946.5375812,-0.8276425487770915,0.5606905327044888,-0.0012827992514408287,-0.025145425337355826,177.69592680695905,-1.7375317711398277,-68.19679724795199,-0.0006923721142661505,0.0015207053772626593,0.00012356931104119854,0.30861528059005733,0.39481573551177973,-9.701130606002808
2026-09-11T19:05:46.580,1.3362586879999867,0.0,0.0,0.0,0.0,0.0,0.0,0.0,0.0,0.0,0.0,0.017057418823242188,139.734375,6.1406707763671875,0.0,0.0,0.0,1,1789167945.8264909,38.990286865,-76.94089759833334,-9.338999999999999,0,1,9.759376000000001,6.185169,49.815363999999995,1,1,1789167946.5775812,-0.8276484905200929,0.5606791763647928,-0.0012422996432280458,-0.025205039621191264,177.68764156692885,-1.7374890214413072,-68.19521269088371,0.0006330309196983432,-0.0003117158044061873,0.0017591173530850848,0.30989014511108404,0.3943254030036927,-9.701915138015746
2026-09-11T19:05:46.614,1.369668479999973,0.0,0.0,0.0,0.0,0.0,0.0,0.0,0.0,0.0,0.0,0.017057418823242188,139.734375,6.1406707763671875,0.0,0.0,0.0,1,1789167945.8264909,38.990286865,-76.94089759833334,-9.338999999999999,0,1,9.759376000000001,6.185169,49.815363999999995,1,1,1789167946.605581,-0.8276592302726264,0.5606627107090179,-0.0012176268003778223,-0.025219848332507164,177.6846164441686,-1.7360537113534777,-68.19294272913436,-0.0012039281180256886,0.001594707337547219,-0.0010562732633069682,0.3079288150787353,0.39403120349884035,-9.693383352375031
2026-09-11T19:05:46.647,1.403076895999959,0.0,0.0,0.0,0.0,0.0,0.0,0.0,0.0,0.0,0.0,0.017057418823242188,139.734375,6.1406707763671875,0.0,0.0,0.0,1,1789167945.8264909,38.990286865,-76.94089759833334,-9.338999999999999,0,1,9.759376000000001,6.185169,49.815363999999995,1,1,1789167946.637581,-0.8276676130563079,0.5606495588111651,-0.001194279404148943,-0.0252382289240907,177.68134426538353,-1.7349829011930409,-68.19112773370799,-0.0018893189152838618,-0.0013402383326064455,-0.0012700760966762737,0.30361388900756836,0.39344280448913577,-9.686714830265046
2026-09-11T19:05:46.680,1.436475680000001,0.0,0.0,0.0,0.0,0.0,0.0,0.0,0.0,0.0,0.0,0.017057418823242188,139.734375,6.1406707763671875,0.0,0.0,0.0,1,1789167945.8264909,38.990286865,-76.94089759833334,-9.338999999999999,0,1,9.759376000000001,6.185169,49.815363999999995,1,1,1789167946.677581,-0.8276584332142234,0.5606646188841377,-0.0012763048444650307,-0.025200676713637068,177.69020902821416,-1.7403945672827248,-68.19317230133153,-0.00022026055160168437,0.0017788395736326205,0.0012203342129944352,0.30812494808197016,0.3933447379875183,-9.698188610954285
2026-09-11T19:05:46.713,1.4698809919999576,0.0,0.0,0.0,0.0,0.0,0.0,0.0,0.0,0.0,0.0,0.017057418823242188,139.734375,6.1406707763671875,0.0,0.0,0.0,1,1789167945.8264909,38.990286865,-76.94089759833334,-9.338999999999999,0,1,9.759376000000001,6.185169,49.815363999999995,1,1,1789167946.7055812,-0.8276601920564525,0.5606613673254753,-0.0012599611249450385,-0.02521606971294768,177.6876910116103,-1.7398240412773127,-68.19272390014534,-0.0013995795271742528,0.0012051498485020845,0.0009960594041131638,0.30685008356094357,0.3964828660392761,-9.690637490329742
2026-09-11T19:05:46.747,1.5032823999999891,0.0,0.0,0.0,0.0,0.0,0.0,0.0,0.0,0.0,0.0,0.017057418823242188,139.734375,6.1406707763671875,0.0,0.0,0.0,1,1789167945.8264909,38.990286865,-76.94089759833334,-9.338999999999999,0,1,9.759376000000001,6.185169,49.815363999999995,1,1,1789167946.7375813,-0.8276589945443765,0.5606638510319428,-0.0013183682448688545,-0.025197158589689298,177.6932426801194,-1.7441575494155939,-68.19303366201656,-0.0015582299561805375,-0.0016524777357882312,-0.000158824961931484,0.30812494808197016,0.3974635310554504,-9.701915138015746
2026-09-11T19:05:46.781,1.53669167999999,0.0,0.0,0.0,0.0,0.0,0.0,0.0,0.0,0.0,0.0,0.017057418823242188,139.734375,6.1406707763671875,0.0,0.0,0.0,1,1789167945.8264909,38.990286865,-76.94089759833334,-9.338999999999999,0,1,9.759376000000001,6.185169,49.815363999999995,1,1,1789167946.7775812,-0.8276576393656603,0.5606674676754307,-0.001321768482758288,-0.02516099398196833,177.69690263184725,-1.7421658579379835,-68.1935597925664,-0.00022636920398366454,0.0031655036643421157,7.923794804054255e-05,0.3073404160690308,0.39403120349884035,-9.702699670028686
2026-09-11T19:05:46.814,1.5700920639999936,0.0,0.0,0.0,0.0,0.0,0.0,0.0,0.0,0.0,0.0,0.017057418823242188,139.734375,6.1406707763671875,0.0,0.0,0.0,1,1789167945.8264909,38.990286865,-76.94089759833334,-9.338999999999999,0,1,9.759376000000001,6.185169,49.815363999999995,1,1,1789167946.805581,-0.827671255878402,0.5606462036005893,-0.0012703289538854817,-0.025189538409120926,177.69084422654913,-1.7390602860658488,-68.19063683566006,-0.0009878563566287906,-0.0013135347950509323,-0.002146929512878225,0.30635975105285645,0.39324667148590087,-9.698384743957519
2026-09-11T19:05:46.846,1.6034943039999803,0.0,0.0,0.0,0.0,0.0,0.0,0.0,0.0,0.0,0.0,0.017057418823242188,139.734375,6.1406707763671875,0.0,0.0,0.0,1,1789167946.8355443,38.990286833333336,-76.94089772833334,-9.347999999999999,0,1,9.759376000000001,6.185169,49.815363999999995,1,1,1789167946.8375812,-0.8276867380576484,0.5606220444574068,-0.0011976009615668386,-0.025222067001416493,177.6830346032698,-1.7341823307128503,-68.18732881845892,-0.000810705437551366,-0.00026878070480712676,-0.0005572836301617894,0.30635975105285645,0.3945215360069275,-9.702405470523834
2026-09-11T19:05:46.881,1.6368959359999735,0.0,0.0,0.0,0.0,0.0,0.0,0.0,0.0,0.0,0.0,0.017057418823242188,139.734375,6.1406707763671875,0.0,0.0,0.0,1,1789167946.8355443,38.990286833333336,-76.94089772833334,-9.347999999999999,0,1,9.759376000000001,6.185169,49.815363999999995,1,1,1789167946.8765812,-0.8276760403175539,0.5606389398863683,-0.0012681099992162567,-0.025194111700433168,177.69025222035947,-1.7391233975349123,-68.18962964152597,-0.000714712328691678,0.001521752574813856,7.976154681614087e-05,0.3053790860366821,0.3974635310554504,-9.695442748908997
2026-09-11T19:05:46.915,1.6702982399999655,0.0,0.0,0.0,0.0,0.0,0.0,0.0,0.0,0.0,0.0,0.017057418823242188,139.734375,6.1406707763671875,0.0,0.0,0.0,1,1789167946.8355443,38.990286833333336,-76.94089772833334,-9.347999999999999,0,1,9.759376000000001,6.185169,49.815363999999995,1,1,1789167946.9055812,-0.8276850281331162,0.5606252864115143,-0.0012907372677626594,-0.025201516573329873,177.69097336429076,-1.7417082882438135,-68.18771491680286,0.00024294983187761067,-0.0021343631422638654,-0.0004098033083682686,0.30685008356094357,0.3942273365020752,-9.698678943462372
2026-09-11T19:05:46.948,1.7037117759999774,0.0,0.0,0.0,0.0,0.0,0.0,0.0,0.0,0.0,0.0,0.017057418823242188,139.734375,6.1406707763671875,0.0,0.0,0.0,1,1789167946.8355443,38.990286833333336,-76.94089772833334,-9.347999999999999,0,1,9.759376000000001,6.185169,49.815363999999995,1,1,1789167946.937581,-0.8276871524957761,0.5606219896872935,-0.0012378834760046252,-0.025207735261108054,177.68698203882644,-1.7370834865797629,-68.18729816582447,0.00043476151667178753,-0.001077566280181299,-0.0005708971983273452,0.3045945540237427,0.3942273365020752,-9.692206554355622
2026-09-11T19:05:46.985,1.7371320319999768,0.0,0.0,0.0,0.0,0.0,0.0,0.0,0.0,0.0,0.0,0.017057418823242188,139.734375,6.1406707763671875,0.0,0.0,0.0,1,1789167946.8355443,38.990286833333336,-76.94089772833334,-9.347999999999999,0,1,9.759376000000001,6.185169,49.815363999999995,1,1,1789167946.977581,-0.8277017104065166,0.5605990985323824,-0.0012003712817291196,-0.025240610602619035,177.68140354546782,-1.735572701472654,-68.18413578747003,-0.001111425667669989,0.00040421825476188674,-0.0010070549784007281,0.3024370909881592,0.3929524719810486,-9.691422022342682
2026-09-11T19:05:47.015,1.7705333119999977,0.0,0.0,0.0,0.0,0.0,0.0,0.0,0.0,0.0,0.0,0.017057418823242188,139.734375,6.1406707763671875,0.0,0.0,0.0,1,1789167946.8355443,38.990286833333336,-76.94089772833334,-9.347999999999999,0,1,9.759376000000001,6.185169,49.815363999999995,1,1,1789167947.0055811,-0.8277011222561769,0.5606018737756969,-0.0012560639888922942,-0.025195508296099223,177.68926828173502,-1.7379666817114963,-68.18450787024032,-0.0003085742117525975,-0.0020799088696016425,-0.0005611233545161769,0.3041042215156555,0.39471766901016236,-9.688970359802246
2026-09-11T19:05:47.048,1.8039370879999979,0.0,0.0,0.0,0.0,0.0,0.0,0.0,0.0,0.0,0.0,0.017057418823242188,139.734375,6.1406707763671875,0.0,0.0,0.0,1,1789167946.8355443,38.990286833333336,-76.94089772833334,-9.347999999999999,0,1,9.759376000000001,6.185169,49.815363999999995,1,1,1789167947.0375812,-0.8276964922467318,0.5606091117887627,-0.0012688102683399436,-0.025185921114252174,177.69101231050885,-1.7385802511111732,-68.18550653344266,0.00023352505391684129,-0.0016280431262603106,0.0007133160652900824,0.30910561309814455,0.3935408709907532,-9.69720794593811
2026-09-11T19:05:47.082,1.8373420159999796,0.0,0.0,0.0,0.0,0.0,0.0,0.0,0.0,0.0,0.0,0.017057418823242188,139.734375,6.1406707763671875,0.0,0.0,0.0,1,1789167946.8355443,38.990286833333336,-76.94089772833334,-9.347999999999999,0,1,9.759376000000001,6.185169,49.815363999999995,1,1,1789167947.0775812,-0.8277128971909093,0.5605840681076903,-0.0012095403087721101,-0.0252071303385577,177.68514007557064,-1.7342491203534818,-68.18207354820174,-0.00016493361431346414,-9.37241808320955e-05,0.00016598081186466074,0.3128321401596069,0.39530606801986695,-9.70064027349472
2026-09-11T19:05:47.115,1.8707511999999724,0.0,0.0,0.0,0.0,0.0,0.0,0.0,0.0,0.0,0.0,0.017057418823242188,139.734375,6.1406707763671875,0.0,0.0,0.0,1,1789167946.8355443,38.990286833333336,-76.94089772833334,-9.347999999999999,0,1,9.759376000000001,6.185169,49.815363999999995,1,1,1789167947.105581,-0.8277262759919812,0.5605636461062827,-0.0011676551153030571,-0.02522394255480821,177.68081151368781,-1.731297753659257,-68.17926954307649,-0.0004464552226601495,-0.002169095194378553,-0.0015250687003926452,0.3058694185447693,0.3976596640586853,-9.693677551879883
2026-09-11T19:05:47.148,1.9041567040000018,0.0,0.0,0.0,0.0,0.0,0.0,0.0,0.0,0.0,0.0,0.017057418823242188,139.734375,6.1406707763671875,0.0,0.0,0.0,1,1789167946.8355443,38.990286833333336,-76.94089772833334,-9.347999999999999,0,1,9.759376000000001,6.185169,49.815363999999995,1,1,1789167947.137581,-0.8277435786968091,0.5605363276504279,-0.0011329697934022106,-0.02526479150554605,177.67464832858155,-1.7305546197972728,-68.17548647945243,0.001690700446406907,0.00015271630954950385,-0.00022846359908605774,0.3066539505577087,0.3955022010231018,-9.693677551879883
2026-09-11T19:05:47.181,1.9375577280000016,0.0,0.0,0.0,0.0,0.0,0.0,0.0,0.0,0.0,0.0,0.017057418823242188,139.734375,6.1406707763671875,0.0,0.0,0.0,1,1789167946.8355443,38.990286833333336,-76.94089772833334,-9.347999999999999,0,1,9.759376000000001,6.185169,49.815363999999995,1,1,1789167947.177581,-0.827754727868085,0.5605206447257106,-0.001128107945622209,-0.025247667234208147,177.67592963771685,-1.7289488592084497,-68.17333330338938,-0.0006281439977927592,-0.001256462528510718,-0.0008119271680277621,0.29812216491699217,0.3939331369972229,-9.685636098747253
2026-09-11T19:05:47.214,1.9709578239999814,0.0,0.0,0.0,0.0,0.0,0.0,0.0,0.0,0.0,0.0,0.017057418823242188,139.734375,6.1406707763671875,0.0,0.0,0.0,1,1789167946.8355443,38.990286833333336,-76.94089772833334,-9.347999999999999,0,1,9.759376000000001,6.185169,49.815363999999995,1,1,1789167947.2055812,-0.827779222904544,0.5604818077998717,-0.0010739558622115744,-0.02530904723103536,177.66654303819186,-1.7276446142542146,-68.1679576449916,0.00019757127132575812,-0.0009587093581204852,0.00026284658535034606,0.30861528059005733,0.3945215360069275,-9.700444140491486
2026-09-11T19:05:47.248,2.004360255999984,0.0,0.0,0.0,0.0,0.0,0.0,0.0,0.0,0.0,0.0,0.017057418823242188,139.734375,6.1406707763671875,0.0,0.0,0.0,1,1789167946.8355443,38.990286833333336,-76.94089772833334,-9.347999999999999,0,1,9.759376000000001,6.185169,49.815363999999995,1,1,1789167947.2455812,-0.8277768789012088,0.5604874686001142,-0.0011323417209744887,-0.02525775328560323,177.67517432429847,-1.7299055725303205,-68.1687299031486,-0.0009133307975686327,-9.197885158010117e-05,0.0006052801845916336,0.30341775600433346,0.39373700399398803,-9.691225889339448
2026-09-11T19:05:47.282,2.0377632319999748,0.0,0.0,0.0,0.0,0.0,0.0,0.0,0.0,0.0,0.0,0.017057418823242188,139.734375,6.1406707763671875,0.0,0.0,0.0,1,1789167946.8355443,38.990286833333336,-76.94089772833334,-9.347999999999999,0,1,9.759376000000001,6.185169,49.815363999999995,1,1,1789167947.2775812,-0.8277827237379141,0.5604803981830514,-0.0011724603349618945,-0.02522123847813783,177.68120277623515,-1.7313468403360712,-68.16774504093854,-0.0013747958517959335,-0.0024083798348269753,-0.0010229374745938766,0.30488875352859496,0.39275633897781376,-9.695148549404145
2026-09-11T19:05:47.315,2.07117430400001,0.0,0.0,0.0,0.0,0.0,0.0,0.0,0.0,0.0,0.0,0.017057418823242188,139.734375,6.1406707763671875,0.0,0.0,0.0,1,1789167946.8355443,38.990286833333336,-76.94089772833334,-9.347999999999999,0,1,9.759376000000001,6.185169,49.815363999999995,1,1,1789167947.305581,-0.8277860300566601,0.5604760553675692,-0.0011887443120446482,-0.02520846464195327,177.6834521762798,-1.7320593023886655,-68.16713993830447,0.00059096848472528,0.0004820599394008338,-0.0005499532473034133,0.30361388900756836,0.3978557970619202,-9.692108487854004
2026-09-11T19:05:47.349,2.104582655999991,0.0,0.0,0.0,0.0,0.0,0.0,0.0,0.0,0.0,0.0,0.017057418823242188,139.734375,6.1406707763671875,0.0,0.0,0.0,1,1789167946.8355443,38.990286833333336,-76.94089772833334,-9.347999999999999,0,1,9.759376000000001,6.185169,49.815363999999995,1,1,1789167947.345581,-0.8277945669447447,0.5604631301093446,-0.0011564838484711653,-0.025217003587002487,177.68054326630926,-1.7295102018039383,-68.1653720892003,-0.0006527531402458793,-0.0024830799268123326,-0.002207492437922428,0.30488875352859496,0.39305053848266597,-9.693971751384735
2026-09-11T19:05:47.383,2.137983647999988,0.0,0.0,0.0,0.0,0.0,0.0,0.0,0.0,0.0,0.0,0.017057418823242188,139.734375,6.1406707763671875,0.0,0.0,0.0,1,1789167946.8355443,38.990286833333336,-76.94089772833334,-9.347999999999999,0,1,9.759376000000001,6.185169,49.815363999999995,1,1,1789167947.3775811,-0.8277720240678699,0.5605002711446271,-0.0012627788879353576,-0.02512623343959921,177.69606497745986,-1.7338691793902383,-68.17049289176471,-8.621926504851988e-05,-0.002302961948006518,0.0005733406592801372,0.3058694185447693,0.3986403290748596,-9.697894411449433
2026-09-11T19:05:47.415,2.1713861119999933,0.0,0.0,0.0,0.0,0.0,0.0,0.0,0.0,0.0,0.0,0.017057418823242188,139.734375,6.1406707763671875,0.0,0.0,0.0,1,1789167946.8355443,38.990286833333336,-76.94089772833334,-9.347999999999999,0,1,9.759376000000001,6.185169,49.815363999999995,1,1,1789167947.4055812,-0.8277776203609155,0.5604911423936585,-0.0012529035542884395,-0.02514598895560291,177.69353576168655,-1.7341759562625114,-68.16922229452862,0.0011484266478122688,0.0020395917638805737,0.00043301618741979316,0.301946758480072,0.3946196025085449,-9.686224497756958
2026-09-11T19:05:47.449,2.2047876799999813,0.0,0.0,0.0,0.0,0.0,0.0,0.0,0.0,0.0,0.0,0.017057418823242188,139.734375,6.1406707763671875,0.0,0.0,0.0,1,1789167946.8355443,38.990286833333336,-76.94089772833334,-9.347999999999999,0,1,9.759376000000001,6.185169,49.815363999999995,1,1,1789167947.4455812,-0.8277889811295626,0.5604728919337204,-0.0012126343306836328,-0.025180739582324883,177.68761221261767,-1.732536280002958,-68.16670329780753,-0.0003480186528476693,-0.0014877186543999664,-0.0015598007525073323,0.3053790860366821,0.3986403290748596,-9.694364017391205
2026-09-11T19:05:47.482,2.238196223999978,0.0,0.0,0.0,0.0,0.0,0.0,0.0,0.0,0.0,0.0,0.017057418823242188,139.734375,6.1406707763671875,0.0,0.0,0.0,1,1789167946.8355443,38.990286833333336,-76.94089772833334,-9.347999999999999,0,1,9.759376000000001,6.185169,49.815363999999995,1,1,1789167947.477581,-0.8278160264894778,0.5604305894365897,-0.001120068420850565,-0.025237396015860572,177.6762010764741,-1.7272732169141582,-68.16088407543475,0.0003066543495754037,-0.001190838148635731,0.0008066911802717791,0.3050848865318298,0.3945215360069275,-9.69642341392517
2026-09-11T19:05:47.515,2.2715965119999737,0.0,0.0,0.0,0.0,0.0,0.0,0.0,0.0,0.0,0.0,0.017057418823242188,139.734375,6.1406707763671875,0.0,0.0,0.0,1,1789167946.8355443,38.990286833333336,-76.94089772833334,-9.347999999999999,0,1,9.759376000000001,6.185169,49.815363999999995,1,1,1789167947.5055811,-0.8278353367887074,0.5603998207379781,-0.0010679190041778678,-0.025289437118485136,177.66784701350514,-1.7255808253690017,-68.15663102500403,-0.0006944665093685437,0.0014128440294894097,1.2566370614359173e-05,0.30812494808197016,0.3950118685150147,-9.700934472999572
2026-09-11T19:05:47.549,2.3049980159999564,0.0,0.0,0.0,0.0,0.0,0.0,0.0,0.0,0.0,0.0,0.017057418823242188,139.734375,6.1406707763671875,0.0,0.0,0.0,1,1789167946.8355443,38.990286833333336,-76.94089772833334,-9.347999999999999,0,1,9.759376000000001,6.185169,49.815363999999995,1,1,1789167947.545581,-0.8278340129858027,0.5604030900759878,-0.0011133396035602381,-0.02525834618563923,177.67372209364368,-1.7279033363425986,-68.15706777561293,5.916666164260777e-05,-0.0015892968168660364,0.0011081095420912,0.30635975105285645,0.3942273365020752,-9.697698278446198
2026-09-11T19:05:47.582,2.3384117759999867,0.0,0.0,0.0,0.0,0.0,0.0,0.0,0.0,0.0,0.0,0.017057418823242188,139.734375,6.1406707763671875,0.0,0.0,0.0,1,1789167946.8355443,38.990286833333336,-76.94089772833334,-9.347999999999999,0,1,9.759376000000001,6.185169,49.815363999999995,1,1,1789167947.5775812,-0.827848774542789,0.5603815109351269,-0.0010864758656312676,-0.025254470104522902,177.67232096922996,-1.7250441460614105,-68.15410781485895,0.0005864306286700947,-0.001207767842380076,-0.0007700392659798982,0.30214289148330686,0.3929524719810486,-9.689656825313568
2026-09-11T19:05:47.616,2.3718299519999846,0.0,0.0,0.0,0.0,0.0,0.0,0.0,0.0,0.0,0.0,0.017057418823242188,139.734375,6.1406707763671875,0.0,0.0,0.0,1,1789167946.8355443,38.990286833333336,-76.94089772833334,-9.347999999999999,0,1,9.759376000000001,6.185169,49.815363999999995,1,1,1789167947.605581,-0.8278374969957695,0.5604001383202231,-0.0011566028834601814,-0.025207653762783673,177.68130737210834,-1.7287443909403652,-68.1566611160757,0.00025080381351158515,0.0023012166187545233,0.0011826351011513577,0.3053790860366821,0.3945215360069275,-9.695442748908997
2026-09-11T19:05:47.650,2.4052403519999643,0.0,0.0,0.0,0.0,0.0,0.0,0.0,0.0,0.0,0.0,0.017057418823242188,139.734375,6.1406707763671875,0.0,0.0,0.0,1,1789167946.8355443,38.990286833333336,-76.94089772833334,-9.347999999999999,0,1,9.759376000000001,6.185169,49.815363999999995,1,1,1789167947.6455812,-0.8278259141148591,0.560419054841462,-0.001267502272625275,-0.025162120906021924,177.69278981156583,-1.736397030961087,-68.15922020522544,0.0010655235083425383,-0.002128079956956686,0.0009454448558053283,0.3071442830657959,0.39599253353118896,-9.692402687358856
2026-09-11T19:05:47.683,2.438685695999993,0.0,0.0,0.0,0.0,0.0,0.0,0.0,0.0,0.0,0.0,0.017057418823242188,139.734375,6.1406707763671875,0.0,0.0,0.0,1,1789167946.8355443,38.990286833333336,-76.94089772833334,-9.347999999999999,0,1,9.759376000000001,6.185169,49.815363999999995,1,1,1789167947.677581,-0.8278458030226877,0.560387031633081,-0.0011978262141001512,-0.025224321746008645,177.68234290552073,-1.7336908506426614,-68.15479880115625,0.0017198474449152124,0.0004488986836129416,0.0003663446099936098,0.30439842102050785,0.39471766901016236,-9.689656825313568
2026-09-11T19:05:47.716,2.472085151999977,0.0,0.0,0.0,0.0,0.0,0.0,0.0,0.0,0.0,0.0,0.017057418823242188,139.734375,6.1406707763671875,0.0,0.0,0.0,1,1789167946.8355443,38.990286833333336,-76.94089772833334,-9.347999999999999,0,1,9.759376000000001,6.185169,49.815363999999995,1,1,1789167947.7055812,-0.8278426024244564,0.5603923583390052,-0.0012450008596454748,-0.025208734581706114,177.68686241348672,-1.7371816252289451,-68.15550801618981,-0.0009217083779782055,0.0011405726661782945,-0.000537735942539453,0.30557521903991697,0.39373700399398803,-9.699463475475312
2026-09-11T19:05:47.749,2.505486719999965,0.0,0.0,0.0,0.0,0.0,0.0,0.0,0.0,0.0,0.0,0.017057418823242188,139.734375,6.1406707763671875,0.0,0.0,0.0,1,1789167946.8355443,38.990286833333336,-76.94089772833334,-9.347999999999999,0,1,9.759376000000001,6.185169,49.815363999999995,1,1,1789167947.7445812,-0.8278445925134659,0.5603899711266097,-0.0012613509851055456,-0.02519563257042084,177.68915122666107,-1.7378850167029376,-68.15517405940076,0.0011362093430483087,9.773843811168245e-06,-0.00040439278768708613,0.3031235564994812,0.39569833402633664,-9.690637490329742
2026-09-11T19:05:47.783,2.5388968639999803,0.0,0.0,0.0,0.0,0.0,0.0,0.0,0.0,0.0,0.0,0.017057418823242188,139.734375,6.1406707763671875,0.0,0.0,0.0,1,1789167946.8355443,38.990286833333336,-76.94089772833334,-9.347999999999999,0,1,9.759376000000001,6.185169,49.815363999999995,1,1,1789167947.7775812,-0.8278492115166292,0.560382105604818,-0.0012589185810046677,-0.025218918161017567,177.68676702130844,-1.7391280838351888,-68.15406934731406,0.0005532693728822024,0.0018322466487436472,0.0013288936924684826,0.30812494808197016,0.39481573551177973,-9.697894411449433
2026-09-11T19:05:47.816,2.5723069119999877,0.0,0.0,0.0,0.0,0.0,0.0,0.0,0.0,0.0,0.0,0.017057418823242188,139.734375,6.1406707763671875,0.0,0.0,0.0,1,1789167946.8355443,38.990286833333336,-76.94089772833334,-9.347999999999999,0,1,9.759376000000001,6.185169,49.815363999999995,1,1,1789167947.805581,-0.8278774174886662,0.56033750114972,-0.0011534964283730275,-0.025289046316023543,177.67324663782483,-1.733502429860684,-68.14793182735585,-0.0012032299863248908,0.00011571532940722404,-0.0008138470302049559,0.30783074857711795,0.3945215360069275,-9.696913746433257
2026-09-11T19:05:47.850,2.6057166399999687,0.0,0.0,0.0,0.0,0.0,0.0,0.0,0.0,0.0,0.0,0.017057418823242188,139.734375,6.1406707763671875,0.0,0.0,0.0,1,1789167947.834412,38.99028680666667,-76.94089791,-9.347999999999999,0,1,9.759376000000001,6.185169,49.801249000000006,1,1,1789167947.8445811,-0.8278740813508062,0.560345238594109,-0.0012052215085031574,-0.02522432265860753,177.6827299800002,-1.7342758282879214,-68.14900856652206,0.0003677408733952052,0.0003319616237293215,-0.0005953318078552658,0.3061636180496216,0.3935408709907532,-9.703680335044861
2026-09-11T19:05:47.883,2.6391168000000107,0.0,0.0,0.0,0.0,0.0,0.0,0.0,0.0,0.0,0.0,0.017057418823242188,139.734375,6.1406707763671875,0.0,0.0,0.0,1,1789167947.834412,38.99028680666667,-76.94089791,-9.347999999999999,0,1,9.759376000000001,6.185169,49.801249000000006,1,1,1789167947.8765812,-0.8278972135940509,0.5603082953933692,-0.0011455907867994944,-0.025288445154505828,177.67273526201805,-1.7326314053983598,-68.14389740045104,0.000688532389911763,0.0021476276445790226,0.000851371609122834,0.3060655515480042,0.3969731985473633,-9.697109879436493
2026-09-11T19:05:47.916,2.6725182079999854,0.0,0.0,0.0,0.0,0.0,0.0,0.0,0.0,0.0,0.0,0.017057418823242188,139.734375,6.1406707763671875,0.0,0.0,0.0,1,1789167947.834412,38.99028680666667,-76.94089791,-9.347999999999999,0,1,9.759376000000001,6.185169,49.801249000000006,1,1,1789167947.9055812,-0.8279066805323376,0.5602948627372407,-0.0011206359367283338,-0.025277248570200177,177.67216917897576,-1.7295059241695905,-68.14206894900822,-0.0014156365562926008,0.0004569271981721155,-0.00010838494654884787,0.3051829530334472,0.39324667148590087,-9.69642341392517
2026-09-11T19:05:47.951,2.7059313599999655,0.0,0.0,0.0,0.0,0.0,0.0,0.0,0.0,0.0,0.0,0.017057418823242188,139.734375,6.1406707763671875,0.0,0.0,0.0,1,1789167947.834412,38.99028680666667,-76.94089791,-9.347999999999999,0,1,9.759376000000001,6.185169,49.801249000000006,1,1,1789167947.9455812,-0.8279174665853335,0.5602801705493362,-0.0011348578296715766,-0.025248982352495515,177.6757360088006,-1.7289989993939767,-68.14004537583152,0.0011576768928478387,0.002561794276077277,0.0007246607054280456,0.30341775600433346,0.3949138020133972,-9.692402687358856
2026-09-11T19:05:47.983,2.739351488000011,0.0,0.0,0.0,0.0,0.0,0.0,0.0,0.0,0.0,0.0,0.017057418823242188,139.734375,6.1406707763671875,0.0,0.0,0.0,1,1789167947.834412,38.99028680666667,-76.94089791,-9.347999999999999,0,1,9.759376000000001,6.185169,49.801249000000006,1,1,1789167947.977581,-0.8279040267164685,0.5603008453252833,-0.0012493153753754729,-0.025225472949434353,177.68535753159293,-1.7384106203043395,-68.14282659772209,-4.1538836197465045e-05,0.0022846359908605773,-2.059488517353309e-05,0.3113611426353455,0.39481573551177973,-9.698875076465606
2026-09-11T19:05:48.017,2.7727632319999884,0.0,0.0,0.0,0.0,0.0,0.0,0.0,0.0,0.0,0.0,0.017057418823242188,139.734375,6.1406707763671875,0.0,0.0,0.0,1,1789167947.834412,38.99028680666667,-76.94089791,-9.347999999999999,0,1,9.759376000000001,6.185169,49.801249000000006,1,1,1789167948.0055811,-0.8278949393862951,0.5603163311929027,-0.0012767474957808874,-0.02517832903351789,177.6916283497068,-1.7380293927741695,-68.14498338100721,-0.001484227995895978,-0.0025994933879203543,-0.00017174039839624203,0.3045945540237427,0.3981499965667724,-9.699169275970458
2026-09-11T19:05:48.050,2.8061650559999975,0.0,0.0,0.0,0.0,0.0,0.0,0.0,0.0,0.0,0.0,0.017057418823242188,139.734375,6.1406707763671875,0.0,0.0,0.0,1,1789167947.834412,38.99028680666667,-76.94089791,-9.347999999999999,0,1,9.759376000000001,6.185169,49.801249000000006,1,1,1789167948.0448806,-0.8279021153222134,0.5603063891439553,-0.0012674191439661273,-0.02516408905922003,177.6923613685777,-1.7362016341123816,-68.14362648358518,0.0002548180707911721,0.001208116908230475,0.0008175122216341439,0.30910561309814455,0.3928544054794311,-9.700149940986634
2026-09-11T19:05:48.083,2.8395664639999723,0.0,0.0,0.0,0.0,0.0,0.0,0.0,0.0,0.0,0.0,0.017057418823242188,139.734375,6.1406707763671875,0.0,0.0,0.0,1,1789167947.834412,38.99028680666667,-76.94089791,-9.347999999999999,0,1,9.759376000000001,6.185169,49.801249000000006,1,1,1789167948.0768805,-0.8278962449179418,0.560315220050773,-0.0012937956459455875,-0.025159251241877047,177.69453215914714,-1.7384189785249802,-68.14483024484588,-0.00034208453339088857,0.0014583971229664616,-0.0003159045946109737,0.3003776944541931,0.3946196025085449,-9.683968968219757
2026-09-11T19:05:48.117,2.8729668799999786,0.0,0.0,0.0,0.0,0.0,0.0,0.0,0.0,0.0,0.0,0.017057418823242188,139.734375,6.1406707763671875,0.0,0.0,0.0,1,1789167947.834412,38.99028680666667,-76.94089791,-9.347999999999999,0,1,9.759376000000001,6.185169,49.801249000000006,1,1,1789167948.1048806,-0.8278985953400687,0.5603123684503525,-0.0012673697706208041,-0.025146756637032346,177.69401699055962,-1.7351003114225727,-68.14446752014045,-0.0009061749476354559,-0.002510656128993843,0.0005066690818539539,0.3066539505577087,0.39520800151824953,-9.690931689834594
2026-09-11T19:05:48.151,2.9063770879999993,0.0,0.0,0.0,0.0,0.0,0.0,0.0,0.0,0.0,0.0,0.017057418823242188,139.734375,6.1406707763671875,0.0,0.0,0.0,1,1789167947.834412,38.99028680666667,-76.94089791,-9.347999999999999,0,1,9.759376000000001,6.185169,49.801249000000006,1,1,1789167948.1448805,-0.827920178361209,0.5602792712713184,-0.0011996561937008608,-0.025176919411261958,177.6867372775272,-1.7305183590651136,-68.13992117786239,-0.0008295549934729049,0.0016873843208281179,-0.0015592771537317341,0.3039080885124207,0.39442346950531004,-9.69269688686371
2026-09-11T19:05:48.183,2.9397783679999634,0.0,0.0,0.0,0.0,0.0,0.0,0.0,0.0,0.0,0.0,0.017057418823242188,139.734375,6.1406707763671875,0.0,0.0,0.0,1,1789167947.834412,38.99028680666667,-76.94089791,-9.347999999999999,0,1,9.759376000000001,6.185169,49.801249000000006,1,1,1789167948.1768806,-0.8279197938882418,0.5602781965115592,-0.0012270748589250208,-0.025212133767223536,177.68514976971684,-1.7353795820725557,-68.13972162542771,-0.0004897393881096089,0.002017251549455046,-0.0006581636609270617,0.31106694313049316,0.39530606801986695,-9.700934472999572
2026-09-11T19:05:48.217,2.9731814079999594,0.0,0.0,0.0,0.0,0.0,0.0,0.0,0.0,0.0,0.0,0.017057418823242188,139.734375,6.1406707763671875,0.0,0.0,0.0,1,1789167947.834412,38.99028680666667,-76.94089791,-9.347999999999999,0,1,9.759376000000001,6.185169,49.801249000000006,1,1,1789167948.2048805,-0.8279446937551073,0.5602390305376989,-0.001135236886589531,-0.025269032077865735,177.67376999630233,-1.7302071881635057,-68.13433642093418,-0.0005599016240397809,-0.0013383184704292518,-4.71238898038469e-05,0.30282935699462893,0.3961886665344238,-9.695933081417083
2026-09-11T19:05:48.250,3.0065844160000097,0.0,0.0,0.0,0.0,0.0,0.0,0.0,0.0,0.0,0.0,0.017057418823242188,139.734375,6.1406707763671875,0.0,0.0,0.0,1,1789167947.834412,38.99028680666667,-76.94089791,-9.347999999999999,0,1,9.759376000000001,6.185169,49.801249000000006,1,1,1789167948.2448804,-0.8279564126711771,0.5602221016943104,-0.0011400873713744277,-0.025260160147373947,177.67488860946926,-1.7300502713453012,-68.13199652387026,-0.0020032889154390915,-0.00012880529879718153,-0.0012531464029319286,0.3066539505577087,0.39403120349884035,-9.697404078941345
2026-09-11T19:05:48.284,3.039994944,0.0,0.0,0.0,0.0,0.0,0.0,0.0,0.0,0.0,0.0,0.017057418823242188,139.734375,6.1406707763671875,0.0,0.0,0.0,1,1789167947.834412,38.99028680666667,-76.94089791,-9.347999999999999,0,1,9.759376000000001,6.185169,49.801249000000006,1,1,1789167948.2768805,-0.8279540242482295,0.5602270901225352,-0.0011968982244933751,-0.025225159239124873,177.68186909142023,-1.7332088949291715,-68.13266505801725,-0.001308996938995747,0.000614355896702004,-0.0014852751934471744,0.3039080885124207,0.3955022010231018,-9.693873684883117
2026-09-11T19:05:48.317,3.0734063680000077,0.0,0.0,0.0,0.0,0.0,0.0,0.0,0.0,0.0,0.0,0.017057418823242188,139.734375,6.1406707763671875,0.0,0.0,0.0,1,1789167947.834412,38.99028680666667,-76.94089791,-9.347999999999999,0,1,9.759376000000001,6.185169,49.801249000000006,1,1,1789167948.3048806,-0.8279633735451085,0.5602122926662191,-0.0011593493041353205,-0.025248665759845558,177.67719591835507,-1.7311129093207562,-68.13063143208431,0.0006342526501747393,-0.0028192303407464404,0.0005867796945204936,0.3071442830657959,0.38981434392929076,-9.694952416400909
2026-09-11T19:05:48.350,3.106808447999981,0.0,0.0,0.0,0.0,0.0,0.0,0.0,0.0,0.0,0.0,0.017057418823242188,139.734375,6.1406707763671875,0.0,0.0,0.0,1,1789167947.834412,38.99028680666667,-76.94089791,-9.347999999999999,0,1,9.759376000000001,6.185169,49.801249000000006,1,1,1789167948.3448806,-0.8279879164794393,0.5601740793214833,-0.0010782664222780262,-0.025295224092471275,177.6674910257351,-1.726298874660346,-68.12537830604684,-0.0018601719167755564,0.00031328660073298215,-0.0003282964323001334,0.30783074857711795,0.3945215360069275,-9.695638881912231
2026-09-11T19:05:48.384,3.1402086719999716,0.0,0.0,0.0,0.0,0.0,0.0,0.0,0.0,0.0,0.0,0.017057418823242188,139.734375,6.1406707763671875,0.0,0.0,0.0,1,1789167947.834412,38.99028680666667,-76.94089791,-9.347999999999999,0,1,9.759376000000001,6.185169,49.801249000000006,1,1,1789167948.3758805,-0.8279827465157539,0.5601835194138319,-0.0011208277881844496,-0.025253510536773785,177.67420395797586,-1.7276867556268043,-68.12667963761413,-0.0013388420692048502,-0.0018380062352752284,0.00016650441064025904,0.3039080885124207,0.3954041345214844,-9.688872293300628
2026-09-11T19:05:48.418,3.173619359999975,0.0,0.0,0.0,0.0,0.0,0.0,0.0,0.0,0.0,0.0,0.017057418823242188,139.734375,6.1406707763671875,0.0,0.0,0.0,1,1789167947.834412,38.99028680666667,-76.94089791,-9.347999999999999,0,1,9.759376000000001,6.185169,49.801249000000006,1,1,1789167948.4048805,-0.8279971283267544,0.5601613015816312,-0.0011057813144323481,-0.025275461236258772,177.6711070795232,-1.7276056494254615,-68.1236014068044,0.0009271188986593879,-0.0020025907837382937,-0.0008691739674931761,0.30557521903991697,0.3974635310554504,-9.693677551879883
2026-09-11T19:05:48.451,3.207030111999984,0.0,0.0,0.0,0.0,0.0,0.0,0.0,0.0,0.0,0.0,0.017057418823242188,139.734375,6.1406707763671875,0.0,0.0,0.0,1,1789167947.834412,38.99028680666667,-76.94089791,-9.347999999999999,0,1,9.759376000000001,6.185169,49.801249000000006,1,1,1789167948.4448805,-0.8279954230258223,0.5601646458868333,-0.0011400397473832872,-0.025255677701112478,177.67519136969085,-1.7295966019599958,-68.12404965433626,-0.002156354290838994,-0.0017505652397503126,-0.0003558726344816438,0.3031235564994812,0.39471766901016236,-9.695148549404145
2026-09-11T19:05:48.484,3.240438719999986,0.0,0.0,0.0,0.0,0.0,0.0,0.0,0.0,0.0,0.0,0.017057418823242188,139.734375,6.1406707763671875,0.0,0.0,0.0,1,1789167947.834412,38.99028680666667,-76.94089791,-9.347999999999999,0,1,9.759376000000001,6.185169,49.801249000000006,1,1,1789167948.4768806,-0.8279769130706575,0.5601968338013603,-0.0013024751291463273,-0.02514045304790263,177.69662628992464,-1.7377060722888407,-68.12845516396571,-0.0009164723902222225,-0.0012219050093212301,-0.0012486085468767436,0.3121456746482849,0.39305053848266597,-9.700444140491486
2026-09-11T19:05:48.518,3.273840287999974,0.0,0.0,0.0,0.0,0.0,0.0,0.0,0.0,0.0,0.0,0.017057418823242188,139.734375,6.1406707763671875,0.0,0.0,0.0,1,1789167947.834412,38.99028680666667,-76.94089791,-9.347999999999999,0,1,9.759376000000001,6.185169,49.801249000000006,1,1,1789167948.5048804,-0.8279862612933038,0.5601808340893777,-0.0012180450674660992,-0.02519326486741252,177.6861588396493,-1.7330385853416048,-68.12627115267516,0.0015325736161762207,0.0007044148861049114,0.002055474260073722,0.3003776944541931,0.3922660064697266,-9.69416788438797
2026-09-11T19:05:48.551,3.307250111999963,0.0,0.0,0.0,0.0,0.0,0.0,0.0,0.0,0.0,0.0,0.017057418823242188,139.734375,6.1406707763671875,0.0,0.0,0.0,1,1789167947.834412,38.99028680666667,-76.94089791,-9.347999999999999,0,1,9.759376000000001,6.185169,49.801249000000006,1,1,1789167948.5448806,-0.8279860437046294,0.5601831984942082,-0.0013353026386003935,-0.025141848023119962,177.6985714703985,-1.7408738404383943,-68.12654000250242,-0.001171464993938594,-0.0006511823439190844,-0.0009995500626171527,0.30783074857711795,0.3957964005279541,-9.699169275970458
2026-09-11T19:05:48.584,3.3406590399999914,0.0,0.0,0.0,0.0,0.0,0.0,0.0,0.0,0.0,0.0,0.017057418823242188,139.734375,6.1406707763671875,0.0,0.0,0.0,1,1789167947.834412,38.99028680666667,-76.94089791,-9.347999999999999,0,1,9.759376000000001,6.185169,49.801249000000006,1,1,1789167948.5768805,-0.8279929277498443,0.5601725336381583,-0.0012689384480699712,-0.025156191064278275,177.69292857484479,-1.7354656734405327,-68.12510844800056,-0.00027192229746071656,-0.002516415715525424,-0.0007641051465231175,0.30263322399139403,0.39589446702957154,-9.69416788438797
2026-09-11T19:05:48.618,3.3740614399999913,0.0,0.0,0.0,0.0,0.0,0.0,0.0,0.0,0.0,0.0,0.017057418823242188,139.734375,6.1406707763671875,0.0,0.0,0.0,1,1789167947.834412,38.99028680666667,-76.94089791,-9.347999999999999,0,1,9.759376000000001,6.185169,49.801249000000006,1,1,1789167948.6038806,-0.8279876399261528,0.5601803647553297,-0.0013289292979803294,-0.02515275370662763,177.69712063848138,-1.7409613128572508,-68.12614462590685,0.0002696533694331239,0.002033657644423793,0.0013540264336972007,0.3031235564994812,0.39510993501663205,-9.684459300727845
2026-09-11T19:05:48.651,3.407464319999974,0.0,0.0,0.0,0.0,0.0,0.0,0.0,0.0,0.0,0.0,0.017057418823242188,139.734375,6.1406707763671875,0.0,0.0,0.0,1,1789167947.834412,38.99028680666667,-76.94089791,-9.347999999999999,0,1,9.759376000000001,6.185169,49.801249000000006,1,1,1789167948.6448805,-0.8279727584945039,0.5602059625801316,-0.001449657137187012,-0.02506569717472212,177.71319043407885,-1.7469014944532797,-68.12965644167873,-9.459684545809267e-05,-0.0009759881177152291,-0.0008967501696746866,0.30361388900756836,0.3942273365020752,-9.700934472999572
2026-09-11T19:05:48.684,3.4408650880000096,0.0,0.0,0.0,0.0,0.0,0.0,0.0,0.0,0.0,0.0,0.017057418823242188,139.734375,6.1406707763671875,0.0,0.0,0.0,1,1789167947.834412,38.99028680666667,-76.94089791,-9.347999999999999,0,1,9.759376000000001,6.185169,49.801249000000006,1,1,1789167948.6758804,-0.8279614165819649,0.5602221886542453,-0.0014146592184610353,-0.025079687604295717,177.70965000749803,-1.744522741461055,-68.13191903764404,0.0006735225583446117,-0.00029426251188624395,0.0008400269689848708,0.3083210810852051,0.3943254030036927,-9.701915138015746
2026-09-11T19:05:48.718,3.4742675839999606,0.0,0.0,0.0,0.0,0.0,0.0,0.0,0.0,0.0,0.0,0.017057418823242188,139.734375,6.1406707763671875,0.0,0.0,0.0,1,1789167947.834412,38.99028680666667,-76.94089791,-9.347999999999999,0,1,9.759376000000001,6.185169,49.801249000000006,1,1,1789167948.7158806,-0.8279648422489808,0.5602163693823304,-0.0013872531435873262,-0.02509810758635311,177.70612950992341,-1.7430881711009087,-68.13112162226878,-0.0011084586079415986,-0.001369036265264352,0.0007852236304722489,0.3084191475868225,0.3943254030036927,-9.697698278446198
2026-09-11T19:05:48.753,3.5076769279999667,0.0,0.0,0.0,0.0,0.0,0.0,0.0,0.0,0.0,0.0,0.017057418823242188,139.734375,6.1406707763671875,0.0,0.0,0.0,1,1789167947.834412,38.99028680666667,-76.94089791,-9.347999999999999,0,1,9.759376000000001,6.185169,49.801249000000006,1,1,1789167948.7448804,-0.827981513089789,0.5601909449655397,-0.0013402500489847291,-0.02511817847626204,177.7011535824315,-1.7398449764262207,-68.12762636388605,0.0009379399400217528,-0.0014414674292221167,-0.0003143337982841788,0.3058694185447693,0.39403120349884035,-9.69416788438797
2026-09-11T19:05:48.785,3.5411014079999745,0.0,0.0,0.0,0.0,0.0,0.0,0.0,0.0,0.0,0.0,0.017057418823242188,139.734375,6.1406707763671875,0.0,0.0,0.0,1,1789167947.834412,38.99028680666667,-76.94089791,-9.347999999999999,0,1,9.759376000000001,6.185169,49.801249000000006,1,1,1789167948.7768805,-0.8279886211811812,0.5601801477350161,-0.0013015633532423734,-0.025126703144252836,177.6978389125698,-1.7366901397787433,-68.12615775086502,0.0010524335389525807,-0.0007075564787585012,-0.0019242255003237483,0.30439842102050785,0.3942273365020752,-9.692893019866943
2026-09-11T19:05:48.819,3.5745504639999695,0.0,0.0,0.0,0.0,0.0,0.0,0.0,0.0,0.0,0.0,0.017057418823242188,139.734375,6.1406707763671875,0.0,0.0,0.0,1,1789167947.834412,38.99028680666667,-76.94089791,-9.347999999999999,0,1,9.759376000000001,6.185169,49.801249000000006,1,1,1789167948.8168805,-0.8280131375980808,0.5601398288821484,-0.0011821980874491425,-0.025223371553806162,177.68091323681446,-1.7314544197850914,-68.12060444714608,-0.0021378538007678543,-0.0017332864801555686,-0.0012529718700067293,0.30910561309814455,0.39520800151824953,-9.688381960792542
2026-09-11T19:05:48.853,3.6080136960000004,0.0,0.0,0.0,0.0,0.0,0.0,0.0,0.0,0.0,0.0,0.017057418823242188,139.734375,6.1406707763671875,0.0,0.0,0.0,1,1789167948.8323028,38.99028671166667,-76.940898,-9.358,0,1,9.759376000000001,6.185169,49.801249000000006,1,1,1789167948.8448806,-0.8279976710703523,0.5601647600544789,-0.0013185577382298778,-0.025170611845401265,177.69472600394727,-1.7410801650434564,-68.12397998702937,0.0008845328649107263,-0.0008410741665360673,0.0005256931707006921,0.3095959456062317,0.39481573551177973,-9.703680335044861
2026-09-11T19:05:48.885,3.6414193279999836,0.0,0.0,0.0,0.0,0.0,0.0,0.0,0.0,0.0,0.0,0.017057418823242188,139.734375,6.1406707763671875,0.0,0.0,0.0,1,1789167948.8323028,38.99028671166667,-76.940898,-9.358,0,1,9.759376000000001,6.185169,49.801249000000006,1,1,1789167948.8768806,-0.8279993915244256,0.5601619045475633,-0.0012932867652435676,-0.025178874839243196,177.6923136904868,-1.739203969719224,-68.12359950087277,0.0019289378893041329,0.0016231562043547264,-0.0013252285010392944,0.30685008356094357,0.3974635310554504,-9.693383352375031
2026-09-11T19:05:48.919,3.6748291519999725,0.0,0.0,0.0,0.0,0.0,0.0,0.0,0.0,0.0,0.0,0.017057418823242188,139.734375,6.1406707763671875,0.0,0.0,0.0,1,1789167948.8323028,38.99028671166667,-76.940898,-9.358,0,1,9.759376000000001,6.185169,49.801249000000006,1,1,1789167948.9168806,-0.8280047081223866,0.5601545966837816,-0.0012966044214668972,-0.02516644508399533,177.69369195543663,-1.73870037403443,-68.12259525658706,-0.002156703356689393,-0.002492504704773102,-0.0029265680897440915,0.3058694185447693,0.39403120349884035,-9.695148549404145
2026-09-11T19:05:48.953,3.7082464000000073,0.0,0.0,0.0,0.0,0.0,0.0,0.0,0.0,0.0,0.0,0.017057418823242188,139.734375,6.1406707763671875,0.0,0.0,0.0,1,1789167948.8323028,38.99028671166667,-76.940898,-9.358,0,1,9.759376000000001,6.185169,49.801249000000006,1,1,1789167948.9448805,-0.8280129755717883,0.5601415097583387,-0.0013176012588196292,-0.025184623430278403,177.6932847459001,-1.7418243739863615,-68.12075264167913,0.0007967428035354115,-0.0005820673055401089,-0.0002804744107954888,0.3061636180496216,0.3955022010231018,-9.694462083892823
2026-09-11T19:05:48.986,3.7416608319999796,0.0,0.0,0.0,0.0,0.0,0.0,0.0,0.0,0.0,0.0,0.017057418823242188,139.734375,6.1406707763671875,0.0,0.0,0.0,1,1789167948.8323028,38.99028671166667,-76.940898,-9.358,0,1,9.759376000000001,6.185169,49.801249000000006,1,1,1789167948.9768806,-0.8280203915501985,0.560129465650342,-0.0012941629134546133,-0.025209879604466693,177.68935647657065,-1.7411876090635108,-68.11908591765565,0.0014643312424232424,0.002851169866057937,-0.0007820820378186591,0.30488875352859496,0.3935408709907532,-9.695442748908997
2026-09-11T19:05:49.019,3.775066623999976,0.0,0.0,0.0,0.0,0.0,0.0,0.0,0.0,0.0,0.0,0.017057418823242188,139.734375,6.1406707763671875,0.0,0.0,0.0,1,1789167948.8323028,38.99028671166667,-76.940898,-9.358,0,1,9.759376000000001,6.185169,49.801249000000006,1,1,1789167949.0168805,-0.8280331049597371,0.5601109208388996,-0.0012592304802848237,-0.02520610613193991,177.68743491632054,-1.737577476516269,-68.11655231364968,-0.0004429645641561608,-0.003283836987627331,-0.0019123572614101868,0.30989014511108404,0.3928544054794311,-9.70142480550766
2026-09-11T19:05:49.053,3.808472927999958,0.0,0.0,0.0,0.0,0.0,0.0,0.0,0.0,0.0,0.0,0.017057418823242188,139.734375,6.1406707763671875,0.0,0.0,0.0,1,1789167948.8323028,38.99028671166667,-76.940898,-9.358,0,1,9.759376000000001,6.185169,49.801249000000006,1,1,1789167949.0448806,-0.8280143923955129,0.5601408919556071,-0.0013303706245679835,-0.025151088625896555,177.69728833283725,-1.7408814586092252,-68.12068282483682,0.0009911724822075797,0.001417381885544595,0.001978854305911171,0.3074384825706482,0.3917756739616394,-9.697698278446198
2026-09-11T19:05:49.086,3.8418752640000093,0.0,0.0,0.0,0.0,0.0,0.0,0.0,0.0,0.0,0.0,0.017057418823242188,139.734375,6.1406707763671875,0.0,0.0,0.0,1,1789167948.8323028,38.99028671166667,-76.940898,-9.358,0,1,9.759376000000001,6.185169,49.801249000000006,1,1,1789167949.0768805,-0.8280218123902281,0.5601290530673788,-0.0013344711815439939,-0.02517024637362845,177.69570662546175,-1.7424679407137256,-68.11902626894322,0.0002181661564992912,-6.667157742618339e-05,0.0018945549030398446,0.3066539505577087,0.3955022010231018,-9.693187219371795
2026-09-11T19:05:49.120,3.8752911039999844,0.0,0.0,0.0,0.0,0.0,0.0,0.0,0.0,0.0,0.0,0.017057418823242188,139.734375,6.1406707763671875,0.0,0.0,0.0,1,1789167948.8323028,38.99028671166667,-76.940898,-9.358,0,1,9.759376000000001,6.185169,49.801249000000006,1,1,1789167949.1168804,-0.8280611892160477,0.5600675428550037,-0.0011920374814889984,-0.02525061189567675,177.67880550792424,-1.73393503583457,-68.11057292572173,0.00015899949485668344,-0.0027555258230486475,-0.002344151718353584,0.30861528059005733,0.3964828660392761,-9.70064027349472
2026-09-11T19:05:49.153,3.9087128639999946,0.0,0.0,0.0,0.0,0.0,0.0,0.0,0.0,0.0,0.0,0.017057418823242188,139.734375,6.1406707763671875,0.0,0.0,0.0,1,1789167948.8323028,38.99028671166667,-76.940898,-9.358,0,1,9.759376000000001,6.185169,49.801249000000006,1,1,1789167949.1448805,-0.8280508903226911,0.5600828991640081,-0.0012504501095106108,-0.025244909870349056,177.6831265432239,-1.739157137126766,-68.1126521882063,0.0015215780418886564,0.001500808623789924,0.0018476055461611972,0.30635975105285645,0.39520800151824953,-9.696619546928405
2026-09-11T19:05:49.186,3.9421194560000004,0.0,0.0,0.0,0.0,0.0,0.0,0.0,0.0,0.0,0.0,0.017057418823242188,139.734375,6.1406707763671875,0.0,0.0,0.0,1,1789167948.8323028,38.99028671166667,-76.940898,-9.358,0,1,9.759376000000001,6.185169,49.801249000000006,1,1,1789167949.1768806,-0.8280501838412557,0.5600838705754339,-0.0013211817090175596,-0.02524292852651741,177.6878542963145,-1.7457472778973702,-68.11272856163565,6.736970912698112e-05,0.003859970173710659,-0.000765501409924713,0.3093017461013794,0.39599253353118896,-9.701620938510894
2026-09-11T19:05:49.220,3.9755234239999595,0.0,0.0,0.0,0.0,0.0,0.0,0.0,0.0,0.0,0.0,0.017057418823242188,139.734375,6.1406707763671875,0.0,0.0,0.0,1,1789167948.8323028,38.99028671166667,-76.940898,-9.358,0,1,9.759376000000001,6.185169,49.801249000000006,1,1,1789167949.2168806,-0.8280460289152252,0.5600929215841102,-0.0013282590381126329,-0.025177945051767764,177.69450074707453,-1.7422720031035177,-68.11402602443138,5.4977871437821384e-05,-0.0010730284241261137,-0.0016643459747017926,0.3051829530334472,0.39442346950531004,-9.689166492805482
2026-09-11T19:05:49.253,4.008929152000007,0.0,0.0,0.0,0.0,0.0,0.0,0.0,0.0,0.0,0.0,0.017057418823242188,139.734375,6.1406707763671875,0.0,0.0,0.0,1,1789167948.8323028,38.99028671166667,-76.940898,-9.358,0,1,9.759376000000001,6.185169,49.801249000000006,1,1,1789167949.2448804,-0.8280481338985842,0.5600891974341005,-0.0013383904220108116,-0.02519102172949534,177.69390058793712,-1.7440630281455562,-68.11349205188256,0.0007075564787585012,0.00016702800941585734,0.001984264826592353,0.3095959456062317,0.3935408709907532,-9.69642341392517
2026-09-11T19:05:49.286,4.042330784000001,0.0,0.0,0.0,0.0,0.0,0.0,0.0,0.0,0.0,0.0,0.017057418823242188,139.734375,6.1406707763671875,0.0,0.0,0.0,1,1789167948.8323028,38.99028671166667,-76.940898,-9.358,0,1,9.759376000000001,6.185169,49.801249000000006,1,1,1789167949.2768805,-0.8280582063200255,0.5600746400926199,-0.001329744742361005,-0.025184047532208678,177.693977873075,-1.7427539664258827,-68.11149052057,0.0003717551306747922,0.0021425661897482387,-0.0009208357133522083,0.3018486919784546,0.3976596640586853,-9.69416788438797
2026-09-11T19:05:49.320,4.075737919999995,0.0,0.0,0.0,0.0,0.0,0.0,0.0,0.0,0.0,0.0,0.017057418823242188,139.734375,6.1406707763671875,0.0,0.0,0.0,1,1789167948.8323028,38.99028671166667,-76.940898,-9.358,0,1,9.759376000000001,6.185169,49.801249000000006,1,1,1789167949.3168805,-0.8280461025197945,0.5600948639792896,-0.0013798709999776075,-0.025129492669419478,177.70241875958547,-1.744065979978274,-68.11429018471688,0.00137584304934713,-0.00014451326206513048,-0.0005602506898901797,0.30763461557388305,0.39569833402633664,-9.69720794593811
2026-09-11T19:05:49.353,4.109157247999974,0.0,0.0,0.0,0.0,0.0,0.0,0.0,0.0,0.0,0.0,0.017057418823242188,139.734375,6.1406707763671875,0.0,0.0,0.0,1,1789167948.8323028,38.99028671166667,-76.940898,-9.358,0,1,9.759376000000001,6.185169,49.801249000000006,1,1,1789167949.3448806,-0.828062920273782,0.5600681533511961,-0.001255418077720891,-0.0251771244364299,177.68985393462893,-1.7352353996239462,-68.11066075845842,-0.00011397000015522972,0.00015603243512829306,0.0008696975662687744,0.30233902448654176,0.39569833402633664,-9.695638881912231
2026-09-11T19:05:49.386,4.142557727999986,0.0,0.0,0.0,0.0,0.0,0.0,0.0,0.0,0.0,0.0,0.017057418823242188,139.734375,6.1406707763671875,0.0,0.0,0.0,1,1789167948.8323028,38.99028671166667,-76.940898,-9.358,0,1,9.759376000000001,6.185169,49.801249000000006,1,1,1789167949.3768806,-0.8280773988883671,0.560045828674632,-0.0012478880188890522,-0.02519789693432894,177.68735071777039,-1.7357919035100593,-68.10756206883941,-0.0012901473830742084,0.0003700098014227979,-0.0013791591749259193,0.3071442830657959,0.39471766901016236,-9.687401295776368
2026-09-11T19:05:49.420,4.175962111999979,0.0,0.0,0.0,0.0,0.0,0.0,0.0,0.0,0.0,0.0,0.017057418823242188,139.734375,6.1406707763671875,0.0,0.0,0.0,1,1789167948.8323028,38.99028671166667,-76.940898,-9.358,0,1,9.759376000000001,6.185169,49.801249000000006,1,1,1789167949.4168806,-0.8280721702420857,0.5600528316621572,-0.001217050421825568,-0.025215578637666405,177.6837074505588,-1.734019146464873,-68.10854341380133,0.0010962413031776386,-3.3859387488689995e-05,0.0007332128187628179,0.3050848865318298,0.39736546455383304,-9.686616763763427
2026-09-11T19:05:49.453,4.209380383999985,0.0,0.0,0.0,0.0,0.0,0.0,0.0,0.0,0.0,0.0,0.017057418823242188,139.734375,6.1406707763671875,0.0,0.0,0.0,1,1789167948.8323028,38.99028671166667,-76.940898,-9.358,0,1,9.759376000000001,6.185169,49.801249000000006,1,1,1789167949.4448805,-0.828072733160448,0.560053465917588,-0.0012821823617002058,-0.02517975214877671,177.69129039603055,-1.7379039689632183,-68.10860399179928,-0.0007038912873293131,0.002414313954283756,-0.0005646140130201655,0.30694815006256104,0.39275633897781376,-9.690147157821656
2026-09-11T19:05:49.487,4.24278729599996,0.0,0.0,0.0,0.0,0.0,0.0,0.0,0.0,0.0,0.0,0.017057418823242188,139.734375,6.1406707763671875,0.0,0.0,0.0,1,1789167948.8323028,38.99028671166667,-76.940898,-9.358,0,1,9.759376000000001,6.185169,49.801249000000006,1,1,1789167949.4758806,-0.82806152756897,0.5600705848161184,-0.001300000301552975,-0.02516657670583821,177.69372098804882,-1.7387972608262137,-68.1109679375185,-0.0013243558364132973,0.0006536258048718764,-0.0001059414855960558,0.3093998126029968,0.3950118685150147,-9.693873684883117
2026-09-11T19:05:49.521,4.276203199999998,0.0,0.0,0.0,0.0,0.0,0.0,0.0,0.0,0.0,0.0,0.017057418823242188,139.734375,6.1406707763671875,0.0,0.0,0.0,1,1789167948.8323028,38.99028671166667,-76.940898,-9.358,0,1,9.759376000000001,6.185169,49.801249000000006,1,1,1789167949.5168805,-0.8280449896357027,0.5600981917811761,-0.0013611649957944877,-0.025092985723505056,177.70469380997946,-1.7399554231420034,-68.1147946308186,0.00077562431958628,0.0005583308277129859,0.0010484192816729938,0.2971414999008179,0.3949138020133972,-9.689166492805482
2026-09-11T19:05:49.553,4.309607008,0.0,0.0,0.0,0.0,0.0,0.0,0.0,0.0,0.0,0.0,0.017057418823242188,139.734375,6.1406707763671875,0.0,0.0,0.0,1,1789167948.8323028,38.99028671166667,-76.940898,-9.358,0,1,9.759376000000001,6.185169,49.801249000000006,1,1,1789167949.5448806,-0.8280499297194598,0.5600908830758081,-0.0013769773018434074,-0.025092240244129087,177.70576367063353,-1.7413883837295567,-68.11377097705942,-0.0015515977050229591,0.00073565627971561,-0.0018989182261698304,0.30910561309814455,0.3933447379875183,-9.704170667552948
2026-09-11T19:05:49.587,4.343011167999975,0.0,0.0,0.0,0.0,0.0,0.0,0.0,0.0,0.0,0.0,0.017057418823242188,139.734375,6.1406707763671875,0.0,0.0,0.0,1,1789167948.8323028,38.99028671166667,-76.940898,-9.358,0,1,9.759376000000001,6.185169,49.801249000000006,1,1,1789167949.5768805,-0.8280626869947741,0.5600710605494642,-0.0012969961086723375,-0.02511794862418593,177.6981489415718,-1.7353912535280986,-68.11107431394274,-0.0010581931254841621,-0.0006199409503083859,-0.0004302236606166022,0.30341775600433346,0.3936389374923706,-9.684655433731079
2026-09-11T19:05:49.621,4.3764315519999855,0.0,0.0,0.0,0.0,0.0,0.0,0.0,0.0,0.0,0.0,0.017057418823242188,139.734375,6.1406707763671875,0.0,0.0,0.0,1,1789167948.8323028,38.99028671166667,-76.940898,-9.358,0,1,9.759376000000001,6.185169,49.801249000000006,1,1,1789167949.6168804,-0.8280828597227897,0.5600373570294259,-0.001247594426362805,-0.025206738642063766,177.6864741484031,-1.7363080218181555,-68.10638328756708,0.0005892231554732857,0.002992716068394677,0.0004691445029360758,0.30783074857711795,0.3955022010231018,-9.692402687358856
2026-09-11T19:05:49.654,4.409851679999974,0.0,0.0,0.0,0.0,0.0,0.0,0.0,0.0,0.0,0.0,0.017057418823242188,139.734375,6.1406707763671875,0.0,0.0,0.0,1,1789167948.8323028,38.99028671166667,-76.940898,-9.358,0,1,9.759376000000001,6.185169,49.801249000000006,1,1,1789167949.6448805,-0.8280857325030574,0.5600331931271826,-0.0012065517329514716,-0.025206873141317206,177.68381996026204,-1.7324086420455072,-68.10584204668166,-0.0007255333700540428,-0.0005380850083898517,-0.000342259066316088,0.3050848865318298,0.39373700399398803,-9.696717613430023
2026-09-11T19:05:49.687,4.443248863999997,0.0,0.0,0.0,0.0,0.0,0.0,0.0,0.0,0.0,0.0,0.017057418823242188,139.734375,6.1406707763671875,0.0,0.0,0.0,1,1789167948.8323028,38.99028671166667,-76.940898,-9.358,0,1,9.759376000000001,6.185169,49.801249000000006,1,1,1789167949.6768806,-0.828107615954438,0.559997629507374,-0.0011486624219876097,-0.02528066294659251,177.67302205657418,-1.7315503593821264,-68.10091404229205,-0.0011920598791121271,-0.002251823800923084,-0.00014573499254152652,0.30812494808197016,0.3955022010231018,-9.695933081417083
2026-09-11T19:05:49.720,4.476654015999998,0.0,0.0,0.0,0.0,0.0,0.0,0.0,0.0,0.0,0.0,0.017057418823242188,139.734375,6.1406707763671875,0.0,0.0,0.0,1,1789167948.8323028,38.99028671166667,-76.940898,-9.358,0,1,9.759376000000001,6.185169,49.801249000000006,1,1,1789167949.7168806,-0.8281054037225883,0.5600012501944083,-0.001195494057771977,-0.025270751870617822,177.67697506876505,-1.7353703335764943,-68.10138219043878,0.0005555383009097951,0.002718524842906368,-0.0012416272298687659,0.310576610622406,0.39530606801986695,-9.7022093375206
2026-09-11T19:05:49.754,4.510058047999962,0.0,0.0,0.0,0.0,0.0,0.0,0.0,0.0,0.0,0.0,0.017057418823242188,139.734375,6.1406707763671875,0.0,0.0,0.0,1,1789167948.8323028,38.99028671166667,-76.940898,-9.358,0,1,9.759376000000001,6.185169,49.801249000000006,1,1,1789167949.7448804,-0.8280949646041837,0.560018424119578,-0.0012520953910879905,-0.02522947682675844,177.68456294915634,-1.7381422030206766,-68.10374219209885,-0.0002722713633111154,-3.560471674068433e-05,0.0006485643500410928,0.3053790860366821,0.3955022010231018,-9.694462083892823
2026-09-11T19:05:49.787,4.543466911999985,0.0,0.0,0.0,0.0,0.0,0.0,0.0,0.0,0.0,0.0,0.017057418823242188,139.734375,6.1406707763671875,0.0,0.0,0.0,1,1789167948.8323028,38.99028671166667,-76.940898,-9.358,0,1,9.759376000000001,6.185169,49.801249000000006,1,1,1789167949.7768805,-0.828098766341082,0.5600135117150571,-0.0012566015435977952,-0.025213504982616087,177.68635908341662,-1.737530909757889,-68.10307122131933,-0.000670380965691022,-0.002386039620401448,-0.0015275121613454372,0.30685008356094357,0.3942273365020752,-9.691716221847535
2026-09-11T19:05:49.822,4.576886335999973,0.0,0.0,0.0,0.0,0.0,0.0,0.0,0.0,0.0,0.0,0.017057418823242188,139.734375,6.1406707763671875,0.0,0.0,0.0,1,1789167948.8323028,38.99028671166667,-76.940898,-9.358,0,1,9.759376000000001,6.185169,49.801249000000006,1,1,1789167949.8168805,-0.8281190079173848,0.5599803008450164,-0.0011692624302956157,-0.025290397719692978,177.67338222339907,-1.7340823342828395,-68.09849111520559,-0.00017278759594743865,0.0009712757287348443,-0.0002790781473938933,0.30263322399139403,0.39520800151824953,-9.690931689834594
2026-09-11T19:05:49.854,4.610293695999985,0.0,0.0,0.0,0.0,0.0,0.0,0.0,0.0,0.0,0.0,0.017057418823242188,139.734375,6.1406707763671875,0.0,0.0,0.0,1,1789167949.8371906,38.990286641666664,-76.94089811,-9.370000000000001,0,1,9.759376000000001,6.185169,49.787136000000004,1,1,1789167949.8448806,-0.8280990978343372,0.5600136519619247,-0.0012887048243459458,-0.025197877333236116,177.68990327389903,-1.7395758153946652,-68.10307577862079,-0.0007234389749516497,-0.002189166480776488,0.0008169886228585456,0.30861528059005733,0.39481573551177973,-9.69720794593811
2026-09-11T19:05:49.887,4.643694431999961,0.0,0.0,0.0,0.0,0.0,0.0,0.0,0.0,0.0,0.0,0.017057418823242188,139.734375,6.1406707763671875,0.0,0.0,0.0,1,1789167949.8371906,38.990286641666664,-76.94089811,-9.370000000000001,0,1,9.759376000000001,6.185169,49.787136000000004,1,1,1789167949.8768806,-0.8280931730546517,0.560023995471064,-0.0013073706632397888,-0.02516171732718774,177.69455763768144,-1.7390552819769491,-68.10451954983736,-0.0003710569989739945,-0.0020732766184440644,0.0002707005669843205,0.30341775600433346,0.3921679399681091,-9.685243832740785
2026-09-11T19:05:49.921,4.677098720000004,0.0,0.0,0.0,0.0,0.0,0.0,0.0,0.0,0.0,0.0,0.017057418823242188,139.734375,6.1406707763671875,0.0,0.0,0.0,1,1789167949.8371906,38.990286641666664,-76.94089811,-9.370000000000001,0,1,9.759376000000001,6.185169,49.787136000000004,1,1,1789167949.9158804,-0.8281195779146371,0.5599832302281627,-0.001257482683164515,-0.025202485492854733,177.68739902693918,-1.7368225927460808,-68.09888957198444,-0.0002176425577236929,0.001140398133253095,-0.0010208430794914833,0.3073404160690308,0.3920698734664917,-9.698482810459137
2026-09-11T19:05:49.955,4.71051571199996,0.0,0.0,0.0,0.0,0.0,0.0,0.0,0.0,0.0,0.0,0.017057418823242188,139.734375,6.1406707763671875,0.0,0.0,0.0,1,1789167949.8371906,38.990286641666664,-76.94089811,-9.370000000000001,0,1,9.759376000000001,6.185169,49.787136000000004,1,1,1789167949.9448805,-0.828129744551194,0.5599665590144097,-0.0012017652229940404,-0.025241527994248288,177.68008114418055,-1.7339924688172559,-68.09660008524995,0.0006263986685407649,-1.954768762233649e-05,-0.0007976154681614085,0.3071442830657959,0.3981499965667724,-9.691422022342682
2026-09-11T19:05:49.988,4.7439235520000125,0.0,0.0,0.0,0.0,0.0,0.0,0.0,0.0,0.0,0.0,0.017057418823242188,139.734375,6.1406707763671875,0.0,0.0,0.0,1,1789167949.8371906,38.990286641666664,-76.94089811,-9.370000000000001,0,1,9.759376000000001,6.185169,49.787136000000004,1,1,1789167949.9768806,-0.8281261499053509,0.5599729216219526,-0.001245894283900813,-0.025216158322554735,177.6853351324824,-1.7365713177902866,-68.0974624992501,0.0008066911802717791,-0.0014449580877261056,-5.148721293383272e-05,0.3050848865318298,0.39667899904251097,-9.697698278446198
2026-09-11T19:05:50.022,4.777334431999975,0.0,0.0,0.0,0.0,0.0,0.0,0.0,0.0,0.0,0.0,0.017057418823242188,139.734375,6.1406707763671875,0.0,0.0,0.0,1,1789167949.8371906,38.990286641666664,-76.94089811,-9.370000000000001,0,1,9.759376000000001,6.185169,49.787136000000004,1,1,1789167950.0158806,-0.8281335199319074,0.5599613324405096,-0.0012695614619713566,-0.025230290333894262,177.685486111328,-1.7396930720818806,-68.09582801739909,-0.000822748209390127,-0.0008712683625955693,-0.0012438961578963587,0.30861528059005733,0.39403120349884035,-9.697698278446198
2026-09-11T19:05:50.055,4.810744639999996,0.0,0.0,0.0,0.0,0.0,0.0,0.0,0.0,0.0,0.0,0.017057418823242188,139.734375,6.1406707763671875,0.0,0.0,0.0,1,1789167949.8371906,38.990286641666664,-76.94089811,-9.370000000000001,0,1,9.759376000000001,6.185169,49.787136000000004,1,1,1789167950.0448806,-0.8281463236404487,0.5599408349598208,-0.0011984619173956582,-0.025268392792988655,177.6772630166239,-1.7353312467184567,-68.09302306712827,0.000965865208053662,-0.0009028588220566666,-0.0008761552845011534,0.3053790860366821,0.39599253353118896,-9.69112782283783
2026-09-11T19:05:50.088,4.844148959999984,0.0,0.0,0.0,0.0,0.0,0.0,0.0,0.0,0.0,0.0,0.017057418823242188,139.734375,6.1406707763671875,0.0,0.0,0.0,1,1789167949.8371906,38.990286641666664,-76.94089811,-9.370000000000001,0,1,9.759376000000001,6.185169,49.787136000000004,1,1,1789167950.0848806,-0.8281414987708191,0.559950770312573,-0.0013008616588833183,-0.025201202330877356,177.69023503515805,-1.7407680684555367,-68.09436321458568,-0.0016851153928005252,0.0002939134460358451,-0.0005914920835008783,0.30989014511108404,0.3950118685150147,-9.701620938510894
2026-09-11T19:05:50.123,4.877565984,0.0,0.0,0.0,0.0,0.0,0.0,0.0,0.0,0.0,0.0,0.017057418823242188,139.734375,6.1406707763671875,0.0,0.0,0.0,1,1789167949.8371906,38.990286641666664,-76.94089811,-9.370000000000001,0,1,9.759376000000001,6.185169,49.787136000000004,1,1,1789167950.1168804,-0.8281601253893934,0.5599222208918111,-0.0012107519228061528,-0.025227908085834975,177.68185874894004,-1.7338472934203153,-68.09046900143726,-0.0017395696654627481,-0.0017205455766160101,-0.001056622329157367,0.3046926205253601,0.39079500894546504,-9.691912354850768
2026-09-11T19:05:50.155,4.91099081599998,0.0,0.0,0.0,0.0,0.0,0.0,0.0,0.0,0.0,0.0,0.017057418823242188,139.734375,6.1406707763671875,0.0,0.0,0.0,1,1789167949.8371906,38.990286641666664,-76.94089811,-9.370000000000001,0,1,9.759376000000001,6.185169,49.787136000000004,1,1,1789167950.1438806,-0.8281614490965866,0.5599211870093912,-0.0012324992450269848,-0.025206338763231903,177.68530063028336,-1.7345246900414342,-68.09032425202938,0.0009197885158010117,0.0001806415775814131,1.4311699866353502e-05,0.3084191475868225,0.39373700399398803,-9.696717613430023
2026-09-11T19:05:50.187,4.944391456000005,0.0,0.0,0.0,0.0,0.0,0.0,0.0,0.0,0.0,0.0,0.017057418823242188,139.734375,6.1406707763671875,0.0,0.0,0.0,1,1789167949.8371906,38.990286641666664,-76.94089811,-9.370000000000001,0,1,9.759376000000001,6.185169,49.787136000000004,1,1,1789167950.1768806,-0.8281483202718009,0.5599428122178364,-0.0013075594273736198,-0.025153468248328877,177.6951831018886,-1.7383177405452919,-68.09329404740151,0.000642979296434711,-0.0005359906132874587,-0.0002794272132442922,0.3045945540237427,0.39736546455383304,-9.689852958316804
2026-09-11T19:05:50.220,4.977798367999981,0.0,0.0,0.0,0.0,0.0,0.0,0.0,0.0,0.0,0.0,0.017057418823242188,139.734375,6.1406707763671875,0.0,0.0,0.0,1,1789167949.8371906,38.990286641666664,-76.94089811,-9.370000000000001,0,1,9.759376000000001,6.185169,49.787136000000004,1,1,1789167950.2168806,-0.8281564577059225,0.559929696548757,-0.0011935750354149345,-0.025183166231241404,177.6850237599285,-1.7293654858653718,-68.09155285802727,-0.0003907792195215304,-0.0021547834945121994,0.0010794861423584928,0.29988736194610593,0.3956002675247193,-9.684459300727845
2026-09-11T19:05:50.255,5.0112067199999615,0.0,0.0,0.0,0.0,0.0,0.0,0.0,0.0,0.0,0.0,0.017057418823242188,139.734375,6.1406707763671875,0.0,0.0,0.0,1,1789167949.8371906,38.990286641666664,-76.94089811,-9.370000000000001,0,1,9.759376000000001,6.185169,49.787136000000004,1,1,1789167950.2448804,-0.8281702051889462,0.5599074674864433,-0.0011752380970837103,-0.025226135368527452,177.67971878873365,-1.7303203822466569,-68.08845989598011,0.0014402456987457207,0.001008625774727523,6.824237375297829e-05,0.30341775600433346,0.39569833402633664,-9.69112782283783
2026-09-11T19:05:50.289,5.044616927999982,0.0,0.0,0.0,0.0,0.0,0.0,0.0,0.0,0.0,0.0,0.017057418823242188,139.734375,6.1406707763671875,0.0,0.0,0.0,1,1789167949.8371906,38.990286641666664,-76.94089811,-9.370000000000001,0,1,9.759376000000001,6.185169,49.787136000000004,1,1,1789167950.2848806,-0.8281838163376004,0.5598855972279452,-0.0011353789206543794,-0.02526648546793795,177.67328318155714,-1.7290644604784078,-68.08543748039726,-0.0009290387608365816,-0.0007949974742834171,-0.0005642649471697667,0.3073404160690308,0.3933447379875183,-9.699463475475312
2026-09-11T19:05:50.321,5.0780349759999694,0.0,0.0,0.0,0.0,0.0,0.0,0.0,0.0,0.0,0.0,0.017057418823242188,139.734375,6.1406707763671875,0.0,0.0,0.0,1,1789167949.8371906,38.990286641666664,-76.94089811,-9.370000000000001,0,1,9.759376000000001,6.185169,49.787136000000004,1,1,1789167950.3168805,-0.8281799316997609,0.5598951501594576,-0.0012119077780831766,-0.02517842007027935,177.68657827451298,-1.7307049254764348,-68.08676162547964,-6.318091892219473e-05,-0.0015528194354993549,-0.0018020524526841451,0.3050848865318298,0.3942273365020752,-9.695442748908997
2026-09-11T19:05:50.354,5.111445855999989,0.0,0.0,0.0,0.0,0.0,0.0,0.0,0.0,0.0,0.0,0.017057418823242188,139.734375,6.1406707763671875,0.0,0.0,0.0,1,1789167949.8371906,38.990286641666664,-76.94089811,-9.370000000000001,0,1,9.759376000000001,6.185169,49.787136000000004,1,1,1789167950.3448806,-0.8281788870648744,0.5598962160978275,-0.0012440863693385948,-0.025187506197055183,177.68778078665395,-1.7343463034124504,-68.08687458402517,0.000723962573727248,0.0014803882715415904,0.001192408944962526,0.3093998126029968,0.3950118685150147,-9.693383352375031
2026-09-11T19:05:50.387,5.144845183999962,0.0,0.0,0.0,0.0,0.0,0.0,0.0,0.0,0.0,0.0,0.017057418823242188,139.734375,6.1406707763671875,0.0,0.0,0.0,1,1789167949.8371906,38.990286641666664,-76.94089811,-9.370000000000001,0,1,9.759376000000001,6.185169,49.787136000000004,1,1,1789167950.3768806,-0.8281922065031556,0.5598752055852316,-0.0012042940167826738,-0.02521850380673518,177.6822398002404,-1.732498980653694,-68.08397773065388,-0.0001916371518689774,0.0007674212721019068,0.0011627383476786224,0.30488875352859496,0.3954041345214844,-9.688872293300628
2026-09-11T19:05:50.421,5.178253471999994,0.0,0.0,0.0,0.0,0.0,0.0,0.0,0.0,0.0,0.0,0.017057418823242188,139.734375,6.1406707763671875,0.0,0.0,0.0,1,1789167949.8371906,38.990286641666664,-76.94089811,-9.370000000000001,0,1,9.759376000000001,6.185169,49.787136000000004,1,1,1789167950.4168806,-0.8281953085480974,0.5598714094780536,-0.0012047274010742817,-0.02520088053756252,177.68393414177964,-1.7313984179213784,-68.08346597236444,0.00034138640169009086,-0.0028099800957108708,-0.0008133234314293576,0.3073404160690308,0.3942273365020752,-9.694952416400909
2026-09-11T19:05:50.456,5.211677312000006,0.0,0.0,0.0,0.0,0.0,0.0,0.0,0.0,0.0,0.0,0.017057418823242188,139.734375,6.1406707763671875,0.0,0.0,0.0,1,1789167949.8371906,38.990286641666664,-76.94089811,-9.370000000000001,0,1,9.759376000000001,6.185169,49.787136000000004,1,1,1789167950.4448805,-0.8281952519675561,0.55987036861428,-0.0011879537798986804,-0.025226647258865927,177.68040809183125,-1.7314566445832,-68.08331627829976,-0.00031223940318178555,0.0016325809823154959,0.0008902924514423075,0.30685008356094357,0.3962867330360413,-9.698384743957519
2026-09-11T19:05:50.488,5.245086783999966,0.0,0.0,0.0,0.0,0.0,0.0,0.0,0.0,0.0,0.0,0.017057418823242188,139.734375,6.1406707763671875,0.0,0.0,0.0,1,1789167949.8371906,38.990286641666664,-76.94089811,-9.370000000000001,0,1,9.759376000000001,6.185169,49.787136000000004,1,1,1789167950.4848804,-0.8281887391645874,0.5598818532724723,-0.0012849488086211897,-0.02518077845722563,177.69101037499763,-1.7377541665548848,-68.08485835561352,0.00020280725908174108,-0.0020345303090497898,0.00013875367553354922,0.30567328554153445,0.39275633897781376,-9.689656825313568
2026-09-11T19:05:50.521,5.2785057279999705,0.0,0.0,0.0,0.0,0.0,0.0,0.0,0.0,0.0,0.0,0.017057418823242188,139.734375,6.1406707763671875,0.0,0.0,0.0,1,1789167949.8371906,38.990286641666664,-76.94089811,-9.370000000000001,0,1,9.759376000000001,6.185169,49.787136000000004,1,1,1789167950.5168805,-0.8281859677225393,0.5598872412616567,-0.0013228336981484243,-0.02515015011684252,177.6963613083312,-1.7394003937929126,-68.08559602014434,0.0008979719001510826,-0.001036027443983834,-0.0007682939367279038,0.3053790860366821,0.39471766901016236,-9.693383352375031
2026-09-11T19:05:50.554,5.311911775999988,0.0,0.0,0.0,0.0,0.0,0.0,0.0,0.0,0.0,0.0,0.017057418823242188,139.734375,6.1406707763671875,0.0,0.0,0.0,1,1789167949.8371906,38.990286641666664,-76.94089811,-9.370000000000001,0,1,9.759376000000001,6.185169,49.787136000000004,1,1,1789167950.5448806,-0.8281662481139219,0.5599178256163042,-0.0014145959378281665,-0.025113601102844788,177.7057830122584,-1.7458517952384303,-68.08978026268838,0.0005009094953223725,0.0029705503868943488,0.0005347688828110626,0.30989014511108404,0.3962867330360413,-9.69642341392517
2026-09-11T19:05:50.588,5.345315359999972,0.0,0.0,0.0,0.0,0.0,0.0,0.0,0.0,0.0,0.0,0.017057418823242188,139.734375,6.1406707763671875,0.0,0.0,0.0,1,1789167949.8371906,38.990286641666664,-76.94089811,-9.370000000000001,0,1,9.759376000000001,6.185169,49.787136000000004,1,1,1789167950.5768805,-0.828171466857823,0.5599099251767325,-0.001405872243345865,-0.02511813477117337,177.70477614848036,-1.7452926389188201,-68.0886908295374,-0.0006997024971245267,0.001249306678577541,-0.0006243042734383718,0.3061636180496216,0.39305053848266597,-9.693187219371795
2026-09-11T19:05:50.623,5.378731007999988,0.0,0.0,0.0,0.0,0.0,0.0,0.0,0.0,0.0,0.0,0.017057418823242188,139.734375,6.1406707763671875,0.0,0.0,0.0,1,1789167949.8371906,38.990286641666664,-76.94089811,-9.370000000000001,0,1,9.759376000000001,6.185169,49.787136000000004,1,1,1789167950.6168804,-0.8281904361630659,0.559878751057641,-0.0013160119412496403,-0.02519233365009108,177.6918979471937,-1.7414365171292594,-68.08439408183318,0.0016945401707612944,-0.0009398598021989465,-0.0006155776271784001,0.30910561309814455,0.39403120349884035,-9.695638881912231
2026-09-11T19:05:50.656,5.412149983999996,0.0,0.0,0.0,0.0,0.0,0.0,0.0,0.0,0.0,0.0,0.017057418823242188,139.734375,6.1406707763671875,0.0,0.0,0.0,1,1789167949.8371906,38.990286641666664,-76.94089811,-9.370000000000001,0,1,9.759376000000001,6.185169,49.787136000000004,1,1,1789167950.6448805,-0.8281941590171825,0.559873002581788,-0.0012699770462845008,-0.025200061670105724,177.6881995169011,-1.7375455966419187,-68.08363147577441,-0.0007847000316966506,0.000975115453089232,0.0010793116094332934,0.30361388900756836,0.39344280448913577,-9.685439965744019
2026-09-11T19:05:50.688,5.445550335999997,0.0,0.0,0.0,0.0,0.0,0.0,0.0,0.0,0.0,0.0,0.017057418823242188,139.734375,6.1406707763671875,0.0,0.0,0.0,1,1789167949.8371906,38.990286641666664,-76.94089811,-9.370000000000001,0,1,9.759376000000001,6.185169,49.787136000000004,1,1,1789167950.6768806,-0.8282030757025252,0.5598600678221181,-0.001265271809720958,-0.025194621297773327,177.68838759586257,-1.736713580768642,-68.08185034635363,-0.0015433946575385854,-0.0003309144261781249,-0.0013664182713863605,0.30439842102050785,0.3922660064697266,-9.690931689834594
2026-09-11T19:05:50.721,5.478958463999959,0.0,0.0,0.0,0.0,0.0,0.0,0.0,0.0,0.0,0.0,0.017057418823242188,139.734375,6.1406707763671875,0.0,0.0,0.0,1,1789167949.8371906,38.990286641666664,-76.94089811,-9.370000000000001,0,1,9.759376000000001,6.185169,49.787136000000004,1,1,1789167950.7168806,-0.8281695964440547,0.5599140469781104,-0.0014251030990139134,-0.025086821310061964,177.70899330366814,-1.745120037326979,-68.08927003770651,0.0015976743972756092,0.0023256512282824444,0.0012458160200735525,0.30331968950271604,0.3976596640586853,-9.691422022342682
2026-09-11T19:05:50.756,5.51236924799997,0.0,0.0,0.0,0.0,0.0,0.0,0.0,0.0,0.0,0.0,0.017057418823242188,139.734375,6.1406707763671875,0.0,0.0,0.0,1,1789167949.8371906,38.990286641666664,-76.94089811,-9.370000000000001,0,1,9.759376000000001,6.185169,49.787136000000004,1,1,1789167950.7448804,-0.8281546660241812,0.5599394758009996,-0.0014933187618433926,-0.025008050326927232,177.72090590706134,-1.7466107390038972,-68.09279518979258,-0.0006332054526235428,0.0013885839528866887,-0.001038470904936626,0.3058694185447693,0.3922660064697266,-9.696913746433257
2026-09-11T19:05:50.789,5.54577164799997,0.0,0.0,0.0,0.0,0.0,0.0,0.0,0.0,0.0,0.0,0.017057418823242188,139.734375,6.1406707763671875,0.0,0.0,0.0,1,1789167949.8371906,38.990286641666664,-76.94089811,-9.370000000000001,0,1,9.759376000000001,6.185169,49.787136000000004,1,1,1789167950.7848806,-0.8281683533364278,0.5599150359575054,-0.0013853136465396363,-0.025108005632388984,177.7044308464242,-1.742704714433706,-68.08942265025938,0.0014393730341197236,0.0009180431865490173,0.00019826940302655584,0.30763461557388305,0.3974635310554504,-9.69112782283783
2026-09-11T19:05:50.823,5.579189407999991,0.0,0.0,0.0,0.0,0.0,0.0,0.0,0.0,0.0,0.0,0.017057418823242188,139.734375,6.1406707763671875,0.0,0.0,0.0,1,1789167949.8371906,38.990286641666664,-76.94089811,-9.370000000000001,0,1,9.759376000000001,6.185169,49.787136000000004,1,1,1789167950.8168805,-0.828168448421773,0.5599131259466312,-0.001416246919333661,-0.02514570889851073,177.70282834622964,-1.7480564103180953,-68.08910346353493,0.001035678378133435,0.003386462347644598,0.0002766346864411012,0.30910561309814455,0.39236407297134396,-9.700149940986634
2026-09-11T19:05:50.855,5.612593599999968,0.0,0.0,0.0,0.0,0.0,0.0,0.0,0.0,0.0,0.0,0.017057418823242188,139.734375,6.1406707763671875,0.0,0.0,0.0,1,1789167950.8447335,38.99028663666667,-76.94089823166667,-9.354,0,1,9.765625,6.185169,49.787136000000004,1,1,1789167950.8448806,-0.828163138994141,0.5599224875024189,-0.001446297967719818,-0.025110384757374496,177.70813156204986,-1.7486681869746348,-68.09040202186685,-0.001506393677396306,0.0002813470754214859,-6.684611035138282e-05,0.3060655515480042,0.3986403290748596,-9.690637490329742
2026-09-11T19:05:50.889,5.645995551999988,0.0,0.0,0.0,0.0,0.0,0.0,0.0,0.0,0.0,0.0,0.017057418823242188,139.734375,6.1406707763671875,0.0,0.0,0.0,1,1789167950.8447335,38.99028663666667,-76.94089823166667,-9.354,0,1,9.765625,6.185169,49.787136000000004,1,1,1789167950.8848805,-0.8281688393189277,0.559913268430641,-0.0014268245840348892,-0.025129058638625097,177.7050889933548,-1.7479923842696539,-68.08912768227668,0.0011276572297135364,0.0011716395268637934,-0.001307775208519351,0.3066539505577087,0.3950118685150147,-9.694658216896057
2026-09-11T19:05:50.922,5.679399423999996,0.0,0.0,0.0,0.0,0.0,0.0,0.0,0.0,0.0,0.0,0.017057418823242188,139.734375,6.1406707763671875,0.0,0.0,0.0,1,1789167950.8447335,38.99028663666667,-76.94089823166667,-9.354,0,1,9.765625,6.185169,49.787136000000004,1,1,1789167950.9168806,-0.8281766927574206,0.5598997864792409,-0.001392079170960162,-0.02517254038557595,177.6987009687611,-1.7474469607728815,-68.08725667720383,0.0003389429407372988,0.0023246040307312475,0.0010515608743265836,0.3103804776191711,0.3964828660392761,-9.691422022342682
2026-09-11T19:05:50.955,5.712802688000011,0.0,0.0,0.0,0.0,0.0,0.0,0.0,0.0,0.0,0.0,0.017057418823242188,139.734375,6.1406707763671875,0.0,0.0,0.0,1,1789167950.8447335,38.99028663666667,-76.94089823166667,-9.354,0,1,9.765625,6.185169,49.787136000000004,1,1,1789167950.9448805,-0.8281880294915315,0.5598835884079385,-0.0013589329174515134,-0.0251616481914466,177.6975761253939,-1.743555727896973,-68.08505169650412,4.939281783143953e-05,-0.0013999285930246519,-0.0018221237390820802,0.30341775600433346,0.3925602059745789,-9.695442748908997
2026-09-11T19:05:50.990,5.746216127999958,0.0,0.0,0.0,0.0,0.0,0.0,0.0,0.0,0.0,0.0,0.017057418823242188,139.734375,6.1406707763671875,0.0,0.0,0.0,1,1789167950.8447335,38.99028663666667,-76.94089823166667,-9.354,0,1,9.765625,6.185169,49.787136000000004,1,1,1789167950.9838805,-0.828218523617261,0.559835656784778,-0.0012277734456060327,-0.025231074134232874,177.6824682546319,-1.735424438677862,-68.07847676736698,0.0002488839513343914,0.0024994860217810795,4.7298422729046334e-05,0.3093017461013794,0.3950118685150147,-9.703680335044861
2026-09-11T19:05:51.023,5.779633151999974,0.0,0.0,0.0,0.0,0.0,0.0,0.0,0.0,0.0,0.0,0.017057418823242188,139.734375,6.1406707763671875,0.0,0.0,0.0,1,1789167950.8447335,38.99028663666667,-76.94089823166667,-9.354,0,1,9.765625,6.185169,49.787136000000004,1,1,1789167951.0168805,-0.8282384154161807,0.5598053084455643,-0.0011948067209461206,-0.025253045399717233,177.67820318134986,-1.7336192556905963,-68.07428970406811,-0.0003352777493081107,0.0018268361280624648,-2.6354471705114377e-05,0.30292742349624635,0.3961886665344238,-9.688185827789306
2026-09-11T19:05:51.055,5.8130401280000115,0.0,0.0,0.0,0.0,0.0,0.0,0.0,0.0,0.0,0.0,0.017057418823242188,139.734375,6.1406707763671875,0.0,0.0,0.0,1,1789167950.8447335,38.99028663666667,-76.94089823166667,-9.354,0,1,9.765625,6.185169,49.787136000000004,1,1,1789167951.0448806,-0.8282359630589852,0.5598096176804893,-0.0012138754250421622,-0.025237035377242107,177.6809561504625,-1.7344145086347518,-68.07488193720384,-0.000734085483388815,-0.0024209462054413347,-0.000827635131295711,0.30488875352859496,0.3969731985473633,-9.697894411449433
2026-09-11T19:05:51.089,5.846439744000008,0.0,0.0,0.0,0.0,0.0,0.0,0.0,0.0,0.0,0.0,0.017057418823242188,139.734375,6.1406707763671875,0.0,0.0,0.0,1,1789167950.8447335,38.99028663666667,-76.94089823166667,-9.354,0,1,9.765625,6.185169,49.787136000000004,1,1,1789167951.0848806,-0.8282259477695648,0.5598266784699739,-0.0012852653896090688,-0.025183677399475263,177.69063951466188,-1.7378164840332628,-68.07722312417859,-0.001189965484009734,0.0019050268785518107,0.0010709340290237207,0.29890669692993166,0.3949138020133972,-9.688381960792542
2026-09-11T19:05:51.124,5.879850751999982,0.0,0.0,0.0,0.0,0.0,0.0,0.0,0.0,0.0,0.0,0.017057418823242188,139.734375,6.1406707763671875,0.0,0.0,0.0,1,1789167950.8447335,38.99028663666667,-76.94089823166667,-9.354,0,1,9.765625,6.185169,49.787136000000004,1,1,1789167951.1158805,-0.828227828371861,0.5598226154460997,-0.0013334521085325932,-0.025209630124091754,177.6912547518717,-1.7440461043219375,-68.07660032304213,-0.0011442378576074824,0.0012948597720545932,-0.001520181778487061,0.3126360071563721,0.3956002675247193,-9.700934472999572
2026-09-11T19:05:51.157,5.913272159999963,0.0,0.0,0.0,0.0,0.0,0.0,0.0,0.0,0.0,0.0,0.017057418823242188,139.734375,6.1406707763671875,0.0,0.0,0.0,1,1789167950.8447335,38.99028663666667,-76.94089823166667,-9.354,0,1,9.765625,6.185169,49.787136000000004,1,1,1789167951.1448805,-0.8282274451660077,0.5598238579407211,-0.0013346635775178745,-0.025194559477989223,177.69276705514764,-1.7431974217373616,-68.07678304132342,0.00038728856101754173,-0.0014857987922227726,8.011061266653974e-05,0.3016525589752197,0.3917756739616394,-9.69269688686371
2026-09-11T19:05:51.189,5.946681823999995,0.0,0.0,0.0,0.0,0.0,0.0,0.0,0.0,0.0,0.0,0.017057418823242188,139.734375,6.1406707763671875,0.0,0.0,0.0,1,1789167950.8447335,38.99028663666667,-76.94089823166667,-9.354,0,1,9.765625,6.185169,49.787136000000004,1,1,1789167951.1848805,-0.8282223978686567,0.5598334146708517,-0.0013709948455921455,-0.025146130115783368,177.69971850196796,-1.7435656643950983,-68.07811302586039,-0.0004246386070102204,0.00019250981649497455,0.0003455751918948773,0.30763461557388305,0.39324667148590087,-9.694952416400909
2026-09-11T19:05:51.224,5.980100192000009,0.0,0.0,0.0,0.0,0.0,0.0,0.0,0.0,0.0,0.0,0.017057418823242188,139.734375,6.1406707763671875,0.0,0.0,0.0,1,1789167950.8447335,38.99028663666667,-76.94089823166667,-9.354,0,1,9.765625,6.185169,49.787136000000004,1,1,1789167951.2168806,-0.8282169176558177,0.5598430307430804,-0.0014029615461502996,-0.02511075339369852,177.70514997427446,-1.744357199178336,-68.07944485482811,-0.0013618804153311755,-0.0012665854381722849,-0.002036101105376585,0.3058694185447693,0.39442346950531004,-9.689656825313568
2026-09-11T19:05:51.256,6.01350223999998,0.0,0.0,0.0,0.0,0.0,0.0,0.0,0.0,0.0,0.0,0.017057418823242188,139.734375,6.1406707763671875,0.0,0.0,0.0,1,1789167950.8447335,38.99028663666667,-76.94089823166667,-9.354,0,1,9.765625,6.185169,49.787136000000004,1,1,1789167951.2448804,-0.828228199047768,0.5598246125936177,-0.0013481430717725493,-0.025152255301561146,177.6976526844182,-1.7417645018643486,-68.0769094740102,0.0009115854683166383,-0.0006766641509982016,0.0010969394348784361,0.3061636180496216,0.39275633897781376,-9.699169275970458
2026-09-11T19:05:51.290,6.04690463999998,0.0,0.0,0.0,0.0,0.0,0.0,0.0,0.0,0.0,0.0,0.017057418823242188,139.734375,6.1406707763671875,0.0,0.0,0.0,1,1789167950.8447335,38.99028663666667,-76.94089823166667,-9.354,0,1,9.765625,6.185169,49.787136000000004,1,1,1789167951.2848806,-0.828255773803528,0.5597801287660611,-0.001240090127927114,-0.025239706342304036,177.6823214075365,-1.7369925654234453,-68.07077824204403,-0.0010426596951414126,0.0007447319918259804,-0.001593485607070823,0.30812494808197016,0.3962867330360413,-9.698678943462372
2026-09-11T19:05:51.324,6.080329567999968,0.0,0.0,0.0,0.0,0.0,0.0,0.0,0.0,0.0,0.0,0.017057418823242188,139.734375,6.1406707763671875,0.0,0.0,0.0,1,1789167950.8447335,38.99028663666667,-76.94089823166667,-9.354,0,1,9.765625,6.185169,49.787136000000004,1,1,1789167951.3158805,-0.8282549282731749,0.5597814628044947,-0.0012515860684970323,-0.025237298270040592,177.6832901002444,-1.7379333589104073,-68.07095487373877,-0.0007600908892435305,-1.7453292519943296e-05,5.8817595792208906e-05,0.3031235564994812,0.39844419607162473,-9.697894411449433
2026-09-11T19:05:51.357,6.1137683519999655,0.0,0.0,0.0,0.0,0.0,0.0,0.0,0.0,0.0,0.0,0.017057418823242188,139.734375,6.1406707763671875,0.0,0.0,0.0,1,1789167950.8447335,38.99028663666667,-76.94089823166667,-9.354,0,1,9.765625,6.185169,49.787136000000004,1,1,1789167951.3448806,-0.8282424654135583,0.5598023871833263,-0.0013594561169822349,-0.025176530114092117,177.6960247259947,-1.7443347486879242,-68.07380652672244,0.0009154251926710258,-0.0017926276747233759,0.0007752752537358812,0.3113611426353455,0.39403120349884035,-9.695933081417083
2026-09-11T19:05:51.390,6.147169120000001,0.0,0.0,0.0,0.0,0.0,0.0,0.0,0.0,0.0,0.0,0.017057418823242188,139.734375,6.1406707763671875,0.0,0.0,0.0,1,1789167950.8447335,38.99028663666667,-76.94089823166667,-9.354,0,1,9.765625,6.185169,49.787136000000004,1,1,1789167951.3848805,-0.8282199799573954,0.5598389899653623,-0.001458580530270397,-0.02509666624815626,177.71004646594022,-1.7487229942605091,-68.0788518301091,-0.0019601792829148316,-0.0002665117767795341,-0.0009925687456091752,0.3006718939590454,0.39510993501663205,-9.685636098747253
2026-09-11T19:05:51.424,6.180573855999967,0.0,0.0,0.0,0.0,0.0,0.0,0.0,0.0,0.0,0.0,0.017057418823242188,139.734375,6.1406707763671875,0.0,0.0,0.0,1,1789167950.8447335,38.99028663666667,-76.94089823166667,-9.354,0,1,9.765625,6.185169,49.787136000000004,1,1,1789167951.4158804,-0.8282184987723742,0.5598411247004708,-0.0014379616715426665,-0.02509911654975471,177.70849599704053,-1.7469283744091069,-68.07916187007336,-0.00011588986233242349,-0.0001415462023367401,0.0014564772607892679,0.30890948009490965,0.3950118685150147,-9.691716221847535
2026-09-11T19:05:51.458,6.213993280000011,0.0,0.0,0.0,0.0,0.0,0.0,0.0,0.0,0.0,0.0,0.017057418823242188,139.734375,6.1406707763671875,0.0,0.0,0.0,1,1789167950.8447335,38.99028663666667,-76.94089823166667,-9.354,0,1,9.765625,6.185169,49.787136000000004,1,1,1789167951.4448805,-0.8282181903135255,0.5598429214632679,-0.0014458488819759016,-0.02506874632430348,177.7118912540045,-1.7457331368416544,-68.07942796338843,0.0013828243663551072,0.00019966566642815132,-0.0001616174887346749,0.30263322399139403,0.39569833402633664,-9.693677551879883
2026-09-11T19:05:51.490,6.247398304000001,0.0,0.0,0.0,0.0,0.0,0.0,0.0,0.0,0.0,0.0,0.017057418823242188,139.734375,6.1406707763671875,0.0,0.0,0.0,1,1789167950.8447335,38.99028663666667,-76.94089823166667,-9.354,0,1,9.765625,6.185169,49.787136000000004,1,1,1789167951.4848804,-0.8282083378585418,0.559857029841544,-0.0014507503801381694,-0.02507888677614545,177.7112717757081,-1.746888309259249,-68.08136773349656,-0.0010409143658894181,-0.0012819443355898351,0.0007862708280234454,0.2984163644218445,0.39667899904251097,-9.695442748908997
2026-09-11T19:05:51.523,6.2808040639999945,0.0,0.0,0.0,0.0,0.0,0.0,0.0,0.0,0.0,0.0,0.017057418823242188,139.734375,6.1406707763671875,0.0,0.0,0.0,1,1789167950.8447335,38.99028663666667,-76.94089823166667,-9.354,0,1,9.765625,6.185169,49.787136000000004,1,1,1789167951.5168805,-0.8282428835093439,0.5598052338994359,-0.0012646970242312509,-0.025104313501117505,177.69681692770183,-1.7307105905552584,-68.07433603896341,-0.00020961404316451897,-0.0027579692840014394,-0.0008332201849020928,0.29518016986846923,0.3855974843597412,-9.694265950889587
2026-09-11T19:05:51.558,6.314222623999967,0.0,0.0,0.0,0.0,0.0,0.0,0.0,0.0,0.0,0.0,0.017057418823242188,139.734375,6.1406707763671875,0.0,0.0,0.0,1,1789167950.8447335,38.99028663666667,-76.94089823166667,-9.354,0,1,9.765625,6.185169,49.787136000000004,1,1,1789167951.5568805,-0.8282265006375861,0.5598283748634348,-0.0013488653080671311,-0.025124388584895987,177.70035477116284,-1.740055145432824,-68.07745120092193,-0.0009506808435613113,0.00018291050560900572,0.001200088393671301,0.30685008356094357,0.3961886665344238,-9.693383352375031
2026-09-11T19:05:51.592,6.347636927999986,0.0,0.0,0.0,0.0,0.0,0.0,0.0,0.0,0.0,0.0,0.017057418823242188,139.734375,6.1406707763671875,0.0,0.0,0.0,1,1789167950.8447335,38.99028663666667,-76.94089823166667,-9.354,0,1,9.765625,6.185169,49.787136000000004,1,1,1789167951.5848806,-0.8282317048428932,0.5598199792942248,-0.0013078092905453138,-0.025142066560011646,177.6960248435563,-1.7372679895763778,-68.07631009948084,-0.0004461061568097506,-0.002217789880509194,-0.0012850859282434249,0.3018486919784546,0.4057011171913147,-9.686812896766662
2026-09-11T19:05:51.624,6.381057919999989,0.0,0.0,0.0,0.0,0.0,0.0,0.0,0.0,0.0,0.0,0.017057418823242188,139.734375,6.1406707763671875,0.0,0.0,0.0,1,1789167950.8447335,38.99028663666667,-76.94089823166667,-9.354,0,1,9.765625,6.185169,49.787136000000004,1,1,1789167951.6168804,-0.8282543963446313,0.5597787725538985,-0.0012595116204085332,-0.02531391641606523,177.67651209837967,-1.7435950787481802,-68.07051583060125,0.0005464625887994245,-0.004106934262867856,0.00010978120995044333,0.32156005880355837,0.4039359201622009,-9.690637490329742
2026-09-11T19:05:51.657,6.414465439999958,0.0,0.0,0.0,0.0,0.0,0.0,0.0,0.0,0.0,0.0,0.017057418823242188,139.734375,6.1406707763671875,0.0,0.0,0.0,1,1789167950.8447335,38.99028663666667,-76.94089823166667,-9.354,0,1,9.765625,6.185169,49.787136000000004,1,1,1789167951.6448805,-0.8282565698451058,0.5597736725737932,-0.0011679685878945424,-0.025359926085164696,177.6662600743938,-1.7378407887987408,-68.06985312891915,0.00038309977081275534,0.0009902998175815826,0.0006173229564303943,0.2942975713539123,0.406681782207489,-9.696325347423553
2026-09-11T19:05:51.692,6.447870367999997,0.0,0.0,0.0,0.0,0.0,0.0,0.0,0.0,0.0,0.0,0.017057418823242188,139.734375,6.1406707763671875,0.0,0.0,0.0,1,1789167950.8447335,38.99028663666667,-76.94089823166667,-9.354,0,1,9.765625,6.185169,49.787136000000004,1,1,1789167951.6848805,-0.8282625989055747,0.5597701862442334,-0.001213323479734718,-0.02523754529293599,177.68078978129319,-1.7342844426348898,-68.069427501716,-0.0006894050545377602,-0.0039001127465065288,-0.0006070255138436278,0.31302827316284176,0.37618310020446777,-9.69681567993164
2026-09-11T19:05:51.726,6.48129030399997,0.0,0.0,0.0,0.0,0.0,0.0,0.0,0.0,0.0,0.0,0.017057418823242188,139.734375,6.1406707763671875,0.0,0.0,0.0,1,1789167950.8447335,38.99028663666667,-76.94089823166667,-9.354,0,1,9.765625,6.185169,49.787136000000004,1,1,1789167951.7168806,-0.8282737372512564,0.5597579623128925,-0.0012460998096918065,-0.025141341301116723,177.69200733328455,-1.731189265567882,-68.06778386037517,0.0008339183166028907,-0.00023073252711365038,0.0019786797729859714,0.301946758480072,0.3834400213241577,-9.693971751384735
2026-09-11T19:05:51.758,6.514713855999958,0.0,0.0,0.0,0.0,0.0,0.0,0.0,0.0,0.0,0.0,0.017057418823242188,139.734375,6.1406707763671875,0.0,0.0,0.0,1,1789167950.8447335,38.99028663666667,-76.94089823166667,-9.354,0,1,9.765625,6.185169,49.787136000000004,1,1,1789167951.7568805,-0.8282864580369911,0.5597401474018149,-0.001234803055978397,-0.025119436310220775,177.69332739835968,-1.728661359192639,-68.0653463027774,-0.0017160077205608248,-0.0010677924363701307,-0.0029518753638980095,0.3115572756385803,0.39383507049560545,-9.705935864582061
2026-09-11T19:05:51.791,6.548124575999964,0.0,0.0,0.0,0.0,0.0,0.0,0.0,0.0,0.0,0.0,0.017057418823242188,139.734375,6.1406707763671875,0.0,0.0,0.0,1,1789167950.8447335,38.99028663666667,-76.94089823166667,-9.354,0,1,9.765625,6.185169,49.787136000000004,1,1,1789167951.7848806,-0.828274206418946,0.5597584912122261,-0.0013001270388639937,-0.02511135533100852,177.6983217162149,-1.7343968140226333,-68.0678349687998,0.0016151276897955525,0.00042324234360862495,0.00174515471906913,0.30655588405609135,0.3957964005279541,-9.702699670028686
2026-09-11T19:05:51.824,6.581529151999973,0.0,0.0,0.0,0.0,0.0,0.0,0.0,0.0,0.0,0.0,0.017057418823242188,139.734375,6.1406707763671875,0.0,0.0,0.0,1,1789167950.8447335,38.99028663666667,-76.94089823166667,-9.354,0,1,9.765625,6.185169,49.787136000000004,1,1,1789167951.8168805,-0.8282767005644165,0.5597504920655626,-0.0012606952035049564,-0.02520921621329023,177.68647766412462,-1.736909765773502,-68.06668507178448,0.0017708110590734466,0.0025282839544389854,-0.00023998277214922032,0.31096887662887573,0.40687791521072386,-9.703288069038392
2026-09-11T19:05:51.859,6.614957408000009,0.0,0.0,0.0,0.0,0.0,0.0,0.0,0.0,0.0,0.0,0.017057418823242188,139.734375,6.1406707763671875,0.0,0.0,0.0,1,1789167951.835775,38.99028655666667,-76.94089835666666,-9.36,0,1,9.765625,6.185169,49.773025,1,1,1789167951.8568804,-0.8282849887257971,0.5597377400348621,-0.0012618800451075682,-0.02521998197705089,177.68550386875575,-1.737677466241147,-68.06491171693088,-0.00024870941840919196,-0.0008342673824532896,-0.001288402053822214,0.3084191475868225,0.3852052183532715,-9.700542206993102
2026-09-11T19:05:51.892,6.648416223999959,0.0,0.0,0.0,0.0,0.0,0.0,0.0,0.0,0.0,0.0,0.017057418823242188,139.734375,6.1406707763671875,0.0,0.0,0.0,1,1789167951.835775,38.99028655666667,-76.94089835666666,-9.36,0,1,9.765625,6.185169,49.773025,1,1,1789167951.8848805,-0.8282889989327128,0.5597343228169184,-0.0013487164837724162,-0.025159552292856418,177.6968062757999,-1.7420362441258253,-68.06441361746116,0.0011704177963873972,-0.0008403760348352696,0.0002843141351498763,0.30763461557388305,0.3915795409584045,-9.695442748908997
2026-09-11T19:05:51.924,6.681821663999983,0.0,0.0,0.0,0.0,0.0,0.0,0.0,0.0,0.0,0.0,0.017057418823242188,139.734375,6.1406707763671875,0.0,0.0,0.0,1,1789167951.835775,38.99028655666667,-76.94089835666666,-9.36,0,1,9.765625,6.185169,49.773025,1,1,1789167951.9168806,-0.8282793540242906,0.5597490166270196,-0.00140983746043425,-0.02514681770172311,177.70196589979003,-1.7470638440049098,-68.0664058041528,0.0015182619163098673,0.002154608961587,-0.0012075933094548767,0.3061636180496216,0.3925602059745789,-9.694462083892823
2026-09-11T19:05:51.958,6.715230592000012,0.0,0.0,0.0,0.0,0.0,0.0,0.0,0.0,0.0,0.0,0.017057418823242188,139.734375,6.1406707763671875,0.0,0.0,0.0,1,1789167951.835775,38.99028655666667,-76.94089835666666,-9.36,0,1,9.765625,6.185169,49.773025,1,1,1789167951.9448805,-0.8282794778269774,0.5597523708844555,-0.001440655251703418,-0.025066200596552745,177.71160943020982,-1.7448265111409669,-68.06690821637595,-0.000548207918051419,0.0008595746566072073,7.033676885537147e-05,0.3079288150787353,0.3845187528419495,-9.7022093375206
2026-09-11T19:05:51.992,6.7486316160000115,0.0,0.0,0.0,0.0,0.0,0.0,0.0,0.0,0.0,0.0,0.017057418823242188,139.734375,6.1406707763671875,0.0,0.0,0.0,1,1789167951.835775,38.99028655666667,-76.94089835666666,-9.36,0,1,9.765625,6.185169,49.773025,1,1,1789167951.9848804,-0.828294357642014,0.5597267889539812,-0.0013400238224830895,-0.02515120597156484,177.69702627725542,-1.7406543120496198,-68.06338528628497,0.001326275698590491,0.0012634438455186952,-0.0016351989761934872,0.30430035451889037,0.4079566467285156,-9.683576702213287
2026-09-11T19:05:52.029,6.782041119999974,0.0,0.0,0.0,0.0,0.0,0.0,0.0,0.0,0.0,0.0,0.017057418823242188,139.734375,6.1406707763671875,0.0,0.0,0.0,1,1789167951.835775,38.99028655666667,-76.94089835666666,-9.36,0,1,9.765625,6.185169,49.773025,1,1,1789167952.0248804,-0.8282699646030728,0.5597655107677447,-0.0013831788793521,-0.025090346899514764,177.7056575436216,-1.7409545018223662,-68.06875363521414,-0.0011986921302697055,-0.0003075270142014009,0.0016973326975644855,0.30214289148330686,0.38952014442443844,-9.695933081417083
2026-09-11T19:05:52.059,6.815448511999989,0.0,0.0,0.0,0.0,0.0,0.0,0.0,0.0,0.0,0.0,0.017057418823242188,139.734375,6.1406707763671875,0.0,0.0,0.0,1,1789167951.835775,38.99028655666667,-76.94089835666666,-9.36,0,1,9.765625,6.185169,49.773025,1,1,1789167952.0568805,-0.8282634145488064,0.5597767685116897,-0.0014685255578023955,-0.02505052868201093,177.71493692712002,-1.7465346717794081,-68.07027295885258,0.0011370820076743056,-0.0010688396339213276,-0.0015133749944042831,0.29802409841537475,0.40423011966705324,-9.696129214420319
2026-09-11T19:05:52.091,6.848850815999981,0.0,0.0,0.0,0.0,0.0,0.0,0.0,0.0,0.0,0.0,0.017057418823242188,139.734375,6.1406707763671875,0.0,0.0,0.0,1,1789167951.835775,38.99028655666667,-76.94089835666666,-9.36,0,1,9.765625,6.185169,49.773025,1,1,1789167952.0848806,-0.8282516825651275,0.559791446732969,-0.0014112206419485268,-0.025113640694744806,177.70529658731,-1.7451838284629413,-68.07230006791906,0.0006757914863722044,0.0020793852708260443,0.003236189499047886,0.3060655515480042,0.40011132659912113,-9.698384743957519
2026-09-11T19:05:52.125,6.882255135999969,0.0,0.0,0.0,0.0,0.0,0.0,0.0,0.0,0.0,0.0,0.017057418823242188,139.734375,6.1406707763671875,0.0,0.0,0.0,1,1789167951.835775,38.99028655666667,-76.94089835666666,-9.36,0,1,9.765625,6.185169,49.773025,1,1,1789167952.1168804,-0.8282708047493229,0.5597600914874288,-0.0014204631799196942,-0.025181268082618113,177.69939687173903,-1.7503141849541037,-68.06790188435822,0.00019442967867216833,0.003907617662290104,-0.0021657790687997637,0.3074384825706482,0.38716654838562015,-9.697502145442963
2026-09-11T19:05:52.160,6.915675935999957,0.0,0.0,0.0,0.0,0.0,0.0,0.0,0.0,0.0,0.0,0.017057418823242188,139.734375,6.1406707763671875,0.0,0.0,0.0,1,1789167951.835775,38.99028655666667,-76.94089835666666,-9.36,0,1,9.765625,6.185169,49.773025,1,1,1789167952.1568806,-0.8282844555945266,0.5597407659799694,-0.0013598635153027603,-0.025165180147493436,177.69699968271655,-1.7434737762934671,-68.06529119730313,0.0009018116245054701,-0.0013140583938265307,0.0010663961729685354,0.3051829530334472,0.3935408709907532,-9.693677551879883
2026-09-11T19:05:52.192,6.949089567999977,0.0,0.0,0.0,0.0,0.0,0.0,0.0,0.0,0.0,0.0,0.017057418823242188,139.734375,6.1406707763671875,0.0,0.0,0.0,1,1789167951.835775,38.99028655666667,-76.94089835666666,-9.36,0,1,9.765625,6.185169,49.773025,1,1,1789167952.1838806,-0.8282728235790869,0.559764084749572,-0.0014433050601503558,-0.02502430848803681,177.71578472996214,-1.742422310076533,-68.06855936296671,0.00022636920398366454,-0.00037803831598197174,-0.00018884462506578645,0.30783074857711795,0.3755947011947632,-9.69112782283783
2026-09-11T19:05:52.225,6.9824959679999665,0.0,0.0,0.0,0.0,0.0,0.0,0.0,0.0,0.0,0.0,0.017057418823242188,139.734375,6.1406707763671875,0.0,0.0,0.0,1,1789167951.835775,38.99028655666667,-76.94089835666666,-9.36,0,1,9.765625,6.185169,49.773025,1,1,1789167952.2168806,-0.8282759113492026,0.5597604524053564,-0.001502017334620395,-0.024999890910265336,177.72186164580572,-1.7464206041693113,-68.06802913166253,-0.00020647245051092918,-0.00017662732030182616,0.0010623819156889483,0.3039080885124207,0.39510993501663205,-9.681909571685791
2026-09-11T19:05:52.259,7.0159010559999615,0.0,0.0,0.0,0.0,0.0,0.0,0.0,0.0,0.0,0.0,0.017057418823242188,139.734375,6.1406707763671875,0.0,0.0,0.0,1,1789167951.835775,38.99028655666667,-76.94089835666666,-9.36,0,1,9.765625,6.185169,49.773025,1,1,1789167952.2568805,-0.8282766378164845,0.5597584175781557,-0.001417457068122709,-0.025026306425024954,177.71392574213112,-1.740080439670812,-68.06779477743008,0.0012623966479674987,-0.0020045106459154875,0.00011501719770642632,0.3186180637550354,0.39658093254089355,-9.698384743957519
2026-09-11T19:05:52.293,7.049311391999993,0.0,0.0,0.0,0.0,0.0,0.0,0.0,0.0,0.0,0.0,0.017057418823242188,139.734375,6.1406707763671875,0.0,0.0,0.0,1,1789167951.835775,38.99028655666667,-76.94089835666666,-9.36,0,1,9.765625,6.185169,49.773025,1,1,1789167952.2848806,-0.8282777684403996,0.5597559818542727,-0.0013891756578276583,-0.02504494513355125,177.7103362722987,-1.7385842056161964,-68.06746625596107,0.0004902629868852072,0.0014521139376592821,-0.0016964600329384882,0.29880863042831424,0.40423011966705324,-9.689068426303864
2026-09-11T19:05:52.325,7.082727455999986,0.0,0.0,0.0,0.0,0.0,0.0,0.0,0.0,0.0,0.0,0.017057418823242188,139.734375,6.1406707763671875,0.0,0.0,0.0,1,1789167951.835775,38.99028655666667,-76.94089835666666,-9.36,0,1,9.765625,6.185169,49.773025,1,1,1789167952.3168805,-0.8283009711718332,0.5597136780256211,-0.001140203561740926,-0.02523489097791418,177.6762361735054,-1.7270125226356368,-68.06167638381254,-0.001174257520741785,0.0004836307357276287,-0.0005242969072990966,0.3064578175544739,0.41099670827865603,-9.697306012439729
2026-09-11T19:05:52.359,7.116133311999988,0.0,0.0,0.0,0.0,0.0,0.0,0.0,0.0,0.0,0.0,0.017057418823242188,139.734375,6.1406707763671875,0.0,0.0,0.0,1,1789167951.835775,38.99028655666667,-76.94089835666666,-9.36,0,1,9.765625,6.185169,49.773025,1,1,1789167952.3568804,-0.8283091414616638,0.5597038086817457,-0.0012016651787288973,-0.02518270674466088,177.68511473097314,-1.7294729794373198,-68.06029881320057,0.0002691297706575256,0.0018947294359650442,0.001702394152395269,0.29949509593963625,0.3775560312271118,-9.698777009963989
2026-09-11T19:05:52.392,7.149531359999969,0.0,0.0,0.0,0.0,0.0,0.0,0.0,0.0,0.0,0.0,0.017057418823242188,139.734375,6.1406707763671875,0.0,0.0,0.0,1,1789167951.835775,38.99028655666667,-76.94089835666666,-9.36,0,1,9.765625,6.185169,49.773025,1,1,1789167952.3848805,-0.8282987766072384,0.5597226303418338,-0.0013110316865637156,-0.025099700199163102,177.70005330941703,-1.7345848411702858,-68.06287457407416,-0.00026022859147235454,0.004179365426825622,-0.001110553003043992,0.3079288150787353,0.39275633897781376,-9.685439965744019
2026-09-11T19:05:52.426,7.182938207999996,0.0,0.0,0.0,0.0,0.0,0.0,0.0,0.0,0.0,0.0,0.017057418823242188,139.734375,6.1406707763671875,0.0,0.0,0.0,1,1789167951.835775,38.99028655666667,-76.94089835666666,-9.36,0,1,9.765625,6.185169,49.773025,1,1,1789167952.4158804,-0.8282865069851219,0.5597418148550437,-0.0013798007482634818,-0.025073077175784195,177.70703224799493,-1.739459962077795,-68.06549221176547,-0.0011147417932487781,0.0014474015486788975,-0.00033615041393410787,0.3037119555091858,0.3893240114212036,-9.692206554355622
