timestamp,time_s,drive_pos_turns,drive_encoder_count,drive_wheel_angle_deg,drive_distance_m,drive_distance_since_start_m,drive_velocity_turns_s,drive_velocity_mps,drive_velocity_mph,drive_acceleration_mps2,drive_iq_A,steer_pos_turns,steer_encoder_count,steer_angle_deg,steer_velocity_turns_s,steer_velocity_deg_s,steer_acceleration_deg_s2,gps_received,gps_ros_stamp_s,gps_latitude_deg,gps_longitude_deg,gps_altitude_m,gps_status,gps_service,gps_cov_x_m2,gps_cov_y_m2,gps_cov_z_m2,gps_covariance_type,imu_received,imu_ros_stamp_s,imu_qx,imu_qy,imu_qz,imu_qw,imu_roll_deg,imu_pitch_deg,imu_yaw_deg,imu_gyro_x_rad_s,imu_gyro_y_rad_s,imu_gyro_z_rad_s,imu_accel_x_mps2,imu_accel_y_mps2,imu_accel_z_mps2
2026-09-11T19:03:10.801,7.424000017408616e-06,-55.07406234741211,-4956.66561126709,-19826.66244506836,-37.7257327079773,-6.532669067382812e-05,-0.02583135850727558,-0.017694480577483775,-0.03958142577282515,0.0,0.0,0.0790558010339737,647.6251220703125,28.46008837223053,-0.8544923067092896,-307.61723041534424,-5879.468672108376,1,1789167790.1600733,38.990219585,-76.93993135333334,-10.484000000000002,0,1,15.531481,8.673024999999999,105.206049,1,1,1789167790.7953627,0.07495474881096446,0.9928833182631699,0.07722487842551577,-0.05099823622015265,171.56761493088987,-6.479478362207669,171.84380275142777,-0.0029276152872952884,0.03506802799569607,-0.04597057623412904,0.5297552417373657,0.3294053789329529,-9.7365326130867
2026-09-11T19:03:10.834,0.03341475199999877,-55.074928283691406,-4956.743545532227,-19826.974182128906,-37.726325874328616,-0.0006584930419921875,-0.02583135850727558,-0.017694480577483775,-0.03958142577282515,0.0,0.0,0.055734649300575256,456.5782470703125,20.064473748207092,-0.06103527545928955,-21.97269916534424,8550.355516315443,1,1789167790.1600733,38.990219585,-76.93993135333334,-10.484000000000002,0,1,15.531481,8.673024999999999,105.206049,1,1,1789167790.8233626,0.07406987709367291,0.9928515311033556,0.07814445168674425,-0.051506651644508905,171.45957638522322,-6.537484718654485,171.95557838115022,-0.0034482470031651966,0.03365064611015147,-0.044018949064548986,0.6212512877464295,0.2640930888557434,-9.596297515773774
2026-09-11T19:03:10.868,0.06682976000001872,-55.07579040527344,-4956.821136474609,-19827.284545898438,-37.72691642761231,-0.0012490463256835938,-0.02583135850727558,-0.017694480577483775,-0.03958142577282515,0.0,0.0,0.031763091683387756,260.2032470703125,11.434713006019592,-0.9765626192092896,-351.56254291534424,-9863.527303354325,1,1789167790.1600733,38.990219585,-76.93993135333334,-10.484000000000002,0,1,15.531481,8.673024999999999,105.206049,1,1,1789167790.8633626,0.07293943472207194,0.9931192672516471,0.0777846784513158,-0.04840974771883513,171.4717902353868,-6.171247257093671,172.05950439835885,0.002772455516792992,0.009314473152043338,-0.015671136820731884,-0.08217972835540772,0.23486927137374877,-9.570309892845154
2026-09-11T19:03:10.902,0.1002540480000107,-55.076656341552734,-4956.899070739746,-19827.596282958984,-37.727509593963624,-0.0018422126770019532,-0.02583135850727558,-0.017694480577483775,-0.03958142577282515,0.0,0.0,0.01862145960330963,152.5469970703125,6.703725457191467,-0.03051769733428955,-10.986371040344238,10189.481728827905,1,1789167790.1600733,38.990219585,-76.93993135333334,-10.484000000000002,0,1,15.531481,8.673024999999999,105.206049,1,1,1789167790.8953626,0.07243759304299975,0.9930934162239832,0.07724164872827617,-0.050517219524166504,171.54602954671202,-6.403349901915615,172.13006664193497,-0.002490584842595908,-0.005440540344316724,-0.022624179494826896,0.6339018664550782,0.20084019531250002,-9.737219078598022
2026-09-11T19:03:10.936,0.13366956800001617,-55.077518463134766,-4956.976661682129,-19827.906646728516,-37.72810014724732,-0.0024327659606933594,-0.02583135850727558,-0.017694480577483775,-0.03958142577282515,0.0,0.0,0.003318801522254944,27.1876220703125,1.1947685480117798,-0.7781983613967896,-280.15141010284424,-8055.090540636684,1,1789167790.1600733,38.990219585,-76.93993135333334,-10.484000000000002,0,1,15.531481,8.673024999999999,105.206049,1,1,1789167790.9233625,0.07193931922837515,0.9932888745485086,0.07600326220063318,-0.04924885970230454,171.67665159420267,-6.244527835836086,172.16994708697925,-0.000568802803224952,-0.03861017371261856,-0.023453036356599004,-0.2938072388458252,0.11336487586975098,-9.837246910247803
2026-09-11T19:03:10.970,0.16709398400001874,-55.0783805847168,-4957.054252624512,-19828.217010498047,-37.72869070053101,-0.003023319244384766,-0.02583135850727558,-0.017694480577483775,-0.03958142577282515,0.0,0.0,-0.001922607421875,-15.75,-0.692138671875,0.09155276417732239,32.95899510383606,9367.715062146674,1,1789167790.1600733,38.990219585,-76.93993135333334,-10.484000000000002,0,1,15.531481,8.673024999999999,105.206049,1,1,1789167790.9633627,0.07137215946482324,0.9934190551387091,0.0757931549666358,-0.04774927644316765,171.68689273802917,-6.066871410574762,172.2226030755373,0.0025679029284592573,-0.05632980347641619,-0.001639911365173872,0.5543699336433411,0.2807643941307068,-9.738690076122284
2026-09-11T19:03:11.003,0.2005179840000153,-55.10934066772461,-4959.840660095215,-19839.36264038086,-37.74989835739136,-0.02423097610473633,-0.7030919194221497,-0.48161796480417257,-1.0773487043758323,-13.879951059919113,0.0,-0.0002002716064453125,-1.640625,-0.0720977783203125,0.0762939602136612,27.46582567691803,-164.34805609497948,1,1789167790.1600733,38.990219585,-76.93993135333334,-10.484000000000002,0,1,15.531481,8.673024999999999,105.206049,1,1,1789167790.9953625,0.07099274689553575,0.9934514698124649,0.07651889784281996,-0.04646574317278829,171.59214290801285,-5.9227504279905405,172.26083626496535,0.000550651379004211,-0.06705677159209854,-0.0019134044589613835,0.7416769517326355,0.250363778629303,-9.861175136642457
2026-09-11T19:03:11.036,0.23393993600001295,-55.114200592041016,-4960.278053283691,-19841.112213134766,-37.753227405548095,-0.02756002426147461,-0.17787805199623108,-0.1218464656174183,-0.2725627809981616,10.764526835140558,0.0,0.0021495819091796875,17.609375,0.7738494873046875,0.1068115383386612,38.45215380191803,328.71593271993135,1,1789167790.1600733,38.990219585,-76.93993135333334,-10.484000000000002,0,1,15.531481,8.673024999999999,105.206049,1,1,1789167791.0233626,0.07075803913158218,0.9935844517327358,0.07540210123195783,-0.045801313332895596,171.714716888456,-5.83624051800091,172.27620193265906,-0.003252944659867031,-0.05905408790585414,-0.0011615166172022262,0.3405849601173401,-0.02873348497390747,-9.726333696918488
2026-09-11T19:03:11.070,0.26734995200001777,-55.11463165283203,-4960.316848754883,-19841.26739501953,-37.753522682189946,-0.027855300903320314,-0.02031385712325573,-0.013914992129430176,-0.031126950897973696,3.230512475299999,0.0,0.008718490600585938,71.421875,3.1386566162109375,0.1525879204273224,54.93165135383606,493.2502143044665,1,1789167790.1600733,38.990219585,-76.93993135333334,-10.484000000000002,0,1,15.531481,8.673024999999999,105.206049,1,1,1789167791.0633626,0.07020236047709023,0.9938480250469083,0.07327015482699198,-0.0443758504756049,171.94698218747615,-5.652407588206914,172.31723223104134,-0.0009016370915802705,-0.05362297233949818,0.00302238666567858,0.24771598308563234,-0.07364794271469116,-9.629051727313996
2026-09-11T19:03:11.103,0.3007707200000027,-55.11414337158203,-4960.272903442383,-19841.09161376953,-37.7531882095337,-0.027520828247070316,0.0,0.0,0.0,0.4163576411360877,0.0,0.0144500732421875,118.375,5.2020263671875,0.12207034230232239,43.94532322883606,-328.7275781635224,1,1789167790.1600733,38.990219585,-76.93993135333334,-10.484000000000002,0,1,15.531481,8.673024999999999,105.206049,1,1,1789167791.0953627,0.06993885168054087,0.9938090456038894,0.07308130088223734,-0.045948464205604944,171.97807794543576,-5.82845888852477,172.35798279742275,-0.001917244183315771,-0.048742682685071634,0.006220877052883389,0.556625463180542,-0.06923495014190674,-9.637583512954711
2026-09-11T19:03:11.137,0.3341933439999991,-55.11414337158203,-4960.272903442383,-19841.09161376953,-37.7531882095337,-0.027520828247070316,0.0,0.0,0.0,0.0,0.0,0.020975112915039062,171.828125,7.5510406494140625,0.3051758110523224,109.86329197883606,1972.2559410657611,1,1789167790.1600733,38.990219585,-76.93993135333334,-10.484000000000002,0,1,15.531481,8.673024999999999,105.206049,1,1,1789167791.1353626,0.06932991885467303,0.9940062793537023,0.07110676248350044,-0.045702377248116176,172.20008299785206,-5.780434213645109,172.41479374916653,0.0010302678574522527,-0.03730257303702441,-0.00026075219024795286,0.23888999794006346,-0.15720060209274292,-9.753694250869751
2026-09-11T19:03:11.171,0.3676053760000002,-55.11414337158203,-4960.272903442383,-19841.09161376953,-37.7531882095337,-0.027520828247070316,0.0,0.0,0.0,0.0,0.0,0.027374267578125,224.25,9.854736328125,0.0,0.0,-3288.1356027323473,1,1789167791.1543205,38.99022003666666,-76.93993083666666,-10.489,0,1,15.484225,7.884863999999999,70.87956100000001,1,1,1789167791.1633625,0.06843607544715513,0.9940514309253597,0.07155285850790545,-0.04537008587145915,172.1413407518154,-5.738824464658569,172.51781673811644,0.0016037830496575894,-0.031183797745382685,0.0037610100051225807,0.4150174348449707,-0.07276534420013428,-9.734473216552734
2026-09-11T19:03:11.203,0.4010231360000205,-55.11414337158203,-4960.272903442383,-19841.09161376953,-37.7531882095337,-0.027520828247070316,0.0,0.0,0.0,0.0,0.0,0.02725982666015625,223.3125,9.81353759765625,0.015258795581758022,5.493166409432888,164.37865402796461,1,1789167791.1543205,38.99022003666666,-76.93993083666666,-10.489,0,1,15.484225,7.884863999999999,70.87956100000001,1,1,1789167791.1953626,0.06782706601109004,0.9939389237622339,0.07285779309140404,-0.04665454889450052,171.9962042907464,-5.890465296870665,172.60475802076508,0.0006997024971245267,-0.019972326229346714,0.0004141666314982544,0.4293351440811157,0.0074530541229248055,-9.666611197433472
2026-09-11T19:03:11.237,0.43444041600000105,-55.11414337158203,-4960.272903442383,-19841.09161376953,-37.7531882095337,-0.027520828247070316,0.0,0.0,0.0,0.0,0.0,0.027067184448242188,221.734375,9.744186401367188,0.0,0.0,-164.38101513456758,1,1789167791.1543205,38.99022003666666,-76.93993083666666,-10.489,0,1,15.484225,7.884863999999999,70.87956100000001,1,1,1789167791.2353625,0.06674821710865664,0.9940274900820956,0.07332883575310528,-0.0455730876834062,171.9285878409517,-5.761683094318707,172.7236405581904,0.0001059414855960558,0.002583610891727206,-0.001531002819849426,0.30989014511108404,0.005393657588958741,-9.720253573818207
2026-09-11T19:03:11.270,0.4678567040000132,-55.11414337158203,-4960.272903442383,-19841.09161376953,-37.7531882095337,-0.027520828247070316,0.0,0.0,0.0,0.0,0.0,0.027067184448242188,221.734375,9.744186401367188,0.0457763709127903,16.479493528604507,493.1575143414644,1,1789167791.1543205,38.99022003666666,-76.93993083666666,-10.489,0,1,15.484225,7.884863999999999,70.87956100000001,1,1,1789167791.2633626,0.06595544529879985,0.9940615033653828,0.07402533333889194,-0.044853726561547035,171.83922675902056,-5.678103919666707,172.8134273454914,-0.0006771877497737999,0.003106860601475106,-0.0007342600163140145,0.31655866722106935,0.0483467852973938,-9.709172059135437
2026-09-11T19:03:11.304,0.5012727680000069,-55.11414337158203,-4960.272903442383,-19841.09161376953,-37.7531882095337,-0.027520828247070316,0.0,0.0,0.0,0.0,0.0,0.027252197265625,223.25,9.810791015625,0.0,0.0,-493.1608201554691,1,1789167791.1543205,38.99022003666666,-76.93993083666666,-10.489,0,1,15.484225,7.884863999999999,70.87956100000001,1,1,1789167791.2953627,0.06523928683610535,0.993956473929062,0.07517665943598595,-0.046290747063187504,171.71170441818245,-5.844612691534894,172.91328557799548,-0.0003045599544730105,0.0047424086435189925,0.003139149192637001,0.40060165910720824,0.05678050443649292,-9.710152724151612
2026-09-11T19:03:11.338,0.5346926720000056,-55.11414337158203,-4960.272903442383,-19841.09161376953,-37.7531882095337,-0.027520828247070316,0.0,0.0,0.0,0.0,0.0,0.027252197265625,223.25,9.810791015625,0.0,0.0,0.0,1,1789167791.1543205,38.99022003666666,-76.93993083666666,-10.489,0,1,15.484225,7.884863999999999,70.87956100000001,1,1,1789167791.3353627,0.06434356815693289,0.9941421097978107,0.07372074413511522,-0.04589795908051296,171.87167351765356,-5.782078205122948,173.00483124765304,-0.0019191640454929648,0.016575566439115348,-0.003371277983152247,0.3393100955963135,0.012258312702178956,-9.717998044281005
2026-09-11T19:03:11.371,0.568104672000004,-55.11414337158203,-4960.272903442383,-19841.09161376953,-37.7531882095337,-0.027520828247070316,0.0,0.0,0.0,0.0,0.0,0.027067184448242188,221.734375,9.744186401367188,0.0,0.0,0.0,1,1789167791.1543205,38.99022003666666,-76.93993083666666,-10.489,0,1,15.484225,7.884863999999999,70.87956100000001,1,1,1789167791.3633626,0.06354571236941825,0.9941296598466031,0.07436760460185932,-0.04623441616936766,171.79464839294116,-5.818498202447553,173.10285585143131,-0.0007175048554948688,0.01372439657305741,-0.0013116149328737386,0.35990406093597416,0.06550842308044434,-9.694069817886351
2026-09-11T19:03:11.404,0.60152547200002,-55.11414337158203,-4960.272903442383,-19841.09161376953,-37.7531882095337,-0.027520828247070316,0.0,0.0,0.0,0.0,0.0,0.027067184448242188,221.734375,9.744186401367188,0.0,0.0,0.0,1,1789167791.1543205,38.99022003666666,-76.93993083666666,-10.489,0,1,15.484225,7.884863999999999,70.87956100000001,1,1,1789167791.3953626,0.06279936680392412,0.9941379022998807,0.07474062182293374,-0.046474833935582105,171.74880622472503,-5.842377803762122,173.19266814090125,0.0008925613794699001,-0.001025904534322267,-0.0009035569537574643,0.40697598171234134,0.11012868131637574,-9.718390310287475
2026-09-11T19:03:11.438,0.6349449920000154,-55.11414337158203,-4960.272903442383,-19841.09161376953,-37.7531882095337,-0.027520828247070316,0.0,0.0,0.0,0.0,0.0,0.026945114135742188,220.734375,9.700241088867188,0.0,0.0,0.0,1,1789167791.1543205,38.99022003666666,-76.93993083666666,-10.489,0,1,15.484225,7.884863999999999,70.87956100000001,1,1,1789167791.4353626,0.061852910008043216,0.9941052767019897,0.07591711782798752,-0.046535014531949345,171.6081426331091,-5.849328463816712,173.30883041777574,0.0010255554684718681,-0.01695343022217212,-0.001165007275706215,0.36902424558639524,0.16504592222213746,-9.708387527122497
2026-09-11T19:03:11.471,0.6683569280000086,-55.11414337158203,-4960.272903442383,-19841.09161376953,-37.7531882095337,-0.027520828247070316,0.0,0.0,0.0,0.0,0.0,0.026945114135742188,220.734375,9.700241088867188,0.0,0.0,0.0,1,1789167791.1543205,38.99022003666666,-76.93993083666666,-10.489,0,1,15.484225,7.884863999999999,70.87956100000001,1,1,1789167791.4633627,0.06122897430537404,0.9941503327441169,0.07628378646185209,-0.045792057535301765,171.55794247552214,-5.761625072555886,173.37688532458242,0.002088635515861614,-0.025202554398798118,-0.0020238838006126246,0.3612769919586181,0.20280152534484863,-9.702895803031922
2026-09-11T19:03:11.504,0.7017757119999999,-55.11414337158203,-4960.272903442383,-19841.09161376953,-37.7531882095337,-0.027520828247070316,0.0,0.0,0.0,0.0,0.0,0.026945114135742188,220.734375,9.700241088867188,0.0,0.0,0.0,1,1789167791.1543205,38.99022003666666,-76.93993083666666,-10.489,0,1,15.484225,7.884863999999999,70.87956100000001,1,1,1789167791.4953625,0.06059629465740256,0.9941832430420986,0.0766086843669602,-0.045374858761788275,171.51448395016908,-5.710739064942767,173.44818369698618,0.0022418754241867165,-0.027737121538544286,0.0014648548411988409,0.3661803170394897,0.21653083557128905,-9.693971751384735
2026-09-11T19:03:11.538,0.7351983679999989,-55.11414337158203,-4960.272903442383,-19841.09161376953,-37.7531882095337,-0.027520828247070316,0.0,0.0,0.0,0.0,0.0,0.026788711547851562,219.453125,9.643936157226562,-0.015258789993822575,-5.493164397776127,-164.3545144280659,1,1789167791.1543205,38.99022003666666,-76.93993083666666,-10.489,0,1,15.484225,7.884863999999999,70.87956100000001,1,1,1789167791.5343626,0.05969548676205067,0.9942517375865351,0.07670776610674797,-0.044898215836600704,171.49524402530423,-5.649257901567859,173.54848861419788,0.00027366762671271087,-0.026483800602687155,-0.0038760272028290073,0.34499795269012457,0.18809155010223388,-9.690245224323272
2026-09-11T19:03:11.571,0.7686153600000125,-55.11414337158203,-4960.272903442383,-19841.09161376953,-37.7531882095337,-0.027520828247070316,0.0,0.0,0.0,0.0,0.0,0.026578903198242188,217.734375,9.568405151367188,0.0,0.0,164.38237163218923,1,1789167791.1543205,38.99022003666666,-76.93993083666666,-10.489,0,1,15.484225,7.884863999999999,70.87956100000001,1,1,1789167791.5623627,0.05902813804987179,0.9943207636676082,0.07650236100416935,-0.044601419468638076,171.51348018302252,-5.608343126344095,173.62165303191028,0.002791305072714531,-0.02174942047372734,-0.004692143161061556,0.3136166721725464,0.16004453063964844,-9.723489768371582
2026-09-11T19:03:11.604,0.8020365760000061,-55.11414337158203,-4960.272903442383,-19841.09161376953,-37.7531882095337,-0.027520828247070316,0.0,0.0,0.0,0.0,0.0,0.026132583618164062,214.078125,9.407730102539062,-0.015258789993822575,-5.493164397776127,-164.36159587302808,1,1789167791.1543205,38.99022003666666,-76.93993083666666,-10.489,0,1,15.484225,7.884863999999999,70.87956100000001,1,1,1789167791.5953627,0.058187360698161134,0.9944126683040075,0.07590476202600285,-0.044678219226618646,171.57802425295733,-5.6061986626013605,173.71549454434827,0.0027630307388322234,-0.011473619969685524,-0.0012908455147750061,0.3250904528617859,0.1344491737174988,-9.698482810459137
2026-09-11T19:03:11.638,0.8354544640000086,-55.1148796081543,-4960.339164733887,-19841.356658935547,-37.7536925315857,-0.02802515029907227,-0.026260698214173317,-0.017988578276708724,-0.04023930358963114,-0.5382918955473011,0.0,0.025602340698242188,209.734375,9.216842651367188,0.0,0.0,164.37796421412762,1,1789167791.1543205,38.99022003666666,-76.93993083666666,-10.489,0,1,15.484225,7.884863999999999,70.87956100000001,1,1,1789167791.6353626,0.05779592444743371,0.9942814733619559,0.07776813636647135,-0.044901000128396484,171.36242868438976,-5.640008755589909,173.77274723872566,-0.011407821056885337,0.029106506869659036,-0.0063098888447351,0.7808054858779907,-0.09041731449127198,-10.062799863967895
2026-09-11T19:03:11.671,0.8688709120000055,-55.115760803222656,-4960.418472290039,-19841.673889160156,-37.75429615020752,-0.02862876892089844,-0.026260698214173317,-0.017988578276708724,-0.04023930358963114,0.0,0.0,0.0262451171875,215.0,9.4482421875,-0.0457763709127903,-16.479493528604507,-493.15515307330065,1,1789167791.1543205,38.99022003666666,-76.93993083666666,-10.489,0,1,15.484225,7.884863999999999,70.87956100000001,1,1,1789167791.6633625,0.05780760491976838,0.9943905494816937,0.07568813896408713,-0.04601110230247019,171.6081171996537,-5.7539532054526505,173.76834489400807,-0.004711516315758693,0.02786383244223907,-0.014964278473674182,-0.24918698060989378,-0.5106322739219665,-9.669651258983611
2026-09-11T19:03:11.705,0.9022920640000223,-55.116634368896484,-4960.497093200684,-19841.988372802734,-37.754894542694096,-0.029227161407470705,-0.026260698214173317,-0.017988578276708724,-0.04023930358963114,0.0,0.0,0.025787353515625,211.25,9.283447265625,-0.015258789993822575,-5.493164397776127,328.7238312677817,1,1789167791.1543205,38.99022003666666,-76.93993083666666,-10.489,0,1,15.484225,7.884863999999999,70.87956100000001,1,1,1789167791.6953626,0.0577178232131747,0.9945770289343242,0.07348783098858133,-0.04565878991277596,171.85909884052643,-5.699178486223224,173.7633128836417,-0.0009149015938954276,0.030966329720584194,0.025209884781656495,0.7472667423248291,-0.7395194886970521,-9.566779498786925
2026-09-11T19:03:11.738,0.9357094720000134,-55.11751174926758,-4960.576057434082,-19842.304229736328,-37.75549554824829,-0.029828166961669924,-0.026260698214173317,-0.017988578276708724,-0.04023930358963114,0.0,0.0,0.0244140625,200.0,8.7890625,-0.0762939527630806,-27.465822994709015,-657.5213313054892,1,1789167791.1543205,38.99022003666666,-76.93993083666666,-10.489,0,1,15.484225,7.884863999999999,70.87956100000001,1,1,1789167791.7353625,0.05734654598618081,0.9946416955748153,0.07142688381664371,-0.04793194504456378,172.106684355015,-5.943194042708234,173.81086972824684,0.0030600857775216583,0.05182283974899123,-0.001084023998413678,0.5503492070770264,-0.05050424833297729,-9.803021701183319
2026-09-11T19:03:11.772,0.9691210240000032,-55.11839294433594,-4960.655364990234,-19842.621459960938,-37.75609916687012,-0.030431785583496095,-0.026260698214173317,-0.017988578276708724,-0.04023930358963114,0.0,0.0,0.023649215698242188,193.734375,8.513717651367188,0.0,0.0,822.0457102596552,1,1789167791.1543205,38.99022003666666,-76.93993083666666,-10.489,0,1,15.484225,7.884863999999999,70.87956100000001,1,1,1789167791.7633626,0.056799943909088796,0.9946646082056082,0.07237316530922804,-0.04667128130051446,171.98768773136192,-5.8005661006855345,173.869978634318,0.0003113667385557884,0.06391500440558354,-0.005421865321320384,0.03765753662109375,0.09473224056243897,-9.652979953708648
2026-09-11T19:03:11.805,1.002546496000008,-55.10985565185547,-4959.887008666992,-19839.54803466797,-37.750251121520996,-0.024583740234375002,0.18382489681243896,0.1259200543165207,0.2816751393980864,4.305358278656747,0.0,0.023405075073242188,191.734375,8.425827026367188,0.0,0.0,0.0,1,1789167791.1543205,38.99022003666666,-76.93993083666666,-10.489,0,1,15.484225,7.884863999999999,70.87956100000001,1,1,1789167791.7953627,0.05647995872899949,0.9943968618208806,0.07477728942433867,-0.04892087948007149,171.72075226758906,-6.069824368789309,173.9381094445053,0.0024104742299293686,0.05818142327985697,0.015178255839968688,0.5765329630088807,0.26379888935089113,-9.606986764450072
2026-09-11T19:03:11.838,1.035969055999999,-55.10371780395508,-4959.334602355957,-19837.338409423828,-37.74604669570923,-0.020379314422607424,0.18382489681243896,0.1259200543165207,0.2816751393980864,0.0,0.0,0.023670196533203125,193.90625,8.521270751953125,0.015258789993822575,5.493164397776127,164.35498650544986,1,1789167791.1543205,38.99022003666666,-76.93993083666666,-10.489,0,1,15.484225,7.884863999999999,70.87956100000001,1,1,1789167791.8353627,0.05571580174127735,0.9942678924162366,0.07736447616819264,-0.04839261693401913,171.41523858995606,-6.018599279599001,174.0374895194725,0.003366216528321464,0.04609536727564664,0.008051378372375042,0.3849110188484192,0.3876568808937073,-9.781447070827484
2026-09-11T19:03:11.872,1.069378080000007,-55.09751510620117,-4958.7763595581055,-19835.105438232422,-37.741797847747804,-0.01613046646118164,0.18382489681243896,0.1259200543165207,0.2816751393980864,0.0,0.0,0.023260116577148438,190.546875,8.373641967773438,-0.0305175818502903,-10.986329466104507,-493.26474978367185,1,1789167791.1543205,38.99022003666666,-76.93993083666666,-10.489,0,1,15.484225,7.884863999999999,70.87956100000001,1,1,1789167791.8633626,0.05521801863157047,0.9941147376545958,0.07887702531840317,-0.04965152236596129,171.2442096406212,-6.167157811757864,174.11415263294634,-0.0002864085302522695,0.05320356972024395,-0.004100302011710279,0.547995611038208,0.39716933155059814,-9.63003239233017
2026-09-11T19:03:11.905,1.1028025280000122,-55.093502044677734,-4958.415184020996,-19833.660736083984,-37.73904890060425,-0.013381519317626954,0.105679452419281,0.0723904249072075,0.1619327686721712,-1.6015112473751205,0.0,0.019544601440429688,160.109375,7.0360565185546875,-0.1525879055261612,-54.93164598941803,-1314.765662646296,1,1789167791.1543205,38.99022003666666,-76.93993083666666,-10.489,0,1,15.484225,7.884863999999999,70.87956100000001,1,1,1789167791.8953626,0.054630375000861,0.9940042955985406,0.08039782690244002,-0.05007166752046254,171.06728634079727,-6.218896796911936,174.1946275162308,-0.0025523694981165078,0.05962358884077989,-0.004511327050554943,0.34666508321762085,0.5236751186370849,-9.557659314136504
2026-09-11T19:03:11.939,1.1362259840000206,-55.093414306640625,-4958.407287597656,-19833.629150390625,-37.73898880004883,-0.013321418762207032,0.027534006163477898,0.01886079422198236,0.04219039509212227,-1.6015588180112696,0.0,0.010171890258789062,83.328125,3.6618804931640625,-0.4730224907398224,-170.28809666633606,-3451.3621415119082,1,1789167791.1543205,38.99022003666666,-76.93993083666666,-10.489,0,1,15.484225,7.884863999999999,70.87956100000001,1,1,1789167791.9353626,0.053795382719898935,0.9938727933405195,0.0817091598817411,-0.0514445395251274,170.917385550519,-6.375835895287961,174.31048028952205,-0.006343922765148989,0.07993869773521828,-0.013418440355182804,0.6410607210731506,0.5263229141807556,-9.54677393245697
2026-09-11T19:03:11.972,1.1696418559999984,-55.126277923583984,-4961.365013122559,-19845.460052490234,-37.76150037765503,-0.035832996368408206,-0.9453848004341125,-0.6475885882973671,-1.4486144154826557,-19.944096701106385,0.0,-0.008371353149414062,-68.578125,-3.0136871337890625,-0.07629400491714478,-27.46584177017212,4274.084330232622,1,1789167791.1543205,38.99022003666666,-76.93993083666666,-10.489,0,1,15.484225,7.884863999999999,70.87956100000001,1,1,1789167791.9633627,0.05334355433565345,0.9938331582704896,0.08106703158838273,-0.05364937205961769,170.99888481391125,-6.620113109036651,174.3769011563785,-0.02869303836986158,0.1076356767009667,-0.022294835864975566,0.6437085166168214,0.07609960525512696,-9.375059488124847
2026-09-11T19:03:12.005,1.2030647680000186,-55.134925842285156,-4962.143325805664,-19848.573303222656,-37.76742420196533,-0.04175682067871094,-0.27527496218681335,-0.18856334909796715,-0.421804198948566,13.733849378507836,0.0,-0.009807586669921875,-80.34375,-3.530731201171875,-0.3051758110523224,-109.86329197883606,-2465.2983620521773,1,1789167791.1543205,38.99022003666666,-76.93993083666666,-10.489,0,1,15.484225,7.884863999999999,70.87956100000001,1,1,1789167791.9953625,0.05281312664691465,0.9940056642985111,0.07854712088691823,-0.05471620232278851,171.29110210967085,-6.7232109366211015,174.42981615384602,-0.014191446680891093,0.13068519293450462,-0.020632060686600565,0.3266595168876648,-0.20427252286911013,-10.166063890171051
2026-09-11T19:03:12.039,1.2364910720000069,-55.134883880615234,-4962.139549255371,-19848.558197021484,-37.767395458221436,-0.04172807693481446,-0.04331390932202339,-0.029670027885586026,-0.06636996216353346,4.753541438875114,0.0,-0.0186614990234375,-152.875,-6.7181396484375,-0.2899170219898224,-104.37012791633606,164.3365674680016,1,1789167791.1543205,38.99022003666666,-76.93993083666666,-10.489,0,1,15.484225,7.884863999999999,70.87956100000001,1,1,1789167792.0353627,0.05209625100337463,0.994073324555744,0.07680155494625925,-0.05661914160353079,171.49636221460997,-6.9249597904448565,174.51556488750663,0.001737475270360355,0.10835143622720957,-0.014864271107534906,0.6567513613319397,0.35558913486480714,-9.624148402233123
2026-09-11T19:03:12.072,1.2699088000000245,-55.135223388671875,-4962.170104980469,-19848.680419921875,-37.767628021240235,-0.041960639953613287,-0.01754046231508255,-0.012015216685831548,-0.02687727426143418,0.5283067478359139,0.0,-0.026737213134765625,-219.03125,-9.625396728515625,-0.3204346001148224,-115.35645604133606,-328.7574824055724,1,1789167791.1543205,38.99022003666666,-76.93993083666666,-10.489,0,1,15.484225,7.884863999999999,70.87956100000001,1,1,1789167792.0633626,0.05146823228768151,0.9939684459302878,0.07858079268178146,-0.056593361639089,171.28649969374243,-6.926319462166776,174.6000127751032,-0.003574608841009586,0.08324539853604675,-0.012284849006012488,0.6277236768531799,0.6492983072090149,-9.619833476161956
2026-09-11T19:03:12.106,1.3033323200000098,-55.134822845458984,-4962.134056091309,-19848.536224365234,-37.76735364913941,-0.041686267852783204,0.0,0.0,0.0,0.35948388098670764,0.0,-0.0405426025390625,-332.125,-14.5953369140625,-0.3967285454273224,-142.82227635383606,-821.7512791145906,1,1789167791.1543205,38.99022003666666,-76.93993083666666,-10.489,0,1,15.484225,7.884863999999999,70.87956100000001,1,1,1789167792.0953627,0.050802316900073405,0.9938879796224457,0.0803501101132836,-0.056121906278929816,171.07557379954702,-6.876042505080641,174.68501109821068,-0.0069792226128749255,0.09636800558301652,-0.01371811338775023,0.4067798487091065,0.629586940383911,-9.642192638530732
2026-09-11T19:03:12.139,1.33675430400001,-55.134822845458984,-4962.134056091309,-19848.536224365234,-37.76735364913941,-0.041686267852783204,0.0,0.0,0.0,0.0,0.0,-0.04233741760253906,-346.828125,-15.241470336914062,0.0305175818502903,10.986329466104507,4602.019012992742,1,1789167791.1543205,38.99022003666666,-76.93993083666666,-10.489,0,1,15.484225,7.884863999999999,70.87956100000001,1,1,1789167792.1353626,0.04996674666986455,0.9939486083261095,0.07934079518304316,-0.05722347816711293,171.19101567365033,-6.989254555828927,174.7832277793304,-0.005288173100617619,0.11244737491578986,-0.015756483421154408,0.6758743291473388,0.4660120156860352,-9.694952416400909
2026-09-11T19:03:12.172,1.3701656320000097,-55.135711669921875,-4962.214050292969,-19848.856201171875,-37.76796249389649,-0.04229511260986329,-0.02577344700694084,-0.017654811199754476,-0.03949268790209927,-0.5284079459444008,0.0,-0.04440498352050781,-363.765625,-15.985794067382812,-0.0610351637005806,-21.972658932209015,-986.4614898968946,1,1789167791.1543205,38.99022003666666,-76.93993083666666,-10.489,0,1,15.484225,7.884863999999999,70.87956100000001,1,1,1789167792.1633625,0.04945603211153456,0.9937633168169988,0.08041682893222106,-0.05934395218677378,171.0718538859564,-7.232841188492776,174.8673108703983,-0.006093118951637403,0.10002150330621623,-0.015508472134446014,0.8945626277542114,0.5987940588760376,-9.712800519695282
2026-09-11T19:03:12.205,1.403571520000014,-55.13656997680664,-4962.291297912598,-19849.16519165039,-37.768550434112555,-0.04288305282592774,-0.02577344700694084,-0.017654811199754476,-0.03949268790209927,0.0,0.0,-0.048809051513671875,-399.84375,-17.571258544921875,-0.1678466945886612,-60.42481005191803,-1151.0590923283955,1,1789167792.1993043,38.99021996333333,-76.93993058833334,-10.444000000000003,0,1,15.484225,7.884863999999999,70.86272399999999,1,1,1789167792.1953626,0.04872593515054324,0.9936725941964955,0.08112667294785211,-0.06048984809804147,170.98908405486745,-7.360976713879577,174.96618304505427,-0.00547579599520701,0.080645556082276,-0.024309993019328218,0.7722737002372742,0.5953617313194275,-9.598651111812591
2026-09-11T19:03:12.240,1.4369917440000108,-55.13743591308594,-4962.369232177734,-19849.476928710938,-37.76914360046387,-0.043476219177246096,-0.02577344700694084,-0.017654811199754476,-0.03949268790209927,0.0,0.0,-0.05692291259765625,-466.3125,-20.49224853515625,-0.3967285454273224,-142.82227635383606,-2465.4971283832797,1,1789167792.1993043,38.99021996333333,-76.93993058833334,-10.444000000000003,0,1,15.484225,7.884863999999999,70.86272399999999,1,1,1789167792.2343626,0.04759456416685134,0.9935573617621304,0.08269329515488537,-0.06115836235928239,170.80219655487127,-7.434932687072456,175.11378434676485,-0.00309342156623475,0.07015804713996726,-0.03879395688285356,0.7948289956092834,0.8159132934570312,-9.695442748908997
2026-09-11T19:03:12.273,1.4704068480000103,-55.17659378051758,-4965.893440246582,-19863.573760986328,-37.795966739654546,-0.07029935836791992,-0.7536162734031677,-0.5162271472811699,-1.1547672406969607,-14.920568138331195,0.0,-0.073089599609375,-598.75,-26.312255859375,-0.4730225205421448,-170.28810739517212,-821.9585682371808,1,1789167792.1993043,38.99021996333333,-76.93993058833334,-10.444000000000003,0,1,15.484225,7.884863999999999,70.86272399999999,1,1,1789167792.2623627,0.046779129416967755,0.9934286495580629,0.08383736691239603,-0.06230992856223009,170.6680261049731,-7.564638638449273,175.22632896810558,-0.0021130701253895346,0.06261508317869817,-0.04082499653339937,1.038230052623749,0.7967903256416321,-9.58001847650528
2026-09-11T19:03:12.306,1.5038281920000145,-55.1802978515625,-4966.226806640625,-19864.9072265625,-37.798504028320316,-0.07283664703369142,-0.2801613211631775,-0.1919105049967766,-0.4292915734537768,9.703877925566152,0.0,-0.07705879211425781,-631.265625,-27.741165161132812,0.0,0.0,5095.190289030591,1,1789167792.1993043,38.99021996333333,-76.93993058833334,-10.444000000000003,0,1,15.484225,7.884863999999999,70.86272399999999,1,1,1789167792.2953627,0.04572006797786385,0.9933076864859857,0.08462390890692308,-0.06393988890568232,170.5746569500277,-7.744857036813032,175.36872295327862,-0.003485073450382277,0.06294879013167948,-0.05808595376977288,0.958992319316864,0.8266025421333313,-9.613459153556823
2026-09-11T19:03:12.340,1.5372542080000073,-55.189613342285156,-4967.065200805664,-19868.260803222656,-37.804885139465334,-0.07921775817871095,-0.2801613211631775,-0.1919105049967766,-0.4292915734537768,0.0,0.0,-0.08369636535644531,-685.640625,-30.130691528320312,-0.1831054985523224,-65.91797947883606,-1972.056121760074,1,1789167792.1993043,38.99021996333333,-76.93993058833334,-10.444000000000003,0,1,15.484225,7.884863999999999,70.86272399999999,1,1,1789167792.3353627,0.04409893273790663,0.9933726033869635,0.08465652579933765,-0.06402677261247953,170.5586304306148,-7.739619468058674,175.55635092282162,-0.005968851508895408,0.059101735394433585,-0.0678070886375309,0.8889728371620178,0.7784518898391725,-9.469987861690521
2026-09-11T19:03:12.373,1.5706685120000259,-55.21701431274414,-4969.531288146973,-19878.12515258789,-37.82365480422974,-0.09798742294311524,-0.6418003439903259,-0.4396332356333733,-0.9834315399815964,-7.413673217208392,0.0,-0.09154319763183594,-749.921875,-32.95555114746094,-0.1983642876148224,-71.41114354133606,-164.39558527081547,1,1789167792.1993043,38.99021996333333,-76.93993058833334,-10.444000000000003,0,1,15.484225,7.884863999999999,70.86272399999999,1,1,1789167792.3633626,0.042866168566259535,0.9933033269831685,0.08578345101200997,-0.06443750250504791,170.4199487211434,-7.779806799237766,175.71077008799642,-0.0066120053382553185,0.04178667295124824,-0.0742140177886769,1.0560781559181214,0.9233941792297362,-9.729569891471863
2026-09-11T19:03:12.407,1.6040927680000152,-55.23204040527344,-4970.883636474609,-19883.534545898438,-37.83394767761231,-0.1082802963256836,-0.511557936668396,-0.35041718661785126,-0.7838609221050709,2.669200744978453,0.0,-0.09907150268554688,-811.59375,-35.665740966796875,-0.2899170219898224,-104.37012791633606,-986.0798210440503,1,1789167792.1993043,38.99021996333333,-76.93993058833334,-10.444000000000003,0,1,15.484225,7.884863999999999,70.86272399999999,1,1,1789167792.4033625,0.04110813534807015,0.9931983279091593,0.08665740755992982,-0.06601284997367456,170.3095504167859,-7.946730064919214,175.93449746591756,-0.01085559888155433,0.029192726134707556,-0.0877495697366685,1.1630687091827392,0.9630130458831787,-9.459494746017457
2026-09-11T19:03:12.440,1.6375177920000112,-55.25991439819336,-4973.392295837402,-19893.56918334961,-37.853041362762454,-0.1273739814758301,-0.6963570713996887,-0.4770045939087868,-1.0670288875912364,-3.787204679073696,0.0,-0.11034965515136719,-903.984375,-39.72587585449219,-0.2899170219898224,-104.37012791633606,0.0,1,1789167792.1993043,38.99021996333333,-76.93993058833334,-10.444000000000003,0,1,15.484225,7.884863999999999,70.86272399999999,1,1,1789167792.4353626,0.039374565187390693,0.9931079097980462,0.08770413808750277,-0.06703959483162056,170.17719521943314,-8.051418218156304,176.15206915131756,-0.017774084036459855,0.04847041132176052,-0.1067101285986341,1.2432871075057983,1.038033919620514,-9.60669256494522
2026-09-11T19:03:12.474,1.6709457920000261,-55.28466033935547,-4975.619430541992,-19902.47772216797,-37.8699923324585,-0.14432495117187502,-0.7744560241699219,-0.5305023765563965,-1.1867000191401127,-1.6003883764384919,0.0,-0.119354248046875,-977.75,-42.967529296875,-0.3967285454273224,-142.82227635383606,-1150.2976079179991,1,1789167792.1993043,38.99021996333333,-76.93993058833334,-10.444000000000003,0,1,15.484225,7.884863999999999,70.86272399999999,1,1,1789167792.4633627,0.037750724724446794,0.9931225525147277,0.08695914870607259,-0.06870651297894499,170.25431637571214,-8.223421041840687,176.34849113068094,-0.010752798988611865,0.04748796548581292,-0.12779318236395001,1.2220066766548157,0.9408500165176391,-9.834697181205751
2026-09-11T19:03:12.507,1.704361504000019,-55.313968658447266,-4978.257179260254,-19913.028717041016,-37.89006853103638,-0.16440114974975586,-0.8796682357788086,-0.6025727415084839,-1.3479168340830423,-2.156780766847124,0.0,-0.1346302032470703,-1102.890625,-48.46687316894531,-0.5645752549171448,-203.24709177017212,-1808.2755625960874,1,1789167792.1993043,38.99021996333333,-76.93993058833334,-10.444000000000003,0,1,15.484225,7.884863999999999,70.86272399999999,1,1,1789167792.5033627,0.03499909891197608,0.9932946258173254,0.08586258145596377,-0.06905408390158418,170.35949359437785,-8.232614819949308,176.65942534717556,-0.020378987945061388,0.050733405229896375,-0.1452815560018584,1.2913396932983399,0.7876701409912109,-10.063094063472747
2026-09-11T19:03:12.541,1.7377821120000192,-55.34511947631836,-4981.060752868652,-19924.24301147461,-37.91140684127808,-0.18573945999145508,-0.9315480589866638,-0.6381104204058647,-1.4274123577439692,-1.0633462711803645,0.0,-0.15018463134765625,-1230.3125,-54.06646728515625,-0.0152588477358222,-5.493185184895992,5917.1247448662625,1,1789167792.1993043,38.99021996333333,-76.93993058833334,-10.444000000000003,0,1,15.484225,7.884863999999999,70.86272399999999,1,1,1789167792.5353627,0.032642133622296336,0.9932670809217401,0.08470642225967945,-0.07197096010026749,170.479082239994,-8.540169714151421,176.94800016672067,-0.01033898142296401,0.04546739781077908,-0.1677207305959739,1.641044838066101,0.7848262124443055,-9.93933413843155
2026-09-11T19:03:12.574,1.7711989760000222,-55.378868103027344,-4984.098129272461,-19936.392517089844,-37.934524650573735,-0.2088572692871094,-1.010330080986023,-0.6920761054754258,-1.5481301572016486,-1.6149236825321545,0.0,-0.15655136108398438,-1282.46875,-56.358489990234375,-0.3509521782398224,-126.34278416633606,-3616.4254964627817,1,1789167792.1993043,38.99021996333333,-76.93993058833334,-10.444000000000003,0,1,15.484225,7.884863999999999,70.86272399999999,1,1,1789167792.5633626,0.030019198690842342,0.9934515248610392,0.08402887479321658,-0.07135869717295687,170.53440559241002,-8.443135778915059,177.23870862937343,-0.002585181688054001,0.022747399740017698,-0.18829240289045546,1.1926847926712036,0.8655349432754517,-9.692108487854004
2026-09-11T19:03:12.607,1.8046138880000058,-55.412879943847656,-4987.159194946289,-19948.636779785156,-37.957822761535645,-0.23215538024902346,-1.0366225242614746,-0.7100864291191101,-1.5884181037918517,-0.5389906052631,0.0,-0.1656055450439453,-1356.640625,-59.61799621582031,-0.2746582329273224,-98.87696385383606,821.9629700809475,1,1789167792.1993043,38.99021996333333,-76.93993058833334,-10.444000000000003,0,1,15.484225,7.884863999999999,70.86272399999999,1,1,1789167792.6033626,0.02618394252991322,0.9936074030080092,0.08299812624125591,-0.07190299633332568,170.62209443672876,-8.466616571519292,177.67663281143248,-0.012355709373643456,0.0019247490990993467,-0.20589003413953869,1.2306365287971495,0.9668376394462586,-10.011805283126831
2026-09-11T19:03:12.641,1.8380408640000212,-55.451847076416016,-4990.666236877441,-19962.664947509766,-37.98451524734497,-0.25884786605834964,-1.1418347358703613,-0.7821567940711975,-1.7496349187347813,-2.156053989210814,0.0,-0.1729907989501953,-1417.140625,-62.27668762207031,-0.2136230766773224,-76.90430760383606,657.3330548952397,1,1789167792.1993043,38.99021996333333,-76.93993058833334,-10.444000000000003,0,1,15.484225,7.884863999999999,70.86272399999999,1,1,1789167792.6353626,0.02279659762486669,0.9936060561493966,0.08389600280624027,-0.07203319396713974,170.48945237309073,-8.451392890400635,178.07566163968616,-0.01867345220001253,-0.004572762640225144,-0.22030104324033067,1.1927828591728211,1.123940175037384,-9.771640420665742
2026-09-11T19:03:12.674,1.8714552640000193,-55.49272918701172,-4994.345626831055,-19977.38250732422,-38.01251949310303,-0.2868521118164063,-1.2466654777526855,-0.8539658522605896,-1.9102672070968787,-2.149045267591106,0.0,-0.1769390106201172,-1449.484375,-63.69804382324219,0.0,0.0,2301.5319025282665,1,1789167792.1993043,38.99021996333333,-76.93993058833334,-10.444000000000003,0,1,15.484225,7.884863999999999,70.86272399999999,1,1,1789167792.6633625,0.019550904797670954,0.9936673822344393,0.08441391331902429,-0.07153451504775458,170.40195870496873,-8.364135730687062,178.4490974030842,-0.024064250660647414,0.0008716174284459681,-0.230545776883687,1.146887736415863,0.9653666419219971,-9.94080513595581
2026-09-11T19:03:12.707,1.9048716160000083,-55.53390884399414,-4998.051795959473,-19992.20718383789,-38.04072755813599,-0.31506017684936527,-1.2469249963760376,-0.8541436225175858,-1.9106648678364013,-0.00531985828363989,0.0,-0.1770343780517578,-1450.265625,-63.73237609863281,0.0,0.0,0.0,1,1789167792.1993043,38.99021996333333,-76.93993058833334,-10.444000000000003,0,1,15.484225,7.884863999999999,70.86272399999999,1,1,1789167792.7033627,0.015041392159801752,0.9940124602830017,0.0818340163424319,-0.07082498918669569,170.66358858616184,-8.2367432470762,178.93986851017075,-0.014114303127952943,-0.0077363464423900645,-0.2417808103446249,1.0665712715911866,0.3190103297615052,-10.13399614414215
2026-09-11T19:03:12.741,1.9382955840000022,-55.57612609863281,-5001.851348876953,-20007.405395507812,-38.06964637756348,-0.3439789962768555,-1.2220370769500732,-0.8370953977108002,-1.8725290750510006,0.5100598710119841,0.0,-0.1771564483642578,-1451.265625,-63.77632141113281,0.0,0.0,0.0,1,1789167792.1993043,38.99021996333333,-76.93993058833334,-10.444000000000003,0,1,15.484225,7.884863999999999,70.86272399999999,1,1,1789167792.7353625,0.011369546884490664,0.9943901514341619,0.07946995022452287,-0.06887297834200333,170.90852166719742,-7.977273466115148,179.3251061039958,0.0013473941825396225,-0.012895365178360103,-0.230656081692413,0.8008110522079468,0.18622828657150267,-10.275506105976104
2026-09-11T19:03:12.774,1.9717087680000134,-55.61793518066406,-5005.614166259766,-20022.456665039062,-38.098285598754885,-0.37261821746826174,-1.2745585441589355,-0.8730726027488709,-1.9530077906873433,-1.0767368065868452,0.0,-0.1771564483642578,-1451.265625,-63.77632141113281,0.0,0.0,0.0,1,1789167792.1993043,38.99021996333333,-76.93993058833334,-10.444000000000003,0,1,15.484225,7.884863999999999,70.86272399999999,1,1,1789167792.7633626,0.008277110153552274,0.9945815510780839,0.07762006029089755,-0.06865969664261687,171.0982908867913,-7.924048427229054,179.66414440532944,0.003495196360043844,-0.0008157668923821496,-0.22537419177710258,1.2232815411758424,0.39971906059265133,-9.37192136007309
2026-09-11T19:03:12.807,2.0051202880000005,-55.6600456237793,-5009.404106140137,-20037.616424560547,-38.12713125228882,-0.40146387100219727,-1.2748180627822876,-0.873250373005867,-1.9534054514268657,-0.005320627645681384,0.0,-0.177093505859375,-1450.75,-63.753662109375,0.0457763709127903,16.479493528604507,493.2278905183256,1,1789167792.1993043,38.99021996333333,-76.93993058833334,-10.444000000000003,0,1,15.484225,7.884863999999999,70.86272399999999,1,1,1789167792.8033626,0.0034975119531109387,0.9946116835776513,0.0775057459957195,-0.0687620944897343,171.07361766892137,-7.893103437862556,-179.785885943305,-0.008304102048063821,0.020841674729765086,-0.23319553575406476,1.087361369934082,0.6610662874031067,-8.986225809211732
2026-09-11T19:03:12.841,2.0385440000000017,-55.7036247253418,-5013.326225280762,-20053.304901123047,-38.15698293685914,-0.4313155555725098,-1.2757614850997925,-0.8738966172933579,-1.9548510587270869,-0.0193349047374153,0.0,-0.176971435546875,-1449.75,-63.709716796875,0.0,0.0,-493.0479752998092,1,1789167792.1993043,38.99021996333333,-76.93993058833334,-10.444000000000003,0,1,15.484225,7.884863999999999,70.86272399999999,1,1,1789167792.8353627,-0.00027117333376053997,0.9946896230232433,0.07677596059390207,-0.0685414632889092,171.12883641767772,-7.834569985132978,-179.36008518735815,-0.01935779579971951,0.03010570786642579,-0.2345120376088441,1.007142971611023,0.30557521903991697,-9.5525598560524
2026-09-11T19:03:12.875,2.0719532160000256,-55.74879837036133,-5017.3918533325195,-20069.567413330078,-38.187926883697514,-0.4622595024108887,-1.354543685913086,-0.9278624248504639,-2.075569132181601,-1.615297035317064,0.0,-0.16826248168945312,-1378.40625,-60.574493408203125,0.6561279892921448,236.20607614517212,7070.087371849828,1,1789167792.1993043,38.99021996333333,-76.93993058833334,-10.444000000000003,0,1,15.484225,7.884863999999999,70.86272399999999,1,1,1789167792.8633626,-0.0034769420799651276,0.9948875728489188,0.07544347227926881,-0.06704409560138118,171.2612679425875,-7.635935643341639,-179.0152194032565,-0.01729202409705902,0.003982666820125861,-0.21655399586922403,0.450517508430481,0.3343087040138245,-10.19087471508026
2026-09-11T19:03:12.908,2.1053657280000095,-55.78828811645508,-5020.945930480957,-20083.783721923828,-38.21497735977173,-0.48930997848510743,-1.225417137145996,-0.8394107389450074,-1.8777083458862887,2.6472623760074954,0.0,-0.14214706420898438,-1164.46875,-51.172943115234375,0.30517590045928955,109.86332416534424,-3781.30060918163,1,1789167792.1993043,38.99021996333333,-76.93993058833334,-10.444000000000003,0,1,15.484225,7.884863999999999,70.86272399999999,1,1,1789167792.9033625,-0.00737931708721815,0.9952332413467204,0.07405376233681792,-0.0630268298551405,171.40249989121457,-7.143790014246381,-178.61267767190776,-0.03295687773248373,-0.05514105972288285,-0.16729521932433766,0.44512385084152223,0.22957368028640748,-9.963948830337525
2026-09-11T19:03:12.941,2.138792192000011,-55.82931900024414,-5024.638710021973,-20098.55484008789,-38.24308351516724,-0.5174161338806152,-1.175169587135315,-0.8049911671876908,-1.8007139566653765,1.0297102247283783,0.0,-0.1217498779296875,-997.375,-43.8299560546875,1.0833741426467896,390.01469135284424,8381.124823358148,1,1789167792.1993043,38.99021996333333,-76.93993058833334,-10.444000000000003,0,1,15.484225,7.884863999999999,70.86272399999999,1,1,1789167792.9353626,-0.009935225077429197,0.9954296667177094,0.07402324596672462,-0.05951158691785187,171.39742002287096,-6.7194756423762785,-178.35034904124922,-0.03344609352181774,-0.09092886150210137,-0.14504262042726038,0.5739832339668274,0.4959222986793518,-9.600710508346557
2026-09-11T19:03:12.975,2.1722035520000134,-55.87046432495117,-5028.3417892456055,-20113.367156982422,-38.27126806259155,-0.5456006813049317,-1.2539517879486084,-0.8589569747447968,-1.9214320301198906,-1.6151933820443776,0.0,-0.08828544616699219,-723.234375,-31.782760620117188,1.1749268770217896,422.97367572784424,986.4604246878217,1,1789167792.1993043,38.99021996333333,-76.93993058833334,-10.444000000000003,0,1,15.484225,7.884863999999999,70.86272399999999,1,1,1789167792.9633627,-0.011658320256584186,0.9957071518195388,0.07282844056282599,-0.05592289003086282,171.53393945291842,-6.296150408042939,-178.19187978425424,-0.030932470333095503,-0.1613766332978997,-0.11339857935812678,0.5546641331481934,-0.025889556427001952,-9.777622477264405
2026-09-11T19:03:13.008,2.2056138880000162,-55.9059944152832,-5031.539497375488,-20126.157989501953,-38.295606174469,-0.5699387931823731,-1.0730189085006714,-0.73501795232296,-1.6441883328627398,3.70960119712134,0.0,-0.060047149658203125,-491.90625,-21.616973876953125,0.6103516817092896,219.72660541534424,-6083.359063269598,1,1789167792.1993043,38.99021996333333,-76.93993058833334,-10.444000000000003,0,1,15.484225,7.884863999999999,70.86272399999999,1,1,1789167793.0033627,-0.013504725024955795,0.9960487086069149,0.07222055024236769,-0.04988772000389741,171.6099045748858,-5.591229831037595,-178.0359963219206,-0.013054539206141988,-0.16019120566994516,-0.055880555726952844,0.2897865122795105,-0.0025497290420532226,-9.258458417701721
2026-09-11T19:03:13.041,2.2390411519999986,-55.946754455566406,-5035.207901000977,-20140.831604003906,-38.32352680206299,-0.5978594207763672,-1.2045341730117798,-0.8251059085130692,-1.8457093515414018,-2.6950442665650596,0.0,-0.023000717163085938,-188.421875,-8.280258178710938,1.0375977754592896,373.53519916534424,4601.2917404810905,1,1789167792.1993043,38.99021996333333,-76.93993058833334,-10.444000000000003,0,1,15.484225,7.884863999999999,70.86272399999999,1,1,1789167793.0353627,-0.014461382926399124,0.9959401169982723,0.07435534445329782,-0.04863573283661881,171.36212260353554,-5.435549229693547,-177.92539495828305,-0.009028413687641467,-0.12662224096878702,-0.0334567400302549,0.9354563589286804,0.6374322605133057,-10.149980983905792
2026-09-11T19:03:13.075,2.272453024000015,-55.982078552246094,-5038.387069702148,-20153.548278808594,-38.34772380828858,-0.6220564270019532,-1.1009916067123413,-0.7541792505979539,-1.687050936376953,2.1227980855152557,0.0,0.0018062592716887593,14.796875953674316,0.6502533378079534,-0.0915527418255806,-32.958987057209015,-12166.16016673221,1,1789167792.1993043,38.99021996333333,-76.93993058833334,-10.444000000000003,0,1,15.484225,7.884863999999999,70.86272399999999,1,1,1789167793.0633626,-0.01535302271848521,0.995868665763475,0.0763356662996995,-0.04671992395608949,171.13478689572696,-5.204445558602271,-177.82979892271726,-0.010116975542110329,-0.05698883980196924,-0.02889270403628973,0.2704674114608765,0.7708027027130128,-9.180789748420715
2026-09-11T19:03:13.108,2.3058668160000195,-56.02409362792969,-5042.168426513672,-20168.673706054688,-38.37650413513184,-0.6508367538452149,-1.1812357902526855,-0.8091465163230896,-1.810009207952507,-1.6450472225698956,0.0,0.010654449462890625,87.28125,3.835601806640625,0.42724609375,153.80859375,5589.535626701192,1,1789167792.1993043,38.99021996333333,-76.93993058833334,-10.444000000000003,0,1,15.484225,7.884863999999999,70.86272399999999,1,1,1789167793.1033626,-0.016356597285305426,0.9955867364213513,0.07895783141740777,-0.04801221558092442,170.82323822530134,-5.33723639820618,-177.6888902900259,-0.01677854823112229,0.033403856553919475,-0.02318006686158709,0.801301384716034,0.5622152537727356,-8.802841451187133
2026-09-11T19:03:13.142,2.339290656000003,-56.06525421142578,-5045.87287902832,-20183.49151611328,-38.404699134826664,-0.6790317535400391,-1.2606852054595947,-0.8635693657398225,-1.9317496549298083,-1.6282644189524589,0.0,0.027002334594726562,221.203125,9.720840454101562,0.6103515625,219.7265625,1972.1841879937458,1,1789167792.1993043,38.99021996333333,-76.93993058833334,-10.444000000000003,0,1,15.484225,7.884863999999999,70.86272399999999,1,1,1789167793.1353626,-0.01655210492002394,0.9955583733897002,0.0774490473640256,-0.05090381182952382,170.98682420941006,-5.669586387592264,-177.64775707445781,-0.02340748326312195,0.07735700670566827,-0.005625894310878522,0.4277660800552368,0.06080123100280761,-10.156747572517396
2026-09-11T19:03:13.176,2.372701888000023,-56.10230255126953,-5049.207229614258,-20196.82891845703,-38.43007724761963,-0.7044098663330078,-1.1048283576965332,-0.7568074250221253,-1.692929995128231,3.195390721229099,0.0,0.03519248962402344,288.296875,12.669296264648438,-0.0762939527630806,-27.465822994709015,-7398.48160925523,1,1789167793.14814,38.990221231666666,-76.93992782666666,-10.329,0,1,15.531481,8.673024999999999,105.08300099999998,1,1,1789167793.1633625,-0.016647790680021486,0.9956219553705548,0.0754128481387415,-0.05265619987418819,171.21538561321927,-5.873958433822162,-177.63251715611875,-0.017789093868027003,0.07946518990915223,0.00531225864429514,0.595459797821045,0.053544309883117674,-9.692500753860473
2026-09-11T19:03:13.209,2.4061148480000156,-56.14179611206055,-5052.761650085449,-20211.046600341797,-38.45713033676148,-0.7314629554748536,-1.1330384016036987,-0.7761313050985337,-1.736156283774456,-0.5783348759407329,0.0,0.04891777038574219,400.734375,17.610397338867188,0.6561279892921448,236.20607614517212,7891.30622189532,1,1789167793.14814,38.990221231666666,-76.93992782666666,-10.329,0,1,15.531481,8.673024999999999,105.08300099999998,1,1,1789167793.2033627,-0.016530376082766914,0.9954736752538074,0.07474136927704284,-0.05632615965812269,171.28134375458498,-6.296374290060505,-177.61685571364615,-0.010484716415505536,0.024128827842971205,0.020343557761245905,0.5973230613517762,0.446889047870636,-9.855487279548646
2026-09-11T19:03:13.242,2.439536896000021,-56.18111801147461,-5056.300621032715,-20225.20248413086,-38.48406583786011,-0.7583984565734864,-1.2122176885604858,-0.8303691166639329,-1.8574828128667054,-1.6228153213528425,0.0,0.07388496398925781,605.265625,26.598587036132812,0.10681164264678955,38.45219135284424,-5916.869151534185,1,1789167793.14814,38.990221231666666,-76.93992782666666,-10.329,0,1,15.531481,8.673024999999999,105.08300099999998,1,1,1789167793.2353625,-0.01603921783104404,0.9957691644247918,0.07273213623370114,-0.05381961567126693,171.52443037234565,-6.018564491135646,-177.70801680911254,-0.012763767352759732,-0.04594596709167592,0.04974869046592117,-0.2992008964347839,-0.6997044890403747,-10.331992410907745
2026-09-11T19:03:13.275,2.472945887999998,-56.21563720703125,-5059.4073486328125,-20237.62939453125,-38.50771148681641,-0.7820441055297852,-1.0572296380996704,-0.7242023020982743,-1.619994412352974,3.177791612681157,0.0,0.09366226196289062,767.28125,33.718414306640625,0.8239747285842896,296.63090229034424,7727.821029071402,1,1789167793.14814,38.990221231666666,-76.93992782666666,-10.329,0,1,15.531481,8.673024999999999,105.08300099999998,1,1,1789167793.2623627,-0.015013445180992372,0.9959638786348315,0.07039614011311256,-0.0536183958696564,171.80064912382298,-6.009317601931623,-177.84163252930824,9.16297857297023e-05,-0.10521019263947018,0.06598391770089762,1.1540465910339357,-0.30655588405609135,-9.970127019939422
2026-09-11T19:03:13.309,2.506360319999999,-56.24868392944336,-5062.381553649902,-20249.52621459961,-38.530348491668704,-0.8046811103820801,-1.058078408241272,-0.7247837096452714,-1.6212949839953261,-0.01739989316583565,0.0,0.11391067504882812,933.15625,41.007843017578125,0.33569347858428955,120.84965229034424,-5260.638576768153,1,1789167793.14814,38.990221231666666,-76.93992782666666,-10.329,0,1,15.531481,8.673024999999999,105.08300099999998,1,1,1789167793.3033626,-0.01345573841396219,0.9963602166259732,0.06663038201245518,-0.051435921510681666,172.25031744621361,-5.779728047474654,-178.06074380244698,-0.004649906193163292,-0.14295066878581997,0.07626896844997501,-0.12572125507354737,-0.775215695285797,-10.099869001579284
2026-09-11T19:03:13.342,2.5397829440000237,-56.27675247192383,-5064.9077224731445,-20259.630889892578,-38.54957544326783,-0.8239080619812013,-0.8776642680168152,-0.6012000235915185,-1.344846151555829,3.6976057311855923,0.0,0.13915443420410156,1139.953125,50.09559631347656,0.7019044160842896,252.68558979034424,3944.511882128168,1,1789167793.14814,38.990221231666666,-76.93992782666666,-10.329,0,1,15.531481,8.673024999999999,105.08300099999998,1,1,1789167793.3353627,-0.011978607421872546,0.9966489665312694,0.06397501621403258,-0.049543392867258805,172.56965317190446,-5.579227745075276,-178.2602422334611,-0.002460565179461606,-0.16379181991680944,0.08394649729657286,0.6379225930213928,-0.6492983072090149,-9.699855741481782
2026-09-11T19:03:13.376,2.573191776000016,-56.30363464355469,-5067.327117919922,-20269.308471679688,-38.56798973083497,-0.84232234954834,-0.8521714210510254,-0.5837374234199524,-1.3057834274784175,0.5226941238643186,0.0,0.14310073852539062,1172.28125,51.516265869140625,0.2441406399011612,87.89063036441803,-4932.676467886249,1,1789167793.14814,38.990221231666666,-76.93992782666666,-10.329,0,1,15.531481,8.673024999999999,105.08300099999998,1,1,1789167793.3633626,-0.010816340095176794,0.9968114235927173,0.06186584657396931,-0.04922001228861407,172.81989427303577,-5.554228441342127,-178.40787633531448,0.0008084365095237735,-0.14933508318961522,0.07487898823368673,0.5646669163131713,-0.674991730632782,-9.913934914512634
2026-09-11T19:03:13.409,2.6066055680000204,-56.32605743408203,-5069.345169067383,-20277.38067626953,-38.583349342346196,-0.8576819610595704,-0.6455206871032715,-0.442181670665741,-0.9891322267934424,4.23644681675734,0.0,0.14949989318847656,1224.703125,53.81996154785156,0.1678467094898224,60.42481541633606,-821.9903609886057,1,1789167793.14814,38.990221231666666,-76.93992782666666,-10.329,0,1,15.531481,8.673024999999999,105.08300099999998,1,1,1789167793.4033625,-0.009531859039402839,0.9968898574105117,0.05998394002904493,-0.050216359823214804,173.04169983409452,-5.68025558313395,-178.5587284164024,0.0013849187614575005,-0.09510683066552542,0.06940214504092851,0.7601134540367126,-0.40275912214279175,-9.879415505943298
2026-09-11T19:03:13.442,2.640029728000002,-56.34629440307617,-5071.1664962768555,-20284.665985107422,-38.59721166610718,-0.8715442848205567,-0.5934237241744995,-0.4064952510595322,-0.9093039796428324,1.0676833645551198,0.0,0.15264892578125,1250.5,54.95361328125,0.09155276417732239,32.95899510383606,-821.7355443641754,1,1789167793.14814,38.990221231666666,-76.93992782666666,-10.329,0,1,15.531481,8.673024999999999,105.08300099999998,1,1,1789167793.4353626,-0.009127692182568892,0.9967996066131313,0.061455237048815725,-0.05030390969498305,172.87428450169884,-5.6910288048189415,-178.59607865065874,-0.0018332938462948436,-0.018447955660654866,0.057104555131376473,-0.015298374252319336,0.08669078742980958,-9.55138305803299
2026-09-11T19:03:13.476,2.6734464960000253,-56.369720458984375,-5073.274841308594,-20293.099365234375,-38.6132585144043,-0.8875911331176759,-0.7247270941734314,-0.49643805950880054,-1.1105003120722978,-2.6915472031647454,0.0,0.159423828125,1306.0,57.392578125,0.3204346001148224,115.35645604133606,2465.751952356438,1,1789167793.14814,38.990221231666666,-76.93992782666666,-10.329,0,1,15.531481,8.673024999999999,105.08300099999998,1,1,1789167793.4633627,-0.008651122005021342,0.9966609621235875,0.06388697999530074,-0.05010527371464431,172.59718779324857,-5.668377827230934,-178.63836282415673,-0.005050110190645592,0.050648233162399046,0.07151469156754245,0.2930227068328857,0.29802409841537475,-9.946787192554472
2026-09-11T19:03:13.509,2.706860320000004,-56.38922119140625,-5075.0299072265625,-20300.11962890625,-38.62661651611329,-0.9009491348266603,-0.5700863003730774,-0.390509115755558,-0.8735440134116803,3.170213135536646,0.0,0.16936683654785156,1387.453125,60.97206115722656,0.07629397511482239,27.46583104133606,-2630.3671498376148,1,1789167793.14814,38.990221231666666,-76.93992782666666,-10.329,0,1,15.531481,8.673024999999999,105.08300099999998,1,1,1789167793.5033627,-0.007553981691823095,0.9964679366258133,0.06650684790042241,-0.05070924787101157,172.3002223965876,-5.742366200975026,-178.74457360207793,-0.007250621311560044,0.09137217513210794,0.09358961594676674,1.3459627346992493,0.492784170627594,-9.808905691280364
2026-09-11T19:03:13.543,2.7402870399999983,-56.41038131713867,-5076.9343185424805,-20307.737274169922,-38.64111120223999,-0.9154438209533692,-0.6481852531433105,-0.44400689840316776,-0.9932151449605567,-1.600449659662059,0.0,0.169708251953125,1390.25,61.094970703125,0.0,0.0,-821.6729323529436,1,1789167793.14814,38.990221231666666,-76.93992782666666,-10.329,0,1,15.531481,8.673024999999999,105.08300099999998,1,1,1789167793.5353627,-0.0066731387394616485,0.9961270814002016,0.06827492752662989,-0.054998556269356486,172.0927670238704,-6.238069669059586,-178.80079476941395,-0.013917604521253183,0.09451708391127651,0.05663645782599159,1.2353437208747864,0.3480380142402649,-9.841856035823822
2026-09-11T19:03:13.576,2.7736974400000065,-56.43199920654297,-5078.879928588867,-20315.51971435547,-38.65591945648194,-0.9302520751953126,-0.6481852531433105,-0.44400689840316776,-0.9932151449605567,0.0,0.0,0.169708251953125,1390.25,61.094970703125,0.0,0.0,0.0,1,1789167793.14814,38.990221231666666,-76.93992782666666,-10.329,0,1,15.531481,8.673024999999999,105.08300099999998,1,1,1789167793.563383,-0.0064157392814244985,0.9961080109729662,0.06806975815894487,-0.05562532506994022,172.11675508559182,-6.312100579933566,-178.826586984557,-0.014775608381533595,0.0913535001091116,0.05810532692447002,0.48827311155319214,0.0001961330032348633,-9.3646644389534
2026-09-11T19:03:13.610,2.807109023999999,-56.450801849365234,-5080.572166442871,-20322.288665771484,-38.66879926681519,-0.9431318855285645,-0.5448598861694336,-0.37322902202606206,-0.8348895446180692,2.1183633908862776,0.0,0.16768646240234375,1373.6875,60.36712646484375,-0.1220703199505806,-43.945315182209015,-1315.2718285436258,1,1789167793.14814,38.990221231666666,-76.93992782666666,-10.329,0,1,15.531481,8.673024999999999,105.08300099999998,1,1,1789167793.603383,-0.006020505185532382,0.9959686146301736,0.0679403754789292,-0.05826128705020214,172.1287916703401,-6.617165591949294,-178.8515682168142,-0.012982282575109421,0.11262854009214689,0.05134444500101958,0.7967903256416321,0.00598205659866333,-9.498132947654724
2026-09-11T19:03:13.643,2.840531776000006,-56.46903991699219,-5082.213592529297,-20328.854370117188,-38.68129234313965,-0.9556249618530274,-0.5448598861694336,-0.37322902202606206,-0.8348895446180692,0.0,0.0,0.15721511840820312,1287.90625,56.597442626953125,-0.4577637016773224,-164.79493260383606,-3615.788951837412,1,1789167793.14814,38.990221231666666,-76.93992782666666,-10.329,0,1,15.531481,8.673024999999999,105.08300099999998,1,1,1789167793.6353831,-0.005899917558853928,0.9957324215301494,0.0687152891177087,-0.06132164974927822,172.0336670904629,-6.967659349165885,-178.83526457537678,-0.018156311142646615,0.15661572416430958,0.03797033600883743,0.623408750782013,0.09620323808670043,-9.787527193927765
2026-09-11T19:03:13.676,2.873946432000025,-56.48722457885742,-5083.850212097168,-20335.400848388672,-38.69374883651734,-0.968081455230713,-0.5448598861694336,-0.37322902202606206,-0.8348895446180692,0.0,0.0,0.1377239227294922,1128.234375,49.58061218261719,-0.6256104111671448,-225.21974802017212,-1808.3327093447035,1,1789167793.14814,38.990221231666666,-76.93992782666666,-10.329,0,1,15.531481,8.673024999999999,105.08300099999998,1,1,1789167793.6633832,-0.00562846864257616,0.9955139979918755,0.06792047645688977,-0.06562780676543244,172.11806219168596,-7.463942256398671,-178.83719791932552,-0.019752065677745026,0.17081327949758263,0.027552465703683283,0.9749771590805053,-0.025889556427001952,-9.77203268667221
2026-09-11T19:03:13.710,2.9073595520000026,-56.50410842895508,-5085.369758605957,-20341.479034423828,-38.70531427383423,-0.9796468925476075,-0.5185992121696472,-0.3552404603362084,-0.794650278132176,0.5383682125424337,0.0,0.1275157928466797,1044.609375,45.90568542480469,-0.6256104111671448,-225.21974802017212,0.0,1,1789167793.14814,38.990221231666666,-76.93992782666666,-10.329,0,1,15.531481,8.673024999999999,105.08300099999998,1,1,1789167793.7033832,-0.005663738493341888,0.9953477280775551,0.06578982113767046,-0.07016068494393161,172.353983472063,-7.985548448289197,-178.81347475685294,-0.012632518593009758,0.15883944816427553,0.001350884841043611,0.9504605336761475,-0.06903881713867188,-9.635524116420747
2026-09-11T19:03:13.743,2.9407827520000183,-56.51736068725586,-5086.562461853027,-20346.24984741211,-38.714392070770266,-0.9887246894836427,-0.41550546884536743,-0.2846212461590767,-0.6366795950229875,2.1128801005618443,0.0,0.10013389587402344,820.296875,36.04820251464844,-0.8850098252296448,-318.6035370826721,-2793.98109883124,1,1789167793.14814,38.990221231666666,-76.93992782666666,-10.329,0,1,15.531481,8.673024999999999,105.08300099999998,1,1,1789167793.735383,-0.006118578563250673,0.9952304724450186,0.06587885612892165,-0.07168574494538955,172.3364575237873,-8.156735529876114,-178.74827800068218,-0.012397597275691322,0.1312417784329656,-0.01095438451721721,1.081477379837036,0.07639380475997924,-9.612282355537415
2026-09-11T19:03:13.777,2.974194176000026,-56.53135681152344,-5087.822113037109,-20351.288452148438,-38.72397941589356,-0.9983120346069336,-0.41550546884536743,-0.2846212461590767,-0.6366795950229875,0.0,0.0,0.07305908203125,598.5,26.30126953125,-1.2817384004592896,-461.42582416534424,-4274.654294370677,1,1789167793.14814,38.990221231666666,-76.93992782666666,-10.329,0,1,15.531481,8.673024999999999,105.08300099999998,1,1,1789167793.7753832,-0.0069720856956755955,0.9950135948894178,0.06727139338321732,-0.07330685942372861,172.1642446047956,-8.334071089174788,-178.6252908693233,-0.01785471824790199,0.07955908862290952,-0.02537115320454077,0.9003485513496399,0.4072701812171936,-9.499211679172516
2026-09-11T19:03:13.810,3.007607744000012,-56.545066833496094,-5089.056015014648,-20356.224060058594,-38.733370780944824,-1.0077033996582032,-0.41550546884536743,-0.2846212461590767,-0.6366795950229875,0.0,0.0,0.04718589782714844,386.546875,16.986923217773438,-0.6103516817092896,-219.72660541534424,7233.565082008026,1,1789167793.14814,38.990221231666666,-76.93992782666666,-10.329,0,1,15.531481,8.673024999999999,105.08300099999998,1,1,1789167793.803383,-0.007651462278724351,0.994808494282652,0.06860012247907643,-0.0747765874049892,172.00081017209715,-8.495224976376148,-178.52357989297207,-0.013357702897213402,0.07041600680341202,-0.040322690774675395,1.220241479625702,0.4058972501945496,-9.714663783226012
2026-09-11T19:03:13.843,3.04102982400002,-56.55997848510742,-5090.398063659668,-20361.592254638672,-38.74358526229859,-1.017917881011963,-0.4418085217475891,-0.30263883739709857,-0.6769837987587201,-0.5390924573819894,0.0,0.00981903076171875,80.4375,3.53485107421875,-0.9307862520217896,-335.08305072784424,-3451.5040749250666,1,1789167793.14814,38.990221231666666,-76.93992782666666,-10.329,0,1,15.531481,8.673024999999999,105.08300099999998,1,1,1789167793.8353832,-0.008641003955701845,0.994690534296739,0.06920250403373511,-0.07567752286225017,171.92006414766698,-8.589577138206481,-178.396757231509,-0.009917658941532577,0.05975448853467946,-0.054526529293255646,1.2537802231788635,0.32881697992324826,-9.71436958372116
2026-09-11T19:03:13.877,3.074441888000024,-56.5746955871582,-5091.722602844238,-20366.890411376953,-38.753666477203375,-1.0279990959167482,-0.4418085217475891,-0.30263883739709857,-0.6769837987587201,0.0,0.0,-0.018465042114257812,-151.265625,-6.6474151611328125,-0.15258800983428955,-54.93168354034424,8384.736937756035,1,1789167793.14814,38.990221231666666,-76.93992782666666,-10.329,0,1,15.531481,8.673024999999999,105.08300099999998,1,1,1789167793.8753831,-0.010105825294691829,0.9946052393095667,0.0692400573689148,-0.07657744242675003,171.90037142319974,-8.680778599822512,-178.21994028143857,-0.019246443793442272,0.017429905107966572,-0.07333786250417573,1.5217959720993044,0.06089929750442505,-9.614832084579467
2026-09-11T19:03:13.910,3.1078575360000116,-56.58944320678711,-5093.04988861084,-20372.19955444336,-38.76376859664917,-1.0381012153625488,-0.4418085217475891,-0.30263883739709857,-0.6769837987587201,0.0,0.0,-0.05286216735839844,-433.046875,-19.030380249023438,-0.9613038301467896,-346.06937885284424,-8712.61557796538,1,1789167793.14814,38.990221231666666,-76.93992782666666,-10.329,0,1,15.531481,8.673024999999999,105.08300099999998,1,1,1789167793.9033833,-0.011340547129513642,0.9945313461927229,0.07021526465494483,-0.0764762057134761,171.7769730109225,-8.657260061830613,-178.06989062188228,-0.0010555751316061704,-0.005238256684010581,-0.0790698728335755,1.5971110453414918,0.4942551681518555,-9.401733576564789
2026-09-11T19:03:13.944,3.1412748160000206,-56.600826263427734,-5094.074363708496,-20376.297454833984,-38.771565990448,-1.0458986091613771,-0.36366307735443115,-0.24910920798778535,-0.5572414280328049,1.6018547712231164,0.0,-0.08437728881835938,-691.21875,-30.375823974609375,-0.5035401582717896,-181.27445697784424,4931.428347099336,1,1789167793.14814,38.990221231666666,-76.93992782666666,-10.329,0,1,15.531481,8.673024999999999,105.08300099999998,1,1,1789167793.935383,-0.012853514648154608,0.9945862266891558,0.07045443551467685,-0.07529407252715946,171.74014199260347,-8.50882371901494,-177.90364730658533,-0.005531471998345629,0.0339490974122425,-0.08264011835145511,0.3362700340461731,0.5410328894233704,-9.648174695129395
2026-09-11T19:03:13.977,3.1746862399999998,-56.61681365966797,-5095.513229370117,-20382.05291748047,-38.78251735687256,-1.0568499755859375,-0.5212273001670837,-0.35704070061445237,-0.7986773009449981,-3.2303769102069455,0.0,-0.11235809326171875,-920.4375,-40.44891357421875,-1.3427735567092896,-483.39848041534424,-9042.53657185303,1,1789167793.14814,38.990221231666666,-76.93992782666666,-10.329,0,1,15.531481,8.673024999999999,105.08300099999998,1,1,1789167793.975383,-0.015316276293485804,0.9943457645694668,0.07336138050697673,-0.0752331045044329,171.38271259003554,-8.474440053407985,-177.59540138978872,-0.015976743972756093,0.08443257149325328,-0.10274316974177619,1.3057554690361022,1.0565684884262085,-9.436939450645447
2026-09-11T19:03:14.011,3.2080994560000136,-56.634212493896484,-5097.079124450684,-20388.316497802734,-38.794435558319094,-1.0687681770324708,-0.5212273001670837,-0.35704070061445237,-0.7986773009449981,0.0,0.0,-0.1483745574951172,-1215.484375,-53.41484069824219,-1.0375977754592896,-373.53519916534424,3288.0187662856115,1,1789167793.14814,38.990221231666666,-76.93992782666666,-10.329,0,1,15.531481,8.673024999999999,105.08300099999998,1,1,1789167794.0033832,-0.016905143113506382,0.9942714912075539,0.07223966854637025,-0.07694054975453096,171.49247035451577,-8.6592153785968,-177.40655499687597,-0.0008480554835440448,0.1478679594203888,-0.10762171406695074,1.449717093410492,-0.30331968950271604,-9.645428833084106
2026-09-11T19:03:14.045,3.241521184000021,-56.65034484863281,-5098.531036376953,-20394.124145507812,-38.80548622131348,-1.0798188400268556,-0.4954538643360138,-0.3393858970701695,-0.7591846301677011,0.5282432896431601,0.0,-0.168182373046875,-1377.75,-60.545654296875,-0.8544923067092896,-307.61723041534424,1972.3088150913425,1,1789167793.14814,38.990221231666666,-76.93992782666666,-10.329,0,1,15.531481,8.673024999999999,105.08300099999998,1,1,1789167794.0353832,-0.01855601007448896,0.9943420593059877,0.06972902527228476,-0.07795772328525158,171.76483729069884,-8.768673628364066,-177.22930730197643,0.019988557791390256,0.12589304240730378,-0.10111512661551589,0.333524172000885,-0.3626499229812622,-9.81067088830948
2026-09-11T19:03:14.078,3.274936064000002,-56.65990447998047,-5099.391403198242,-20397.56561279297,-38.81203456878662,-1.0863671875,-0.3132231831550598,-0.214557880461216,-0.47995230954996365,3.7357014781745344,0.0,-0.1858367919921875,-1522.375,-66.9012451171875,-0.07629406452178955,-27.46586322784424,8384.030323845538,1,1789167793.14814,38.990221231666666,-76.93992782666666,-10.329,0,1,15.531481,8.673024999999999,105.08300099999998,1,1,1789167794.0753832,-0.02025579026738528,0.9945269854485707,0.06697345082339624,-0.07759081814253839,172.0706454538246,-8.72076886506564,-177.06082939978094,0.016972454311018858,0.0018814649336498874,-0.0787918418837328,1.4167667488670348,-0.0009806650161743164,-9.576880348453523
2026-09-11T19:03:14.111,3.308349248000013,-56.67035675048828,-5100.332107543945,-20401.32843017578,-38.819194374084475,-1.0935269927978517,-0.3132231831550598,-0.214557880461216,-0.47995230954996365,0.0,0.0,-0.18909645080566406,-1549.078125,-68.07472229003906,-0.2288818508386612,-82.39746630191803,-1644.0098337846364,1,1789167793.14814,38.990221231666666,-76.93992782666666,-10.329,0,1,15.531481,8.673024999999999,105.08300099999998,1,1,1789167794.103383,-0.021423550417496398,0.9944681221785499,0.06748546079120239,-0.07758800190736266,172.00114370387158,-8.709576287645788,-176.92165257453905,0.010516306874966633,-0.05495273869659266,-0.07659935927737753,1.419316477909088,0.6252720143127442,-9.263165609779358
2026-09-11T19:03:14.144,3.3417705600000147,-56.684932708740234,-5101.643943786621,-20406.575775146484,-38.82917890548706,-1.1035115242004396,-0.41843539476394653,-0.2866282454133034,-0.6411691244928934,-2.156419381503757,0.0,-0.1933746337890625,-1584.125,-69.6148681640625,-0.2136230617761612,-76.90430223941803,164.36111372586893,1,1789167793.14814,38.990221231666666,-76.93992782666666,-10.329,0,1,15.531481,8.673024999999999,105.08300099999998,1,1,1789167794.1353831,-0.023001429433871918,0.9944508495100727,0.06910022307096109,-0.07591838594330581,171.80796806741512,-8.500346888977937,-176.7401633905166,0.006530847528037582,-0.09574108331570015,-0.08992931143948422,1.1703256303024292,0.4637564861488342,-9.725647231407166
2026-09-11T19:03:14.179,3.375184512000004,-56.697975158691406,-5102.817764282227,-20411.271057128906,-38.83811298370362,-1.1124456024169922,-0.34094128012657166,-0.2335447768867016,-0.5224247872376104,1.5886617819591824,0.0,-0.2064208984375,-1691.0,-74.3115234375,-0.6713867783546448,-241.69924020767212,-4931.919994626983,1,1789167794.1555948,38.990221696666666,-76.93992525666667,-10.224000000000004,0,1,15.531481,8.667136,105.04200100000001,1,1,1789167794.175383,-0.024899124449032053,0.99460834349664,0.06973648457427717,-0.07260233720592536,171.7338400240763,-8.102765994451335,-176.54541397041802,0.012091815590741916,-0.12681824144378598,-0.09340757810578373,1.1258034385681153,0.48837117805480956,-9.76065697248459
2026-09-11T19:03:14.211,3.4086340480000104,-56.708683013916016,-5103.781471252441,-20415.125885009766,-38.845447864532474,-1.1197804832458498,-0.34094128012657166,-0.2335447768867016,-0.5224247872376104,0.0,0.0,-0.22234153747558594,-1821.421875,-80.04295349121094,0.0,0.0,7225.78753282638,1,1789167794.1555948,38.990221696666666,-76.93992525666667,-10.224000000000004,0,1,15.531481,8.667136,105.04200100000001,1,1,1789167794.2033832,-0.026107836570158634,0.994672544553334,0.06861489693984633,-0.07236646944100736,171.85490947200358,-8.069784154817752,-176.41741942963606,0.01232726050683595,-0.14430277535733996,-0.10526848663648679,1.2897706292724609,0.28066632762908933,-9.647292096614837
2026-09-11T19:03:14.244,3.4420581760000175,-56.72427749633789,-5105.18497467041,-20420.73989868164,-38.856130084991456,-1.130462703704834,-0.4711836874485016,-0.3227608259022236,-0.7219954051141357,-2.6692109668651005,0.0,-0.22846221923828125,-1871.5625,-82.24639892578125,-0.4577637016773224,-164.79493260383606,-4930.4183075112915,1,1789167794.1555948,38.990221696666666,-76.93992525666667,-10.224000000000004,0,1,15.531481,8.667136,105.04200100000001,1,1,1789167794.235383,-0.028021999636863686,0.9946675713933368,0.07033621357139118,-0.0700286156886763,171.65210324919406,-7.779926879424724,-176.20391933513272,0.01634972083390728,-0.20291320056733717,-0.11297114822431335,1.288888030757904,0.8468042414665222,-9.731040888996125
2026-09-11T19:03:14.278,3.4754726080000182,-56.739463806152344,-5106.551742553711,-20426.206970214844,-38.86653270721436,-1.1408653259277344,-0.41866227984428406,-0.2867836616933346,-0.6415167808100712,1.0766953695004677,0.0,-0.2434234619140625,-1994.125,-87.6324462890625,-0.6408692002296448,-230.71291208267212,-1972.739787371955,1,1789167794.1555948,38.990221696666666,-76.93992525666667,-10.224000000000004,0,1,15.531481,8.667136,105.04200100000001,1,1,1789167794.2753832,-0.03063114715773702,0.9946975515447765,0.07326078204510846,-0.06535573110880841,171.3184520277744,-7.211377946403164,-175.92422571016652,0.024331809634978146,-0.22677115331039882,-0.1329021101503878,0.782472616405487,1.1930770586776733,-9.881769101982117
2026-09-11T19:03:14.311,3.5088846080000167,-56.75429153442383,-5107.8862380981445,-20431.544952392578,-38.87668970108032,-1.1510223197937013,-0.4449229836463928,-0.3047722437977791,-0.6817560929621036,-0.5383868701198784,0.0,-0.25821495056152344,-2115.296875,-92.95738220214844,-0.0152588477358222,-5.493185184895992,6740.68379318169,1,1789167794.1555948,38.990221696666666,-76.93992525666667,-10.224000000000004,0,1,15.531481,8.667136,105.04200100000001,1,1,1789167794.303383,-0.03256878800546325,0.9946191659124097,0.07566566660594753,-0.06282273270588873,171.04055677240382,-6.894452068161167,-175.70824288895585,0.010413681514949365,-0.18659681552214297,-0.1443619420189826,0.6357651299858094,1.1758173543930055,-9.651508956184388
2026-09-11T19:03:14.345,3.5423099520000108,-56.77509307861328,-5109.758377075195,-20439.03350830078,-38.8909387588501,-1.1652713775634767,-0.5737902522087097,-0.3930463227629662,-0.8792195838470065,-2.640932550019611,0.0,-0.26233482360839844,-2149.046875,-94.44053649902344,-0.3051758110523224,-109.86329197883606,-3122.4841483743157,1,1789167794.1555948,38.990221696666666,-76.93992525666667,-10.224000000000004,0,1,15.531481,8.667136,105.04200100000001,1,1,1789167794.3353832,-0.035090127860236936,0.9944132168452002,0.07797392308958255,-0.061895915926278355,170.76205214576734,-6.755227628567129,-175.41166056348777,0.010856820612030726,-0.1265665649656484,-0.1651673139003062,1.1122702613449098,1.0403875156593323,-9.549421728000642
2026-09-11T19:03:14.379,3.5757226880000132,-56.800689697265625,-5112.062072753906,-20448.248291015625,-38.90847244262696,-1.182805061340332,-0.7039551734924316,-0.4822092938423157,-1.0786714697618003,-2.668532474543325,0.0,-0.2715930938720703,-2224.890625,-97.77351379394531,-0.3204346001148224,-115.35645604133606,-164.40330006197607,1,1789167794.1555948,38.990221696666666,-76.93992525666667,-10.224000000000004,0,1,15.531481,8.667136,105.04200100000001,1,1,1789167794.3753831,-0.038819892337765644,0.9940711687595977,0.08051707586091444,-0.06190741389057824,170.44334323521377,-6.709154587762283,-174.96584425625375,0.004069584216875178,-0.08234323784569088,-0.19514683446181277,0.8486675049972535,1.1252150395584106,-9.769679090633392
2026-09-11T19:03:14.412,3.6091340800000182,-56.826629638671875,-5114.396667480469,-20457.586669921875,-38.92624130249024,-1.2005739212036133,-0.7819209098815918,-0.5356158232688905,-1.1981384736687766,-1.5984526902251421,0.0,-0.286895751953125,-2350.25,-103.282470703125,-0.5493164658546448,-197.75392770767212,-2466.1490208586274,1,1789167794.1555948,38.990221696666666,-76.93992525666667,-10.224000000000004,0,1,15.531481,8.667136,105.04200100000001,1,1,1789167794.4033833,-0.04168946511558595,0.9937864204961709,0.08205198948450446,-0.06259400895787634,170.2424887329694,-6.751808627929611,-174.61871124957887,-0.0017891370162193873,-0.04802168717107278,-0.21563316015587183,1.009202368144989,1.195038388710022,-9.448903563842775
2026-09-11T19:03:14.445,3.6425573760000134,-56.8563117980957,-5117.068061828613,-20468.272247314453,-38.94657358169556,-1.2209062004089357,-0.8861148357391357,-0.606988662481308,-1.3577949679699968,-2.1354219288375353,0.0,-0.2906818389892578,-2381.265625,-104.64546203613281,0.0,0.0,5916.649504217081,1,1789167794.1555948,38.990221696666666,-76.93992525666667,-10.224000000000004,0,1,15.531481,8.667136,105.04200100000001,1,1,1789167794.435383,-0.045367726340634566,0.9934613693414307,0.0831015533053875,-0.06379975604312751,170.0881380351786,-6.847373150116457,-174.1761948208944,-0.004039390020815677,-0.0059234729483435555,-0.24024526966872028,0.7902198700332641,1.265254003868103,-9.742220470180511
2026-09-11T19:03:14.479,3.675972160000015,-56.88956832885742,-5120.061149597168,-20480.244598388672,-38.96935430526734,-1.243686923980713,-0.9648968577384949,-0.660954347550869,-1.478512767427676,-1.6150242081337027,0.0,-0.2906818389892578,-2381.265625,-104.64546203613281,0.0,0.0,0.0,1,1789167794.1555948,38.990221696666666,-76.93992525666667,-10.224000000000004,0,1,15.531481,8.667136,105.04200100000001,1,1,1789167794.475383,-0.05045619784751129,0.993019275393471,0.08403908364396699,-0.06560734117521476,169.9313806192903,-6.997043287511853,-173.5653579228446,-0.010944087074630444,0.014137516007004467,-0.2587572789129233,1.2172014180755615,1.0588240179634094,-9.680536640663147
2026-09-11T19:03:14.512,3.7093843840000034,-56.923702239990234,-5123.133201599121,-20492.532806396484,-38.99273603439331,-1.2670686531066895,-1.0169627666473389,-0.6966194951534271,-1.5582934304613152,-1.0674281245860897,0.0,-0.2906818389892578,-2381.265625,-104.64546203613281,0.0,0.0,0.0,1,1789167794.1555948,38.990221696666666,-76.93992525666667,-10.224000000000004,0,1,15.531481,8.667136,105.04200100000001,1,1,1789167794.5033832,-0.05420588564715548,0.9928034933467559,0.08332491613071413,-0.06678251201845349,169.9781164693889,-7.098206873736182,-173.12647388812513,-0.014424448136032336,0.008846724912508857,-0.279483063780356,0.9871374052810669,1.0401913826560973,-9.5868831316185
2026-09-11T19:03:14.545,3.742807904000017,-56.962581634521484,-5126.632347106934,-20506.529388427734,-39.01936841964722,-1.2937010383605958,-1.1217032670974731,-0.7683667379617691,-1.7187874417541344,-2.146609417808555,0.0,-0.2906818389892578,-2381.265625,-104.64546203613281,0.0,0.0,0.0,1,1789167794.1555948,38.990221696666666,-76.93992525666667,-10.224000000000004,0,1,15.531481,8.667136,105.04200100000001,1,1,1789167794.5353832,-0.05886472683845546,0.9924727393923617,0.08340825108303637,-0.06764517091799442,169.92807582226874,-7.149131853472344,-172.5805905510517,-0.008451407836932143,0.027078957877617223,-0.29898851443479424,0.8534727635765076,1.2016088443183899,-9.4845017039299
2026-09-11T19:03:14.579,3.776218720000003,-57.00344467163086,-5130.310020446777,-20521.24008178711,-39.04735960006714,-1.3216922187805178,-1.2267462015151978,-0.8403211480379106,-1.87974487302682,-2.153626241160113,0.0,-0.2906818389892578,-2381.265625,-104.64546203613281,0.0,0.0,0.0,1,1789167794.1555948,38.990221696666666,-76.93992525666667,-10.224000000000004,0,1,15.531481,8.667136,105.04200100000001,1,1,1789167794.5753832,-0.06514658076761415,0.9918900445294369,0.08385656125353781,-0.06984368054743705,169.8107656364697,-7.3325776364512425,-171.82990084129978,-0.014695846834717455,0.051589314695074384,-0.328340763663134,1.3309585599517824,1.0935395595359803,-8.964258912849427
2026-09-11T19:03:14.612,3.809631232000015,-57.045467376708984,-5134.092063903809,-20536.368255615234,-39.07614515304566,-1.3504777717590333,-1.2525196075439453,-0.8579759311676026,-1.919237498137978,-0.5283883812652428,0.0,-0.2915782928466797,-2388.609375,-104.96818542480469,-0.0762939527630806,-27.465822994709015,-822.0220914458283,1,1789167794.1555948,38.990221696666666,-76.93992525666667,-10.224000000000004,0,1,15.531481,8.667136,105.04200100000001,1,1,1789167794.603383,-0.0698500735842091,0.9914274316161363,0.08359587016747862,-0.07214115018665954,169.78317376535034,-7.5485974955457324,-171.2640980744607,-0.025084395608438104,0.07074360510401136,-0.35320489871997046,1.0888323674583436,1.0764759882545472,-9.955122845191955
2026-09-11T19:03:14.646,3.843052448000009,-57.09364700317383,-5138.4282302856445,-20553.712921142578,-39.10914819717407,-1.3834808158874512,-1.3842520713806152,-0.9482126688957215,-2.1210913316386018,-2.6999836788744074,0.0,-0.29398345947265625,-2408.3125,-105.83404541015625,-0.0457763746380806,-16.479494869709015,328.723171682386,1,1789167794.1555948,38.990221696666666,-76.93992525666667,-10.224000000000004,0,1,15.531481,8.667136,105.04200100000001,1,1,1789167794.6353831,-0.07567865422806885,0.9910476237090662,0.08204222982050437,-0.07325586229730224,169.90649216729275,-7.630406623030745,-170.59163824471077,-0.016388990742077152,0.06283516919737465,-0.3712125078103472,1.232793991832733,1.0841251753807069,-9.898146207752228
2026-09-11T19:03:14.679,3.8764722240000253,-57.14314270019531,-5142.882843017578,-20571.531372070312,-39.14305274963379,-1.417385368347168,-1.4630342721939087,-1.0021784764528274,-2.2418094050931154,-1.6147866328331812,0.0,-0.2975788116455078,-2437.765625,-107.12837219238281,-0.1068115383386612,-38.45215380191803,-657.4747518414885,1,1789167794.1555948,38.990221696666666,-76.93992525666667,-10.224000000000004,0,1,15.531481,8.667136,105.04200100000001,1,1,1789167794.675383,-0.08332815723039438,0.9903686640382201,0.0808339218357753,-0.07544670028825486,169.96189091030215,-7.814633749281707,-169.69372269820357,-0.017729578140533997,0.07201211040436084,-0.40190063204816345,1.3875429313850403,1.2501517626190186,-9.877258042907716
2026-09-11T19:03:14.712,3.909886496000013,-57.194435119628906,-5147.499160766602,-20589.996643066406,-39.17818805694581,-1.4525206756591797,-1.5419434309005737,-1.0562312501668931,-2.362722016300313,-1.6176552855643824,0.0,-0.30156898498535156,-2470.453125,-108.56483459472656,-0.1068115383386612,-38.45215380191803,0.0,1,1789167794.1555948,38.990221696666666,-76.93992525666667,-10.224000000000004,0,1,15.531481,8.667136,105.04200100000001,1,1,1789167794.7033832,-0.0890003196827667,0.9899631707840273,0.07898428404013934,-0.07624530452602897,170.12087642692663,-7.868550293315466,-169.04442711573876,0.006561739855797882,0.051946234527107234,-0.4245939265813693,1.0409759146690367,0.6333134674453735,-10.338366733512878
2026-09-11T19:03:14.746,3.943308416000008,-57.2471809387207,-5152.246284484863,-20608.985137939453,-39.214318943023684,-1.4886515617370606,-1.594464898109436,-1.0922084552049638,-2.4432007319366558,-1.0764553633685932,0.0,-0.30379486083984375,-2488.6875,-109.36614990234375,-0.045776382088661194,-16.47949755191803,657.432494901648,1,1789167794.1555948,38.990221696666666,-76.93992525666667,-10.224000000000004,0,1,15.531481,8.667136,105.04200100000001,1,1,1789167794.735383,-0.09595489377620903,0.9895385763759666,0.07785897898574813,-0.0744583347619244,170.21950083672633,-7.609277500260351,-168.27077414001542,0.004090179102048712,0.0018764034788191035,-0.42792034960274533,0.28645225122451784,1.1328642266845703,-9.260321681232451
2026-09-11T19:03:14.780,3.9767226240000184,-57.29981994628906,-5156.983795166016,-20627.935180664062,-39.25037666320801,-1.5247092819213868,-1.6476006507873535,-1.1286064457893372,-2.524620718032695,-1.0892968220094243,0.0,-0.3038654327392578,-2489.265625,-109.39155578613281,0.0,0.0,493.18833329560886,1,1789167794.1555948,38.990221696666666,-76.93992525666667,-10.224000000000004,0,1,15.531481,8.667136,105.04200100000001,1,1,1789167794.7753832,-0.10456239834976087,0.9886856666352327,0.07684233524910804,-0.07525033524746094,170.2598911716756,-7.627274186921259,-167.2749684174214,-0.015816871813273414,-0.004774871767606086,-0.45088434470293554,1.924358961238861,0.9264342407798767,-8.958669122257232
2026-09-11T19:03:14.812,4.010136704000018,-57.35699462890625,-5162.1295166015625,-20648.51806640625,-39.28954132080079,-1.5638739395141603,-1.6734319925308228,-1.1463009148836136,-2.5642021181183168,-0.5295512877887526,0.0,-0.3039875030517578,-2490.265625,-109.43550109863281,0.0,0.0,0.0,1,1789167794.1555948,38.990221696666666,-76.93992525666667,-10.224000000000004,0,1,15.531481,8.667136,105.04200100000001,1,1,1789167794.803383,-0.11085373235792344,0.9879021471696342,0.07683097403054602,-0.07653625983455084,170.19404492935905,-7.711591619224707,-166.5325892640368,-0.004942423375797542,-0.0018051940453377349,-0.4674567695493973,1.509047326889038,1.3296836954307556,-9.990034519767761
2026-09-11T19:03:14.846,4.043562944000001,-57.41680145263672,-5167.512130737305,-20670.04852294922,-39.33050899505616,-1.6048416137695314,-1.7780193090438843,-1.2179432266950607,-2.7244614054560206,-2.1432955609570095,0.0,-0.3041095733642578,-2491.265625,-109.47944641113281,0.0,0.0,0.0,1,1789167794.1555948,38.990221696666666,-76.93992525666667,-10.224000000000004,0,1,15.531481,8.667136,105.04200100000001,1,1,1789167794.8353832,-0.11841489841035821,0.9870646869436766,0.07675014099141042,-0.07609619886068635,170.15204352760838,-7.58789789025528,-165.6635530230168,-0.011772594870552152,0.011109020688943906,-0.48963397022278843,1.8752276439285278,1.1302164311408998,-9.666905396938324
2026-09-11T19:03:14.880,4.076974560000025,-57.47958755493164,-5173.162879943848,-20692.65151977539,-39.373517475128175,-1.6478500938415528,-1.8566739559173584,-1.2718216598033907,-2.844984027835069,-1.6125659144499938,0.0,-0.3042316436767578,-2492.265625,-109.52339172363281,0.0,0.0,0.0,1,1789167794.1555948,38.990221696666666,-76.93992525666667,-10.224000000000004,0,1,15.531481,8.667136,105.04200100000001,1,1,1789167794.8753831,-0.12849648254197782,0.9855777616407143,0.0784650558892208,-0.07725519230394959,169.85940455661304,-7.591944652599442,-164.46914072553287,-0.012560261961977192,0.06936357326445944,-0.5234397761034422,1.699002140522003,1.418826145401001,-8.968573838920593
2026-09-11T19:03:14.913,4.1103871040000115,-57.54789352416992,-5179.310417175293,-20717.241668701172,-39.4203070640564,-1.6946396827697756,-2.0395984649658203,-1.397124948501587,-3.1252795018378343,-3.750187016536263,0.0,-0.30444908142089844,-2494.046875,-109.60166931152344,-0.0610351599752903,-21.972657591104507,-657.6170192581958,1,1789167794.1555948,38.990221696666666,-76.93992525666667,-10.224000000000004,0,1,15.531481,8.667136,105.04200100000001,1,1,1789167794.9033833,-0.13619062281753272,0.9843024672060694,0.07965515434474844,-0.07909376520896927,169.63160744193178,-7.701250059201905,-163.54507661533066,0.06735766635514236,0.1052060038492654,-0.5645726487168934,2.572382403926849,1.687136093826294,-7.165228940677643
2026-09-11T19:03:14.947,4.14380940800001,-57.62071228027344,-5185.864105224609,-20743.456420898438,-39.47018791198731,-1.7445205307006837,-2.1451973915100098,-1.4694602131843568,-3.287088880602083,-2.1642812142087307,0.0,-0.3058185577392578,-2505.265625,-110.09468078613281,0.0,0.0,657.4249815663694,1,1789167794.1555948,38.990221696666666,-76.93992525666667,-10.224000000000004,0,1,15.531481,8.667136,105.04200100000001,1,1,1789167794.935383,-0.14552366513058884,0.9831131230731804,0.07821126338136164,-0.07870481820415538,169.73231323332377,-7.584503701365928,-162.47765606640394,-0.09430223388035602,0.10848984083689273,-0.589333634814937,1.6932162169265748,0.0021574630355834963,-12.462192959041596
2026-09-11T19:03:14.980,4.177221952000025,-57.69280242919922,-5192.35221862793,-20769.40887451172,-39.519569664001466,-1.7939022827148439,-2.1991219520568848,-1.506398537158966,-3.3697175580685497,-1.1055226436691759,0.0,-0.305633544921875,-2503.75,-110.028076171875,0.0,0.0,0.0,1,1789167794.1555948,38.990221696666666,-76.93992525666667,-10.224000000000004,0,1,15.531481,8.667136,105.04200100000001,1,1,1789167794.975383,-0.15700957618321953,0.9812557809311655,0.0776496558477328,-0.08034685011039827,169.67577784320935,-7.66022125418121,-161.1254093772787,-0.037984473175778584,0.17544957212258036,-0.60403436857156,1.2382857159233092,2.07675430475235,-14.710759774627686
2026-09-11T19:03:15.013,4.210636928000014,-57.76968002319336,-5199.271202087402,-20797.08480834961,-39.57223081588745,-1.8465634346008302,-2.304164409637451,-1.5783526206016543,-3.5306742586830095,-2.153348350234102,0.0,-0.3053112030029297,-2501.109375,-109.91203308105469,0.015258789993822575,5.493164397776127,164.392289187278,1,1789167794.1555948,38.990221696666666,-76.93992525666667,-10.224000000000004,0,1,15.531481,8.667136,105.04200100000001,1,1,1789167795.0033832,-0.1657623433111257,0.9796440031268778,0.07825751389662407,-0.08183052117804256,169.50732995453845,-7.723074018868927,-160.08205219106065,0.03271672042740931,0.12451597762748026,-0.6255399665487837,2.300836260948181,1.2985966144180299,-10.040734901103974
2026-09-11T19:03:15.047,4.2440630400000146,-57.84894561767578,-5206.40510559082,-20825.62042236328,-39.62652774810791,-1.9008603668212891,-2.357295274734497,-1.6147472631931306,-3.6120867555322316,-1.0888087310745393,0.0,-0.30477142333984375,-2496.6875,-109.71771240234375,0.03051757998764515,10.986328795552254,164.33752144957805,1,1789167794.1555948,38.990221696666666,-76.93992525666667,-10.224000000000004,0,1,15.531481,8.667136,105.04200100000001,1,1,1789167795.0433831,-0.1786543964443769,0.9773898887944527,0.07725761055869965,-0.08260068718977531,169.50351934753948,-7.692781245850223,-158.57514993943533,0.044501183536875016,0.13987574770965636,-0.6484893008832572,1.3302720944404602,1.6442810326194766,-10.633154637374878
2026-09-11T19:03:15.080,4.277477632,-57.93342590332031,-5214.008331298828,-20856.033325195312,-39.684396743774414,-1.958729362487793,-2.5154733657836914,-1.7230992555618287,-3.854463259578174,-3.242654956515558,0.0,-0.3030529022216797,-2482.609375,-109.09904479980469,0.030517593026161194,10.98633348941803,0.00014047353252327738,1,1789167794.1555948,38.990221696666666,-76.93992525666667,-10.224000000000004,0,1,15.531481,8.667136,105.04200100000001,1,1,1789167795.0753832,-0.18902306374934938,0.9752775030875567,0.07552821963703342,-0.0860207032089967,169.53640488566364,-8.003579243834599,-157.3284213538431,0.05747735745960246,0.10189040186925176,-0.6887592827145222,2.338984130077362,0.9002504848480225,-8.080287467269898
2026-09-11T19:03:15.113,4.31089024000002,-58.01976776123047,-5221.779098510742,-20887.11639404297,-39.743540916442875,-2.0178735351562502,-2.59397554397583,-1.7768732476234437,-3.9747522539894455,-1.6093922408446002,0.0,-0.30010986328125,-2458.5,-108.03955078125,0.061035171151161194,21.97266161441803,328.8078597454385,1,1789167794.1555948,38.990221696666666,-76.93992525666667,-10.224000000000004,0,1,15.531481,8.667136,105.04200100000001,1,1,1789167795.103383,-0.19842215706574978,0.9735573414230868,0.07382159475235586,-0.0858202930244645,169.65883439339257,-7.920924509903072,-156.24258566469754,0.03499420056833671,0.08395208235017924,-0.6761529440602925,0.8065969758033753,1.0241084763908386,-8.976419159049987
2026-09-11T19:03:15.147,4.3443132160000175,-58.10700225830078,-5229.63020324707,-20918.52081298828,-39.80329654693604,-2.077629165649414,-2.5948081016540527,-1.7774435496330263,-3.9760279832521124,-0.017063172638567086,0.0,-0.2962379455566406,-2426.78125,-106.64566040039062,0.061035171151161194,21.97266161441803,0.0,1,1789167794.1555948,38.990221696666666,-76.93992525666667,-10.224000000000004,0,1,15.531481,8.667136,105.04200100000001,1,1,1789167795.1433833,-0.21199317276771093,0.9707399440697513,0.07181953009177436,-0.08697592071793504,169.74518077546722,-7.955937057030587,-154.64693009090237,0.07135761193486297,0.03797347760149103,-0.709927857613186,-0.32558078536987306,1.3222306413078309,-7.944955695037842
2026-09-11T19:03:15.181,4.377725760000004,-58.201908111572266,-5238.171730041504,-20952.686920166016,-39.86830705642701,-2.142639675140381,-2.751768112182617,-1.884961156845093,-4.216538020859634,-3.2178815001967465,0.0,-0.29474639892578125,-2414.5625,-106.10870361328125,0.030517585575580597,10.986330807209015,-328.8085698357305,1,1789167795.15372,38.990225335,-76.93992309166667,-10.203000000000003,0,1,16.224783999999996,8.779369,74.684164,1,1,1789167795.175383,-0.22311279220524055,0.9685511894526204,0.06906664233879238,-0.08578504695073981,169.99891248326844,-7.779155002302349,-153.3738907963253,0.06897471390711511,0.027159068490283763,-0.7178621243927522,1.7400920046997068,0.2867464507293701,-10.35209604373932
2026-09-11T19:03:15.214,4.411139936000012,-58.29121017456055,-5246.208915710449,-20984.835662841797,-39.92947896957398,-2.203811588287354,-2.725900173187256,-1.8672416186332703,-4.176900542755163,0.5303000203212698,0.0,-0.29386329650878906,-2407.328125,-105.79078674316406,0.015258789993822575,5.493164397776127,-164.39628526023148,1,1789167795.15372,38.990225335,-76.93992309166667,-10.203000000000003,0,1,16.224783999999996,8.779369,74.684164,1,1,1789167795.2033832,-0.2329747797349819,0.9664756027258099,0.06666555048665122,-0.08487264412949026,170.21700794691156,-7.642516947719621,-152.23912203675255,0.07001283574620133,0.02916916418980563,-0.7246217845857261,1.2365205188941957,0.9444784770774842,-8.841087386817932
2026-09-11T19:03:15.248,4.444562944000012,-58.38529586791992,-5254.676628112793,-21018.706512451172,-39.99392766952515,-2.2682602882385257,-2.8042750358581543,-1.920928399562836,-4.296994451420082,-1.6062821434134826,0.0,-0.2919025421142578,-2391.265625,-105.08491516113281,0.0915527418255806,32.958987057209015,821.7639375675909,1,1789167795.15372,38.990225335,-76.93992309166667,-10.203000000000003,0,1,16.224783999999996,8.779369,74.684164,1,1,1789167795.2433832,-0.24701571082551388,0.963304871964557,0.06274034135604524,-0.0842057707122339,170.56701265409046,-7.5410194487536595,-150.6125328835684,0.09296915139768275,0.001633104581091094,-0.7289200069346126,1.5873043951797485,0.39344280448913577,-9.234726324310301
2026-09-11T19:03:15.281,4.477980736000006,-58.47922897338867,-5263.1306076049805,-21052.522430419922,-40.05827184677124,-2.332604465484619,-2.804328203201294,-1.9209648191928865,-4.297075919812286,-0.0010898275400911743,0.0,-0.2901268005371094,-2376.71875,-104.44564819335938,0.0457763746380806,16.479494869709015,-493.1352791801059,1,1789167795.15372,38.990225335,-76.93992309166667,-10.203000000000003,0,1,16.224783999999996,8.779369,74.684164,1,1,1789167795.2753832,-0.2582634505278758,0.9606909162690755,0.059874410281529296,-0.08238937135916619,170.85740092118093,-7.317912343854543,-149.31985991026818,0.09285361060120073,-0.016505927801960772,-0.7227982645832426,0.4495368434143066,0.17612743690490723,-9.309943331050873
2026-09-11T19:03:15.314,4.51139417600001,-58.5718879699707,-5271.469917297363,-21085.879669189453,-40.121743259429934,-2.3960758781433107,-2.7775380611419678,-1.9026135718822481,-4.256025348698653,0.5492175397276149,0.0,-0.28796958923339844,-2359.046875,-103.66905212402344,0.0762939527630806,27.465822994709015,328.7996723773044,1,1789167795.15372,38.990225335,-76.93992309166667,-10.203000000000003,0,1,16.224783999999996,8.779369,74.684164,1,1,1789167795.303383,-0.2681225484760249,0.9582616694520256,0.0579330573699541,-0.08055204976602309,171.05931764784052,-7.083376725246119,-148.18217012705173,0.10413681514949366,-0.003754377753965002,-0.71999997819352,2.3901748439216615,0.7027445505905151,-10.12291462945938
2026-09-11T19:03:15.348,4.544820512000001,-58.66498565673828,-5279.848709106445,-21119.39483642578,-40.18551517486573,-2.459847793579102,-2.777812957763672,-1.9028018760681153,-4.256446573165966,-0.005633407917256914,0.0,-0.28665924072265625,-2348.3125,-103.19732666015625,0.030517585575580597,10.986330807209015,-493.0092304314923,1,1789167795.15372,38.990225335,-76.93992309166667,-10.203000000000003,0,1,16.224783999999996,8.779369,74.684164,1,1,1789167795.343383,-0.282003763973993,0.954560917488513,0.05547978949428637,-0.07879926944876102,171.28962511947853,-6.842840718580401,-146.56103534112788,0.08309582381915083,-0.03344836244984533,-0.7103586048725781,-0.356471733379364,0.3136166721725464,-10.109773718242645
2026-09-11T19:03:15.381,4.57823619200002,-58.758705139160156,-5288.283462524414,-21153.133850097656,-40.24971302032471,-2.524045639038086,-2.7266950607299805,-1.8677861166000367,-4.178118550017973,1.0478840911829135,0.0,-0.284881591796875,-2333.75,-102.557373046875,0.0,0.0,-328.7777117569615,1,1789167795.15372,38.990225335,-76.93992309166667,-10.203000000000003,0,1,16.224783999999996,8.779369,74.684164,1,1,1789167795.3753831,-0.29314783455877996,0.9515901432019646,0.053568570382982406,-0.07530574162363858,171.545399485999,-6.425625442259078,-145.28050600135595,0.09669019336293465,-0.0654966217737408,-0.7204329943809397,1.0345035255622863,-0.07727640327453614,-9.476264117794036
2026-09-11T19:03:15.414,4.61164912000001,-58.846988677978516,-5296.228981018066,-21184.915924072266,-40.31018724441529,-2.584519863128662,-2.675488233566284,-1.8327094399929047,-4.099654259110824,1.0497935591619665,0.0,-0.284393310546875,-2329.75,-102.381591796875,0.0,0.0,0.0,1,1789167795.15372,38.990225335,-76.93992309166667,-10.203000000000003,0,1,16.224783999999996,8.779369,74.684164,1,1,1789167795.4033833,-0.30257953977819396,0.9488922891243282,0.051124855286128215,-0.07372445265975897,171.8081836209625,-6.2562010068513,-144.1790256985214,0.08815099546462721,-0.07367471104981065,-0.6968014108418618,0.6759723956489564,-0.6810718537330627,-9.333479291439057
2026-09-11T19:03:15.448,4.645071200000018,-58.936100006103516,-5304.249000549316,-21216.996002197266,-40.37122850418091,-2.6455611228942875,-2.676515579223633,-1.8334131717681885,-4.101228462258828,-0.02105589404620086,0.0,-0.284271240234375,-2328.75,-102.337646484375,0.0,0.0,0.0,1,1789167795.15372,38.990225335,-76.93992309166667,-10.203000000000003,0,1,16.224783999999996,8.779369,74.684164,1,1,1789167795.4433832,-0.3156587643491782,0.9448254552376403,0.04813661582441776,-0.0731250288308198,172.07190904075262,-6.188008593942027,-142.62264090322634,0.05852333328032266,-0.09584283601109142,-0.6834498165970304,1.2020011103248596,-0.3586291964149475,-9.176670955352783
2026-09-11T19:03:15.481,4.678482144000014,-59.024234771728516,-5312.181129455566,-21248.724517822266,-40.43160081863404,-2.7059334373474124,-2.6513254642486572,-1.8161579430103303,-4.062629614822674,0.5164543916466451,0.0,-0.28295326232910156,-2317.953125,-101.86317443847656,0.2899170219898224,104.37012791633606,3123.8305603202207,1,1789167795.15372,38.990225335,-76.93992309166667,-10.203000000000003,0,1,16.224783999999996,8.779369,74.684164,1,1,1789167795.475383,-0.32583392103341496,0.9415346593560249,0.05089311668058904,-0.06895383825328673,171.8692354502362,-5.547990198978291,-141.42729737108823,0.009807877731582135,-0.19866053131192776,-0.6530585728649781,-2.5621834877586367,-0.31636253421783445,-7.104819975681305
2026-09-11T19:03:15.514,4.7118973760000245,-59.10793685913086,-5319.714317321777,-21278.85726928711,-40.48893674850464,-2.763269367218018,-2.521639108657837,-1.7273227894306185,-3.8639110357699904,2.6585227234000675,0.0,-0.27574729919433594,-2258.921875,-99.26902770996094,0.015258789993822575,5.493164397776127,-2959.0386659152973,1,1789167795.15372,38.990225335,-76.93992309166667,-10.203000000000003,0,1,16.224783999999996,8.779369,74.684164,1,1,1789167795.5033832,-0.3351754688088031,0.9385306253794072,0.04929686902802174,-0.0662381237488779,172.09620309884386,-5.237640818430111,-140.3317881376789,0.06174887627093338,-0.11128708002906404,-0.7049849106386128,-5.480152243385315,1.0805947813224792,-9.738297810115814
2026-09-11T19:03:15.548,4.745321312000016,-59.18860626220703,-5326.974563598633,-21307.89825439453,-40.54419528961182,-2.8185279083251955,-2.4445886611938477,-1.6745432329177858,-3.745846530327899,1.5790945899623072,0.0,-0.2731037139892578,-2237.265625,-98.31733703613281,-0.0915527418255806,-32.958987057209015,-1150.4375623204635,1,1789167795.15372,38.990225335,-76.93992309166667,-10.203000000000003,0,1,16.224783999999996,8.779369,74.684164,1,1,1789167795.5433831,-0.34638248125180543,0.9348001565440744,0.048469824347947645,-0.06179417557258508,172.30623349841125,-4.700787906893023,-139.02019181357448,0.04113461794270316,-0.16115113675854204,-0.5878286374009423,2.99083216632843,-1.11531032289505,-11.328053867836
2026-09-11T19:03:15.581,4.7787375999999995,-59.26491928100586,-5333.842735290527,-21335.37094116211,-40.596469707489014,-2.870802326202393,-2.289768934249878,-1.5684917199611665,-3.50861605216796,3.17364732302615,0.0,-0.2706432342529297,-2217.109375,-97.43156433105469,0.0915527418255806,32.958987057209015,1972.6300573675353,1,1789167795.15372,38.990225335,-76.93992309166667,-10.203000000000003,0,1,16.224783999999996,8.779369,74.684164,1,1,1789167795.5753832,-0.3554203034130889,0.9315516448953216,0.047420597627270966,-0.060326012094625035,172.43563980611597,-4.5129895469603065,-137.9342165852913,0.0378259972796975,-0.058501865730523135,-0.5642059550410493,2.883841613063812,0.02530115741729736,-9.722312970352172
2026-09-11T19:03:15.615,4.812151968000023,-59.34159469604492,-5340.743522644043,-21362.974090576172,-40.64899236679077,-2.9233249855041508,-2.290240526199341,-1.5688147604465486,-3.509338673153514,-0.009667711966953214,0.0,-0.2695121765136719,-2207.84375,-97.02438354492188,0.030517585575580597,10.986330807209015,-657.5810815869485,1,1789167795.15372,38.990225335,-76.93992309166667,-10.203000000000003,0,1,16.224783999999996,8.779369,74.684164,1,1,1789167795.603383,-0.3630946138241471,0.9286177555388996,0.04631755055768794,-0.06071284888823582,172.50031075770664,-4.538143323812033,-136.9908722249005,0.04703871773634958,-0.019287109965013736,-0.5562048421511318,1.529739358730316,-0.3039080885124207,-9.354465522785187
2026-09-11T19:03:15.648,4.8455756800000245,-59.4151725769043,-5347.365531921387,-21389.462127685547,-40.69939321517945,-2.9737258338928223,-2.2130849361419678,-1.515963181257248,-3.3911130575725803,1.5812600105367909,0.0,-0.268402099609375,-2198.75,-96.624755859375,0.0,0.0,-328.6987036989977,1,1789167795.15372,38.990225335,-76.93992309166667,-10.203000000000003,0,1,16.224783999999996,8.779369,74.684164,1,1,1789167795.6433833,-0.37403769201626774,0.9243515718406463,0.04528787455976184,-0.06015800033851856,172.58164750550318,-4.43542879930121,-135.65100682313977,0.05571649477726538,0.07048040945281062,-0.5427197302185227,-0.4150174348449707,0.03942273365020752,-10.002488965473175
2026-09-11T19:03:15.682,4.87898902400002,-59.49098587036133,-5354.1887283325195,-21416.754913330078,-40.75132532119751,-3.025657939910889,-2.2662947177886963,-1.552411881685257,-3.4726464783582123,-1.0908426414313206,0.0,-0.2684650421142578,-2199.265625,-96.64741516113281,0.0,0.0,0.0,1,1789167795.15372,38.990225335,-76.93992309166667,-10.203000000000003,0,1,16.224783999999996,8.779369,74.684164,1,1,1789167795.675383,-0.3827001456087103,0.9206872980252648,0.04435798610286831,-0.06251293366101744,172.53296301648132,-4.655137172913673,-134.55388996643504,-0.034954581594316435,0.24558021759329132,-0.5827291343924652,-3.529805659217834,-1.57808614402771,-7.694984182415008
2026-09-11T19:03:15.715,4.91240035200002,-59.557861328125,-5360.20751953125,-21440.830078125,-40.797135009765626,-3.071467628479004,-2.086160898208618,-1.4290202152729035,-3.1966271816233487,3.693108708889234,0.0,-0.26871490478515625,-2201.3125,-96.73736572265625,-0.015258791856467724,-5.493165068328381,-164.4102583509531,1,1789167795.15372,38.990225335,-76.93992309166667,-10.203000000000003,0,1,16.224783999999996,8.779369,74.684164,1,1,1789167795.7033832,-0.3890919207825509,0.9181144987494059,0.04137230972783456,-0.0629410546118853,172.79699026581866,-4.782813277329806,-133.76485835949575,0.04074924924386281,0.11555318831971377,-0.4572188426901237,-0.056976637439727786,-1.3174253827285765,-7.573773986415864
2026-09-11T19:03:15.749,4.945818528000018,-59.62247848510742,-5366.023063659668,-21464.092254638672,-40.841397762298584,-3.115730381011963,-1.9830423593521118,-1.3583840161561966,-3.0386185042864065,2.1137059998939307,0.0,-0.26871299743652344,-2201.296875,-96.73667907714844,-0.0305175818502903,-10.986329466104507,-164.37654759423373,1,1789167795.15372,38.990225335,-76.93992309166667,-10.203000000000003,0,1,16.224783999999996,8.779369,74.684164,1,1,1789167795.7433832,-0.3985813513429064,0.9141803567846738,0.040099826335983385,-0.06163753368308285,172.94320945445878,-4.6305020378129385,-132.6000598473098,0.03565149156463777,0.07393860483271218,-0.454492987464359,-0.4497329764175415,0.06982334915161133,-9.675241049575806
2026-09-11T19:03:15.782,4.979230624000024,-59.685367584228516,-5371.683082580566,-21486.732330322266,-40.884476795196534,-3.1588094139099123,-1.932565450668335,-1.3238073337078096,-2.961272668458769,1.034855234714412,0.0,-0.26842498779296875,-2198.9375,-96.63299560546875,0.0610351599752903,21.972657591104507,986.4387752627886,1,1789167795.15372,38.990225335,-76.93992309166667,-10.203000000000003,0,1,16.224783999999996,8.779369,74.684164,1,1,1789167795.7753832,-0.405355642558421,0.91116959613875,0.03812090949895584,-0.06327374161031774,173.03872831978768,-4.841590561273809,-131.73926995252395,0.03900880691377406,-0.023705934565212982,-0.45386309813731424,1.01145789768219,-0.35431427034378055,-8.94925473810196
2026-09-11T19:03:15.815,5.012647008000016,-59.74599075317383,-5377.1391677856445,-21508.556671142578,-40.92600366592408,-3.2003362846374515,-1.8819687366485596,-1.2891485846042634,-2.8837432547518387,1.0371783225723876,0.0,-0.2586822509765625,-2119.125,-93.1256103515625,0.2593994438648224,93.38379979133606,2137.009863193136,1,1789167795.15372,38.990225335,-76.93992309166667,-10.203000000000003,0,1,16.224783999999996,8.779369,74.684164,1,1,1789167795.803383,-0.4111884534947693,0.9086249271456727,0.03832020737556481,-0.062099590890720015,173.04395126949268,-4.665410258307948,-131.019053098432,0.010657154945602576,-0.0916961082412781,-0.41382524509656426,0.9612478488540649,0.6419433195877076,-9.460671544036865
2026-09-11T19:03:15.849,5.0460723200000075,-59.807456970214844,-5382.671127319336,-21530.684509277344,-40.96810802459717,-3.2424406433105473,-1.9101308584213257,-1.3084396380186083,-2.9268961122463466,-0.5771390679718962,0.0,-0.2517108917236328,-2062.015625,-90.61592102050781,0.3051758110523224,109.86329197883606,493.02433399886354,1,1789167795.15372,38.990225335,-76.93992309166667,-10.203000000000003,0,1,16.224783999999996,8.779369,74.684164,1,1,1789167795.843383,-0.41889520574920314,0.90488594565261,0.042652454941524844,-0.06236184769693361,172.540573239762,-4.423438858546566,-130.03021522645273,-0.03679049343448927,-0.11627418383371263,-0.4201011000208855,1.3396864785957336,1.8719914493751526,-8.73046837299347
2026-09-11T19:03:15.882,5.079488800000007,-59.87822341918945,-5389.040107727051,-21556.160430908203,-41.01658304214478,-3.2909156608581545,-2.119145154953003,-1.4516144311428072,-3.247169003093248,-4.2845563962512045,0.0,-0.24488449096679688,-2006.09375,-88.15841674804688,0.1831054985523224,65.91797947883606,-1315.0790418380534,1,1789167795.15372,38.990225335,-76.93992309166667,-10.203000000000003,0,1,16.224783999999996,8.779369,74.684164,1,1,1789167795.8753831,-0.4254667745545228,0.9017268793478231,0.0443496404038191,-0.06244812413402985,172.32830827762783,-4.294540432707926,-129.19271754411994,0.0040997784129346805,-0.04398997659896588,-0.48936902924233566,0.9033886128997802,-0.7559946609687805,-12.38413202375412
2026-09-11T19:03:15.915,5.112904224000005,-59.94689178466797,-5395.220260620117,-21580.88104248047,-41.06362087249756,-3.337953491210938,-2.0683505535125732,-1.4168201291561129,-3.169336366222511,1.041264716159127,0.0,-0.2429943084716797,-1990.609375,-87.47795104980469,0.015258795581758022,5.493166409432888,-1808.291077479898,1,1789167795.15372,38.990225335,-76.93992309166667,-10.203000000000003,0,1,16.224783999999996,8.779369,74.684164,1,1,1789167795.9033833,-0.4321403385829306,0.8987008441163966,0.0453638595721121,-0.059444434547129096,172.3443634645992,-3.8783570450963065,-128.37925689498186,0.04100040212322479,-0.0474630072775094,-0.4511054779191632,0.5225963871192932,1.3857777343559263,-9.414874487781525
2026-09-11T19:03:15.949,5.146329088000016,-60.01356887817383,-5401.2211990356445,-21604.884796142578,-41.10929468154907,-3.3836273002624515,-2.069141387939453,-1.4173618507385255,-3.170548162890399,-0.01620714395165322,0.0,-0.23724365234375,-1943.5,-85.40771484375,0.3662109673023224,131.83594822883606,3779.9041402041544,1,1789167795.15372,38.990225335,-76.93992309166667,-10.203000000000003,0,1,16.224783999999996,8.779369,74.684164,1,1,1789167795.9433832,-0.4402151950128031,0.8947148223483272,0.04640844775385344,-0.05951659203212869,172.19872517741499,-3.763678230188312,-127.34731356037547,0.01609245930216332,-0.0162509351982444,-0.46693229810917297,1.2956546193695067,0.5314223722648621,-9.709564325141907
2026-09-11T19:03:15.982,5.179746047999998,-60.08332061767578,-5407.49885559082,-21629.99542236328,-41.15707462310791,-3.4314072418212893,-2.095984697341919,-1.4357495176792145,-3.211680202396235,-0.5502495421695652,0.0,-0.22068405151367188,-1807.84375,-79.44625854492188,0.2746582627296448,98.87697458267212,-986.2947930087354,1,1789167795.15372,38.990225335,-76.93992309166667,-10.203000000000003,0,1,16.224783999999996,8.779369,74.684164,1,1,1789167795.975383,-0.44682571611747485,0.8913945281661096,0.04695638270543833,-0.05964622951071712,172.10830054717394,-3.6909110831524536,-126.4992273928999,0.03208281684308496,-0.03830421749474395,-0.4428856752739707,-0.21339270751953127,0.6034031844520569,-10.224511525135041
2026-09-11T19:03:16.016,5.213159200000007,-60.15230178833008,-5413.707160949707,-21654.828643798828,-41.204326725006105,-3.4786593437194826,-2.071122646331787,-1.4187190127372742,-3.173584047819597,0.509694653827811,0.0,-0.21495628356933594,-1760.921875,-77.38426208496094,0.5493164658546448,197.75392770767212,2959.222557781285,1,1789167795.15372,38.990225335,-76.93992309166667,-10.203000000000003,0,1,16.224783999999996,8.779369,74.684164,1,1,1789167796.0033832,-0.4527485447827743,0.8884210951752348,0.04819969394042587,-0.05833954361122179,172.0262390038108,-3.4407013001313373,-125.75240339522382,0.034036538407767415,-0.03469592379917087,-0.41718954176270856,0.8561205591201783,1.6164301461601258,-9.76173570400238
2026-09-11T19:03:16.050,5.2465863040000045,-60.222496032714844,-5420.024642944336,-21680.098571777344,-41.25240978240967,-3.5267424011230473,-2.0974788665771484,-1.4367730236053469,-3.213969719947533,-0.5401009572373956,0.0,-0.19498634338378906,-1597.328125,-70.19508361816406,0.7934570908546448,285.6445527076721,2629.322151270009,1,1789167795.15372,38.990225335,-76.93992309166667,-10.203000000000003,0,1,16.224783999999996,8.779369,74.684164,1,1,1789167796.0433831,-0.4600770755482258,0.8844283759348274,0.0506430164622095,-0.0595887345048038,171.68232804074074,-3.371197560890087,-124.78815892997879,0.019632510623983416,-0.0484784398363197,-0.40331783940078286,1.045290840740204,1.332037291469574,-9.038495254573823
2026-09-11T19:03:16.083,5.280002272000019,-60.297637939453125,-5426.787414550781,-21707.149658203125,-41.3038819885254,-3.57821460723877,-2.2018065452575684,-1.5082374835014345,-3.373831163881158,-2.138632042503076,0.0,-0.17269134521484375,-1414.6875,-62.16888427734375,0.2593994736671448,93.38381052017212,-5753.558962811395,1,1789167795.15372,38.990225335,-76.93992309166667,-10.203000000000003,0,1,16.224783999999996,8.779369,74.684164,1,1,1789167796.0753832,-0.4657971632460623,0.8812529940601231,0.053717402000859206,-0.05950297382709345,171.3535990543723,-3.143191064986954,-124.04383378192355,0.013029930063688867,-0.08490573025346895,-0.36882646818994574,-0.10316595970153808,1.3800898772621155,-9.517844314479827
2026-09-11T19:03:16.116,5.313417120000025,-60.37221145629883,-5433.4990310668945,-21733.996124267578,-41.3549648475647,-3.6292974662780764,-2.2536816596984863,-1.5437719368934633,-3.453319472292103,-1.063433040067147,0.0,-0.14901161193847656,-1220.703125,-53.64418029785156,0.8544922471046448,307.6172089576721,6411.323446315152,1,1789167795.15372,38.990225335,-76.93992309166667,-10.203000000000003,0,1,16.224783999999996,8.779369,74.684164,1,1,1789167796.103383,-0.4704432790837156,0.8786540024061165,0.05591793554288647,-0.0593586531627471,171.12257173727096,-2.9634557604856457,-123.43950728259576,0.014655180663145986,-0.06093118951637404,-0.35256924980639415,1.8863091586112974,1.5040459353065492,-9.45625855146408
2026-09-11T19:03:16.150,5.346846528000015,-60.4497184753418,-5440.474662780762,-21761.898651123047,-41.408057155609136,-3.6823897743225102,-2.305758237838745,-1.5794443929195405,-3.5331164838035494,-1.0670980481044925,0.0,-0.14121627807617188,-1156.84375,-50.837860107421875,0.4272461235523224,153.80860447883606,-4600.996956897513,1,1789167795.15372,38.990225335,-76.93992309166667,-10.203000000000003,0,1,16.224783999999996,8.779369,74.684164,1,1,1789167796.1433833,-0.47671237462904664,0.8752365280982691,0.05712972292235067,-0.058673047618464376,171.01788678303464,-2.7648320687253323,-122.63145975240326,0.02027077753143774,-0.09543617429537674,-0.33153768325401206,1.0957950890731811,1.2782968485832213,-9.194420992145538
2026-09-11T19:03:16.183,5.380261856000004,-60.53061294555664,-5447.755165100098,-21791.02066040039,-41.4634698677063,-3.737802486419678,-2.410360813140869,-1.6510971570014954,-3.6933991522044862,-2.144308267211299,0.0,-0.12797164916992188,-1048.34375,-46.069793701171875,0.4119873642921448,148.31545114517212,-164.3902263555711,1,1789167796.1703994,38.990232815,-76.93992245833333,-10.156000000000002,0,1,21.930488999999998,9.504889,132.503121,1,1,1789167796.175383,-0.48134975382896505,0.8724695759996776,0.0594192371406025,-0.05973782471237724,170.71350929586708,-2.6959589266965738,-122.00912240588003,0.02358952110410496,-0.08875138872731325,-0.32237051589083704,1.0050835750770568,1.5941690502929688,-9.891379619140626
2026-09-11T19:03:16.216,5.413674176000001,-60.6129035949707,-5455.161323547363,-21820.645294189453,-41.519838962554935,-3.7941715812683108,-2.515705108642578,-1.7232579994201662,-3.8548183594760297,-2.159707629361816,0.0,-0.11429023742675781,-936.265625,-41.14448547363281,0.3662109971046448,131.83595895767212,-493.2160408945481,1,1789167796.1703994,38.990232815,-76.93992245833333,-10.156000000000002,0,1,21.930488999999998,9.504889,132.503121,1,1,1789167796.2033832,-0.4855033200620052,0.870041135128449,0.06161291478563845,-0.05931945823073506,170.50471031760708,-2.487084807786634,-121.46832994617169,0.009647307440398656,-0.07614016315117783,-0.31954255890383065,0.40776051372528077,1.438831711730957,-9.111358665275574
2026-09-11T19:03:16.250,5.4470909120000215,-60.70036315917969,-5463.032684326172,-21852.130737304688,-41.57974876403809,-3.854081382751465,-2.5683112144470215,-1.7592931818962099,-3.9354267669474945,-1.0783573379524918,0.0,-0.10131645202636719,-829.984375,-36.47392272949219,0.3814697861671448,137.32912302017212,164.3836209047041,1,1789167796.1703994,38.990232815,-76.93992245833333,-10.156000000000002,0,1,21.930488999999998,9.504889,132.503121,1,1,1789167796.2433832,-0.49114250719683394,0.866839128950926,0.06326645429391446,-0.05801997849951336,170.3982346750608,-2.2031235616124696,-120.74401487642923,0.01624849173729161,-0.1408170037752569,-0.2865589776337914,1.2505440286254883,1.3235055058288574,-9.701228672504424
2026-09-11T19:03:16.285,5.480517024000022,-60.78617858886719,-5470.756072998047,-21883.024291992188,-41.63853233337402,-3.9128649520874026,-2.5684916973114014,-1.75941681265831,-3.935703321086051,-0.003698628249082605,0.0,-0.082977294921875,-679.75,-29.871826171875,0.6561279892921448,236.20607614517212,2958.0752055458224,1,1789167796.1703994,38.990232815,-76.93992245833333,-10.156000000000002,0,1,21.930488999999998,9.504889,132.503121,1,1,1789167796.2753832,-0.49511929568680174,0.8644874342587353,0.06515521657616223,-0.05721150933394106,170.24677204318053,-1.9712520697844673,-120.2295349047476,0.025978178718384398,-0.14287387429873222,-0.27478882622419204,-0.2207476951408386,1.7344041476058958,-9.702307404022218
2026-09-11T19:03:16.316,5.513934368000008,-60.877830505371094,-5479.004745483398,-21916.018981933594,-41.7013138961792,-3.9756465148925786,-2.725965738296509,-1.8672865307331086,-4.177001008261244,-3.2279560600281143,0.0,-0.07716751098632812,-632.15625,-27.780303955078125,0.015258789993822575,5.493164397776127,-6903.987095667855,1,1789167796.1703994,38.990232815,-76.93992245833333,-10.156000000000002,0,1,21.930488999999998,9.504889,132.503121,1,1,1789167796.303383,-0.4984393217401188,0.8624576035945096,0.06655498536253367,-0.057406954880562,170.08881642180555,-1.872466350883434,-119.78789648391393,-0.021211859064113082,-0.12113928912364683,-0.27647167268896494,1.0223432793617249,1.245052304534912,-9.089980167922974
2026-09-11T19:03:16.350,5.547347295999998,-60.970420837402344,-5487.337875366211,-21949.351501464844,-41.76473827362061,-4.039070892333985,-2.75227952003479,-1.8853114712238312,-4.217321651807063,-0.5394600703873689,0.0,-0.077362060546875,-633.75,-27.850341796875,0.0,0.0,-164.40236538916247,1,1789167796.1703994,38.990232815,-76.93992245833333,-10.156000000000002,0,1,21.930488999999998,9.504889,132.503121,1,1,1789167796.343383,-0.5040103828267738,0.8594492354625237,0.06772129365345476,-0.05229122346623104,170.26123753953388,-1.2387644407064535,-119.11683177597288,0.006484945368710131,-0.07953221055242882,-0.2991181923982174,-0.8842656450843811,0.31920646276474,-11.64490673456192
