timestamp,time_s,drive_pos_turns,drive_encoder_count,drive_wheel_angle_deg,drive_distance_m,drive_distance_since_start_m,drive_velocity_turns_s,drive_velocity_mps,drive_velocity_mph,drive_acceleration_mps2,drive_iq_A,steer_pos_turns,steer_encoder_count,steer_angle_deg,steer_velocity_turns_s,steer_velocity_deg_s,steer_acceleration_deg_s2,gps_received,gps_ros_stamp_s,gps_latitude_deg,gps_longitude_deg,gps_altitude_m,gps_status,gps_service,gps_cov_x_m2,gps_cov_y_m2,gps_cov_z_m2,gps_covariance_type,imu_received,imu_ros_stamp_s,imu_qx,imu_qy,imu_qz,imu_qw,imu_roll_deg,imu_pitch_deg,imu_yaw_deg,imu_gyro_x_rad_s,imu_gyro_y_rad_s,imu_gyro_z_rad_s,imu_accel_x_mps2,imu_accel_y_mps2,imu_accel_z_mps2
2026-09-11T19:04:41.365,1.4720000024226465e-05,-365.4264831542969,-32888.38348388672,-131553.53393554688,-250.31714096069337,0.0,0.0,0.0,0.0,0.0,0.0,-0.04483222961425781,-367.265625,-16.139602661132812,0.0,0.0,0.0,1,1789167881.1571584,38.990336873333334,-76.93988936333334,-3.0440000000000005,0,1,17.572864000000003,8.392608999999998,56.070144000000006,1,1,1789167881.3561873,-0.9821173191331961,-0.17405610479739855,-0.07087227606066447,0.011276716160374243,179.85403193024158,-8.22931585380847,20.1103288197362,-0.0004845034003536259,0.002283239727458982,0.0007422885308731883,0.4180574963951111,-0.08982891548156738,-9.701719005012512
2026-09-11T19:04:41.399,0.03342566399999214,-365.4264831542969,-32888.38348388672,-131553.53393554688,-250.31714096069337,0.0,0.0,0.0,0.0,0.0,0.0,-0.04483222961425781,-367.265625,-16.139602661132812,0.0,0.0,0.0,1,1789167881.1571584,38.990336873333334,-76.93988936333334,-3.0440000000000005,0,1,17.572864000000003,8.392608999999998,56.070144000000006,1,1,1789167881.3951874,-0.9825496125001281,-0.17167308926378433,-0.07068953709956032,0.011295961363550804,179.8799788541223,-8.209345834631858,19.83019910293524,0.001965240737745615,-0.00018570303241219666,-0.0007410668003967923,0.4141348363304138,-0.07884546730041504,-9.707308795604707
2026-09-11T19:04:41.433,0.06684025600003451,-365.4264831542969,-32888.38348388672,-131553.53393554688,-250.31714096069337,0.0,0.0,0.0,0.0,0.0,0.0,-0.04483222961425781,-367.265625,-16.139602661132812,0.0,0.0,0.0,1,1789167881.1571584,38.990336873333334,-76.93988936333334,-3.0440000000000005,0,1,17.572864000000003,8.392608999999998,56.070144000000006,1,1,1789167881.4241872,-0.9828916624729693,-0.16993656099255763,-0.07015725871085658,0.011113241170926597,179.88433640000397,-8.145712505076181,19.626540117632402,-6.108652381980153e-05,-0.0008477064176936459,-0.002606125639077933,0.3981499965667724,-0.06962721614837647,-9.712015987682342
2026-09-11T19:04:41.466,0.1002588800000126,-365.4264831542969,-32888.38348388672,-131553.53393554688,-250.31714096069337,0.0,0.0,0.0,0.0,0.0,0.0,-0.04483222961425781,-367.265625,-16.139602661132812,0.0,0.0,0.0,1,1789167881.1571584,38.990336873333334,-76.93988936333334,-3.0440000000000005,0,1,17.572864000000003,8.392608999999998,56.070144000000006,1,1,1789167881.4551873,-0.9832246376957425,-0.16797989292648896,-0.07020119009862054,0.011129254656900909,179.90162261606375,-8.15121112566922,19.39729685881077,-0.00022549653935766736,0.001256462528510718,-0.002073800217219662,0.41943042741775516,-0.07943386631011963,-9.723097502365112
2026-09-11T19:04:41.501,0.13370723200000612,-365.4264831542969,-32888.38348388672,-131553.53393554688,-250.31714096069337,0.0,0.0,0.0,0.0,0.0,0.0,-0.04483222961425781,-367.265625,-16.139602661132812,0.0,0.0,0.0,1,1789167881.1571584,38.990336873333334,-76.93988936333334,-3.0440000000000005,0,1,17.572864000000003,8.392608999999998,56.070144000000006,1,1,1789167881.4961872,-0.9836844826941953,-0.16546246380947094,-0.06974125911064455,0.011098123914208911,179.92794718684274,-8.098738523559154,19.101423679919318,0.0026066492378535315,0.0039414770497787945,0.00043004912769140276,0.41295803831100464,-0.0793357998085022,-9.707602995109559
2026-09-11T19:04:41.534,0.1671267520000015,-365.4264831542969,-32888.38348388672,-131553.53393554688,-250.31714096069337,0.0,0.0,0.0,0.0,0.0,0.0,-0.04483222961425781,-367.265625,-16.139602661132812,0.0,0.0,0.0,1,1789167881.1571584,38.990336873333334,-76.93988936333334,-3.0440000000000005,0,1,17.572864000000003,8.392608999999998,56.070144000000006,1,1,1789167881.5241873,-0.9839821179475441,-0.16375693862342836,-0.06958260059009287,0.011005376289234694,179.93454420130723,-8.07912285840158,18.902062420764057,-0.0003738495257771854,0.0007333873516880173,0.0011587240903990356,0.41854782890319825,-0.06972528264999389,-9.709466258640289
2026-09-11T19:04:41.568,0.20054608000003782,-365.4276123046875,-32888.485107421875,-131553.9404296875,-250.31791442871096,-0.0007734680175781251,-0.02630305476486683,-0.01801759251393378,-0.040304206589866144,-0.5391368885069799,0.0,-0.04483222961425781,-367.265625,-16.139602661132812,0.0,0.0,0.0,1,1789167881.1571584,38.990336873333334,-76.93988936333334,-3.0440000000000005,0,1,17.572864000000003,8.392608999999998,56.070144000000006,1,1,1789167881.5641873,-0.9843979620204664,-0.1612642944373381,-0.06954277808229237,0.010875740258806832,179.94112267888468,-8.072340090717503,18.61129043016734,0.0008967501696746866,0.0015037756835183144,0.0013852678273078992,0.410310242767334,-0.06315482704162598,-9.714467650222778
2026-09-11T19:04:41.601,0.23396892800002433,-365.4284973144531,-32888.56475830078,-131554.25903320312,-250.31852066040042,-0.00137969970703125,-0.02630305476486683,-0.01801759251393378,-0.040304206589866144,0.0,0.0,-0.04483222961425781,-367.265625,-16.139602661132812,0.0,0.0,0.0,1,1789167881.1571584,38.990336873333334,-76.93988936333334,-3.0440000000000005,0,1,17.572864000000003,8.392608999999998,56.070144000000006,1,1,1789167881.5961874,-0.9847352637839298,-0.1592894210336751,-0.06934505272135226,0.010705338398359639,179.94167048293548,-8.046893309542833,18.381095751189633,0.002076767276948053,0.0024274039236737138,0.000585732496969297,0.40501465167999273,-0.06070316450119019,-9.703190002536774
2026-09-11T19:04:41.634,0.2673900480000384,-365.4293518066406,-32888.641662597656,-131554.56665039062,-250.31910598754885,-0.00196502685546875,-0.02630305476486683,-0.01801759251393378,-0.040304206589866144,0.0,0.0,-0.04483222961425781,-367.265625,-16.139602661132812,0.0,0.0,0.0,1,1789167881.1571584,38.990336873333334,-76.93988936333334,-3.0440000000000005,0,1,17.572864000000003,8.392608999999998,56.070144000000006,1,1,1789167881.6231873,-0.98499752689567,-0.15758358295697877,-0.06950989859543137,0.010754552017987747,179.95828713415662,-8.066574215854628,18.181677688667055,8.831366015091308e-05,-0.0015330972149518191,-0.001412145897788612,0.4408089247703552,-0.0756092727470398,-9.713781184711456
2026-09-11T19:04:41.668,0.30085264000001644,-365.43023681640625,-32888.72131347656,-131554.88525390625,-250.3197122192383,-0.0025712585449218753,-0.02630305476486683,-0.01801759251393378,-0.040304206589866144,0.0,0.0,-0.04483222961425781,-367.265625,-16.139602661132812,0.0,0.0,0.0,1,1789167881.1571584,38.990336873333334,-76.93988936333334,-3.0440000000000005,0,1,17.572864000000003,8.392608999999998,56.070144000000006,1,1,1789167881.6631873,-0.9854062337152454,-0.15512940319373114,-0.0692562209067894,0.010630083988468337,179.96890100840358,-8.035642606465146,17.89512256074929,0.00149278010923075,0.001611637031291564,0.0010791370765080941,0.40324945465087886,-0.058545701465606684,-9.698188610954285
2026-09-11T19:04:41.701,0.33427542399999766,-365.4311218261719,-32888.80096435547,-131555.20385742188,-250.32031845092774,-0.003177490234375,-0.02630305476486683,-0.01801759251393378,-0.040304206589866144,0.0,0.0,-0.04483222961425781,-367.265625,-16.139602661132812,0.0,0.0,0.0,1,1789167881.1571584,38.990336873333334,-76.93988936333334,-3.0440000000000005,0,1,17.572864000000003,8.392608999999998,56.070144000000006,1,1,1789167881.6961873,-0.9857360418409273,-0.15319133465995738,-0.0689014662304523,0.01046225368532958,179.97198675801465,-7.992459292894713,17.66908433787622,0.0009707521299592461,0.0007922049474802261,0.0005874778262212913,0.4369843312072754,-0.0675678196144104,-9.720253573818207
2026-09-11T19:04:41.735,0.36769664000001967,-365.4320068359375,-32888.880615234375,-131555.5224609375,-250.3209246826172,-0.0037837219238281254,-0.02630305476486683,-0.01801759251393378,-0.040304206589866144,0.0,0.0,-0.04483222961425781,-367.265625,-16.139602661132812,0.0,0.0,0.0,1,1789167881.1571584,38.990336873333334,-76.93988936333334,-3.0440000000000005,0,1,17.572864000000003,8.392608999999998,56.070144000000006,1,1,1789167881.7241874,-0.9860072234021361,-0.15149146598634652,-0.06878058181827619,0.010455749464158462,179.98724548786666,-7.978657216628107,17.470285459221497,-1.5707963267948967e-06,-0.0010285225282002585,-0.0035280085499813374,0.40207265663146974,-0.06982334915161133,-9.711231455669402
2026-09-11T19:04:41.768,0.40111939199999824,-365.432861328125,-32888.95751953125,-131555.830078125,-250.32151000976563,-0.004369049072265626,-0.02630305476486683,-0.01801759251393378,-0.040304206589866144,0.0,0.0,-0.04483222961425781,-367.265625,-16.139602661132812,0.0,0.0,0.0,1,1789167881.1571584,38.990336873333334,-76.93988936333334,-3.0440000000000005,0,1,17.572864000000003,8.392608999999998,56.070144000000006,1,1,1789167881.7641873,-0.9863855925709549,-0.1490455455891625,-0.06870186098996175,0.010437547843770522,-179.99355032421767,-7.969410635220397,17.1846436742423,-0.00017749998492782332,0.0029958576610482667,-0.002159495883492584,0.44110312427520754,-0.07050981466293335,-9.700738339996338
2026-09-11T19:04:41.801,0.43454166399999394,-365.4337463378906,-32889.037170410156,-131556.14868164062,-250.3221162414551,-0.00497528076171875,-0.02630305476486683,-0.01801759251393378,-0.040304206589866144,0.0,0.0,-0.04483222961425781,-367.265625,-16.139602661132812,0.0,0.0,0.0,1,1789167881.1571584,38.990336873333334,-76.93988936333334,-3.0440000000000005,0,1,17.572864000000003,8.392608999999998,56.070144000000006,1,1,1789167881.7961872,-0.9866927616941079,-0.1471013443084882,-0.06848156817168813,0.010433759813042145,-179.97440851365863,-7.944290026662566,16.957225265781457,-2.6354471705114377e-05,0.0026082200341803257,-0.0015742869852988853,0.4063875827026367,-0.07737446977615356,-9.708093327617645
2026-09-11T19:04:41.835,0.4679596160000301,-365.43463134765625,-32889.11682128906,-131556.46728515625,-250.32272247314455,-0.005581512451171875,-0.02630305476486683,-0.01801759251393378,-0.040304206589866144,0.0,0.0,-0.04483222961425781,-367.265625,-16.139602661132812,0.0,0.0,0.0,1,1789167881.1571584,38.990336873333334,-76.93988936333334,-3.0440000000000005,0,1,17.572864000000003,8.392608999999998,56.070144000000006,1,1,1789167881.8241873,-0.9869592658050261,-0.14538989292840693,-0.06828670435717035,0.010493459101103024,-179.95043350997761,-7.923088278856389,16.75661699217721,0.0006806784082777885,0.0024759240768791563,-0.0009208357133522083,0.40560305068969726,-0.07472667423248291,-9.712310187187196
2026-09-11T19:04:41.869,0.5013777280000227,-365.4355163574219,-32889.19647216797,-131556.78588867188,-250.323328704834,-0.006187744140625001,-0.02630305476486683,-0.01801759251393378,-0.040304206589866144,0.0,0.0,-0.04483222961425781,-367.265625,-16.139602661132812,0.0,0.0,0.0,1,1789167881.1571584,38.990336873333334,-76.93988936333334,-3.0440000000000005,0,1,17.572864000000003,8.392608999999998,56.070144000000006,1,1,1789167881.8631873,-0.9873165150784722,-0.1430788009852546,-0.06800679933076342,0.010470482639690012,-179.92973762968413,-7.8907527166907965,16.486596540433474,0.00036320301734002,0.0038316958398283514,-0.0025213026374310086,0.428942878074646,-0.08110099683761596,-9.710348857154846
2026-09-11T19:04:41.902,0.5348775040000078,-365.4364013671875,-32889.276123046875,-131557.1044921875,-250.32393493652344,-0.006793975830078126,-0.02630305476486683,-0.01801759251393378,-0.040304206589866144,0.0,0.0,-0.04483222961425781,-367.265625,-16.139602661132812,0.0,0.0,0.0,1,1789167881.1571584,38.990336873333334,-76.93988936333334,-3.0440000000000005,0,1,17.572864000000003,8.392608999999998,56.070144000000006,1,1,1789167881.8951874,-0.9876044677939294,-0.14117051707612513,-0.06779754090524741,0.010573256316289763,-179.8992210881497,-7.8684773529623095,16.262843952818773,-0.0005550147021341969,0.0028953266961333933,-0.0023788837704682713,0.4047204521751404,-0.08825985145568847,-9.708387527122497
2026-09-11T19:04:41.935,0.5683003519999943,-365.4372863769531,-32889.35577392578,-131557.42309570312,-250.3245411682129,-0.00740020751953125,-0.02630305476486683,-0.01801759251393378,-0.040304206589866144,0.0,0.0,-0.04483222961425781,-367.265625,-16.139602661132812,0.0,0.0,0.0,1,1789167881.1571584,38.990336873333334,-76.93988936333334,-3.0440000000000005,0,1,17.572864000000003,8.392608999999998,56.070144000000006,1,1,1789167881.9241872,-0.987857308205542,-0.13944983812589246,-0.0676528892874498,0.010712975432769539,-179.86712130526746,-7.854079685380743,16.06089275893611,0.0012740903539558606,0.0019357446733869108,0.00040561451816348217,0.43247327213287357,-0.0926728440284729,-9.70524939907074
2026-09-11T19:04:41.969,0.601721600000019,-365.4381408691406,-32889.432678222656,-131557.73071289062,-250.32512649536136,-0.00798553466796875,-0.02630305476486683,-0.01801759251393378,-0.040304206589866144,0.0,0.0,-0.04483222961425781,-367.265625,-16.139602661132812,0.0,0.0,0.0,1,1789167881.1571584,38.990336873333334,-76.93988936333334,-3.0440000000000005,0,1,17.572864000000003,8.392608999999998,56.070144000000006,1,1,1789167881.9641874,-0.9882057251681065,-0.13716067314292243,-0.067242666157641,0.010715331817968734,-179.84201448809512,-7.807115981189245,15.793292341109789,-0.00047926741259764286,0.0017500416409747142,-0.0012566370614359172,0.42276468847274784,-0.08875018396377564,-9.71211405418396
2026-09-11T19:04:42.002,0.6351462720000427,-365.43902587890625,-32889.51232910156,-131558.04931640625,-250.3257327270508,-0.008591766357421876,-0.02630305476486683,-0.01801759251393378,-0.040304206589866144,0.0,0.0,-0.04483222961425781,-367.265625,-16.139602661132812,0.0,0.0,0.0,1,1789167881.1571584,38.990336873333334,-76.93988936333334,-3.0440000000000005,0,1,17.572864000000003,8.392608999999998,56.070144000000006,1,1,1789167881.9961872,-0.988480720350462,-0.13525058836844192,-0.06705087752258307,0.010831604907574942,-179.81053307194,-7.786779435008546,15.569532477922989,0.00024382249650360782,-6.475171524898962e-05,-0.001217367153266045,0.4101141097640992,-0.09630130458831787,-9.697502145442963
2026-09-11T19:04:42.036,0.6685659519999945,-365.4399108886719,-32889.59197998047,-131558.36791992188,-250.32633895874025,-0.009197998046875001,-0.02630305476486683,-0.01801759251393378,-0.040304206589866144,0.0,0.0,-0.04483222961425781,-367.265625,-16.139602661132812,0.0,0.0,0.0,1,1789167881.1571584,38.990336873333334,-76.93988936333334,-3.0440000000000005,0,1,17.572864000000003,8.392608999999998,56.070144000000006,1,1,1789167882.0231874,-0.9887034748706214,-0.13366248240979622,-0.06693869985904055,0.01090825540544817,-179.7874449194796,-7.774874807676619,15.38379521003116,0.0019165460516149735,0.0006752678875966061,0.00027750735106709843,0.43404233615875243,-0.09022118148803711,-9.698973142967224
2026-09-11T19:04:42.069,0.7019854080000414,-365.4407958984375,-32889.671630859375,-131558.6865234375,-250.3269451904297,-0.009804229736328126,-0.02630305476486683,-0.01801759251393378,-0.040304206589866144,0.0,0.0,-0.04483222961425781,-367.265625,-16.139602661132812,0.0,0.0,0.0,1,1789167881.1571584,38.990336873333334,-76.93988936333334,-3.0440000000000005,0,1,17.572864000000003,8.392608999999998,56.070144000000006,1,1,1789167882.0641873,-0.9890369966695198,-0.13118634526312933,-0.06690110952494809,0.010963739315138051,-179.7609395580785,-7.770874986017235,15.095035225835261,-0.00013247049022636963,-0.0017891370162193873,-0.0005396558047166467,0.41374257032394407,-0.08884825046539307,-9.706426197090149
2026-09-11T19:04:42.102,0.7354084800000464,-365.4416809082031,-32889.75128173828,-131559.00512695312,-250.32755142211917,-0.010410461425781252,-0.02630305476486683,-0.01801759251393378,-0.040304206589866144,0.0,0.0,-0.04483222961425781,-367.265625,-16.139602661132812,0.0,0.0,0.0,1,1789167881.1571584,38.990336873333334,-76.93988936333334,-3.0440000000000005,0,1,17.572864000000003,8.392608999999998,56.070144000000006,1,1,1789167882.0961874,-0.9893021332417895,-0.12931314294974577,-0.06662170536850939,0.010997663274277387,-179.73806920443405,-7.739091364956241,14.876274439991978,-8.377580409572783e-06,-0.0033443999126715343,-0.002115164520491928,0.42403955299377444,-0.09738003610610961,-9.711035322666168
2026-09-11T19:04:42.136,0.7688231040000346,-365.4425354003906,-32889.828186035156,-131559.31274414062,-250.3281367492676,-0.01099578857421875,-0.02630305476486683,-0.01801759251393378,-0.040304206589866144,0.0,0.0,-0.04483222961425781,-367.265625,-16.139602661132812,0.0,0.0,0.0,1,1789167881.1571584,38.990336873333334,-76.93988936333334,-3.0440000000000005,0,1,17.572864000000003,8.392608999999998,56.070144000000006,1,1,1789167882.1241872,-0.9895201689838828,-0.1276978756418769,-0.0664877154346623,0.011066680935996526,-179.71548017703,-7.72440349354813,14.687584329951939,0.0010307914562278512,-0.0019174187162409703,-0.0015507250403969618,0.4372785307121277,-0.09777230211257934,-9.701719005012512
2026-09-11T19:04:42.169,0.8022475840000425,-365.44342041015625,-32889.90783691406,-131559.63134765625,-250.32874298095706,-0.011602020263671875,-0.02630305476486683,-0.01801759251393378,-0.040304206589866144,0.0,0.0,-0.04483222961425781,-367.265625,-16.139602661132812,0.0,0.0,0.0,1,1789167882.157926,38.990337243333336,-76.93988885,-3.0700000000000003,0,1,17.572864000000003,8.392608999999998,56.055169,1,1,1789167882.1631873,-0.9898286698821664,-0.12531209409921054,-0.06642098406991107,0.011150615541601074,-179.68617212767523,-7.717300224345395,14.409331067191347,0.0004525638750421297,-0.006573957160561842,-0.0015692255304681018,0.40275912214279175,-0.0858081889152527,-9.708583660125733
2026-09-11T19:04:42.203,0.8356742080000004,-365.4443054199219,-32889.98748779297,-131559.94995117188,-250.3293492126465,-0.012208251953125,-0.02630305476486683,-0.01801759251393378,-0.040304206589866144,0.0,0.0,-0.04483222961425781,-367.265625,-16.139602661132812,0.0,0.0,0.0,1,1789167882.157926,38.990337243333336,-76.93988885,-3.0700000000000003,0,1,17.572864000000003,8.392608999999998,56.055169,1,1,1789167882.1961873,-0.9900942527944853,-0.1233494006444683,-0.06616191919966316,0.010995289527673808,-179.68486707997496,-7.6849337797083646,14.181870638031466,0.0011931070766633238,-0.0027956683958445167,-0.0017599900177110819,0.4278641465568543,-0.07600153875350953,-9.709760458145142
2026-09-11T19:04:42.236,0.8690917119999995,-365.4451904296875,-32890.067138671875,-131560.2685546875,-250.32995544433595,-0.012814483642578126,-0.02630305476486683,-0.01801759251393378,-0.040304206589866144,0.0,0.0,-0.04483222961425781,-367.265625,-16.139602661132812,0.0,0.0,0.0,1,1789167882.157926,38.990337243333336,-76.93988885,-3.0700000000000003,0,1,17.572864000000003,8.392608999999998,56.055169,1,1,1789167882.2241874,-0.9903078439764542,-0.12177765360130538,-0.06589085503431236,0.01090744997304685,-179.67883726983092,-7.652294495824068,13.999397585201056,0.0001562069680534925,0.0027422613207334907,-0.0006754424205218055,0.4167826318740845,-0.09002504848480225,-9.715154115734101
2026-09-11T19:04:42.270,0.9025080640000169,-365.446044921875,-32890.14404296875,-131560.576171875,-250.3305407714844,-0.013399810791015626,-0.02630305476486683,-0.01801759251393378,-0.040304206589866144,0.0,0.0,-0.04483222961425781,-367.265625,-16.139602661132812,0.0,0.0,0.0,1,1789167882.157926,38.990337243333336,-76.93988885,-3.0700000000000003,0,1,17.572864000000003,8.392608999999998,56.055169,1,1,1789167882.2641873,-0.9906122754329236,-0.11936987599775552,-0.06568989464117568,0.01109009503644273,-179.6364342797904,-7.6310814195841745,13.71790383401164,0.0010829768008624814,-0.002960078411382383,-0.0011491247795130666,0.4180574963951111,-0.09963556564331055,-9.708485593624115
2026-09-11T19:04:42.303,0.9359357120000027,-365.4469299316406,-32890.223693847656,-131560.89477539062,-250.33114700317384,-0.014006042480468751,-0.02630305476486683,-0.01801759251393378,-0.040304206589866144,0.0,0.0,-0.04483222961425781,-367.265625,-16.139602661132812,0.0,0.0,0.0,1,1789167882.157926,38.990337243333336,-76.93988885,-3.0700000000000003,0,1,17.572864000000003,8.392608999999998,56.055169,1,1,1789167882.2951872,-0.9908364820112566,-0.11752249145073254,-0.06563567213060652,0.011112536287128051,-179.61881430419533,-7.62450897760182,13.503028500329412,0.001637816970071479,-0.00031642819338657195,0.0005490805826774162,0.41227157279968263,-0.08649465442657471,-9.699855741481782
2026-09-11T19:04:42.336,0.969351520000032,-365.44781494140625,-32890.30334472656,-131561.21337890625,-250.3317532348633,-0.014612274169921877,-0.02630305476486683,-0.01801759251393378,-0.040304206589866144,0.0,0.0,-0.04483222961425781,-367.265625,-16.139602661132812,0.0,0.0,0.0,1,1789167882.157926,38.990337243333336,-76.93988885,-3.0700000000000003,0,1,17.572864000000003,8.392608999999998,56.055169,1,1,1789167882.3241873,-0.9910556709157574,-0.11582198310847557,-0.06536201771761448,0.011033223210837793,-179.61108154165424,-7.591571513787972,13.305726449337724,0.00010419615634406147,0.0020020671849626955,8.063421144213802e-05,0.4055049841880798,-0.0879656519508362,-9.709172059135437
2026-09-11T19:04:42.370,1.0027755200000001,-365.4474792480469,-32890.27313232422,-131561.09252929688,-250.33152328491212,-0.014382324218750001,0.0,0.0,0.0,0.5390615280621993,0.0,-0.04483222961425781,-367.265625,-16.139602661132812,0.0,0.0,0.0,1,1789167882.157926,38.990337243333336,-76.93988885,-3.0700000000000003,0,1,17.572864000000003,8.392608999999998,56.055169,1,1,1789167882.3641872,-0.9913300513703123,-0.11345911912365778,-0.06534612406520487,0.011029125417386857,-179.59314076130818,-7.588755766865027,13.031361761797536,0.0009777334469672234,-0.0005279620987282846,0.001707630140151252,0.43247327213287357,-0.08727918643951416,-9.708877859630585
2026-09-11T19:04:42.403,1.0362065920000418,-365.4474792480469,-32890.27313232422,-131561.09252929688,-250.33152328491212,-0.014382324218750001,0.0,0.0,0.0,0.0,0.0,-0.04483222961425781,-367.265625,-16.139602661132812,0.0,0.0,0.0,1,1789167882.157926,38.990337243333336,-76.93988885,-3.0700000000000003,0,1,17.572864000000003,8.392608999999998,56.055169,1,1,1789167882.3961873,-0.9915524118057042,-0.11158418373689315,-0.06520965494343,0.010976588004527688,-179.58297153609143,-7.5717244858133,12.813919206495394,0.001422617873300578,0.0015610224829837285,0.00033440508468211356,0.4126638388061523,-0.0827681273651123,-9.711819854679108
2026-09-11T19:04:42.437,1.0696235839999986,-365.4474792480469,-32890.27313232422,-131561.09252929688,-250.33152328491212,-0.014382324218750001,0.0,0.0,0.0,0.0,0.0,-0.04483222961425781,-367.265625,-16.139602661132812,0.0,0.0,0.0,1,1789167882.157926,38.990337243333336,-76.93988885,-3.0700000000000003,0,1,17.572864000000003,8.392608999999998,56.055169,1,1,1789167882.4361873,-0.9918221134798421,-0.1091950666649333,-0.0651600662331291,0.01093153223084666,-179.56916640908562,-7.564471805022083,12.536917937966246,0.000593411945678072,0.0009265952998837896,-0.0003946189438759179,0.4039359201622009,-0.08286619386672973,-9.70564166507721
2026-09-11T19:04:42.470,1.1030395200000385,-365.4474792480469,-32890.27313232422,-131561.09252929688,-250.33152328491212,-0.014382324218750001,0.0,0.0,0.0,0.0,0.0,-0.04483222961425781,-367.265625,-16.139602661132812,0.0,0.0,0.0,1,1789167882.157926,38.990337243333336,-76.93988885,-3.0700000000000003,0,1,17.572864000000003,8.392608999999998,56.055169,1,1,1789167882.4641874,-0.9920006419529392,-0.10754078803517622,-0.06520122726699489,0.010886011051226734,-179.56220828889874,-7.567880272219532,12.345360195412587,0.0010520844731021818,0.0021580996200909882,-0.0006852162643329738,0.44571224985122676,-0.08551398941040039,-9.70564166507721
2026-09-11T19:04:42.504,1.1364560320000123,-365.4474792480469,-32890.27313232422,-131561.09252929688,-250.33152328491212,-0.014382324218750001,0.0,0.0,0.0,0.0,0.0,-0.04483222961425781,-367.265625,-16.139602661132812,0.0,0.0,0.0,1,1789167882.157926,38.990337243333336,-76.93988885,-3.0700000000000003,0,1,17.572864000000003,8.392608999999998,56.055169,1,1,1789167882.4961872,-0.9922164082114913,-0.10575704000004217,-0.06485418752314864,0.0107694998504673,-179.55765603801606,-7.526034484543385,12.138898257554803,0.0018605209826259553,0.001594707337547219,-0.0005633922825437696,0.4044262526702881,-0.07982613231658935,-9.712800519695282
2026-09-11T19:04:42.537,1.1698781439999948,-365.4474792480469,-32890.27313232422,-131561.09252929688,-250.33152328491212,-0.014382324218750001,0.0,0.0,0.0,0.0,0.0,-0.04483222961425781,-367.265625,-16.139602661132812,0.0,0.0,0.0,1,1789167882.157926,38.990337243333336,-76.93988885,-3.0700000000000003,0,1,17.572864000000003,8.392608999999998,56.055169,1,1,1789167882.5361872,-0.9924803395356597,-0.10345413081199856,-0.064565245213019,0.010552135504171655,-179.56158166744376,-7.4894016855147525,11.873113652751394,0.0015076154078727019,-0.0011159635237251743,-0.00123429684701039,0.4367881982040406,-0.0654103565788269,-9.7022093375206
2026-09-11T19:04:42.571,1.2032937600000082,-365.4474792480469,-32890.27313232422,-131561.09252929688,-250.33152328491212,-0.014382324218750001,0.0,0.0,0.0,0.0,0.0,-0.04483222961425781,-367.265625,-16.139602661132812,0.0,0.0,0.0,1,1789167882.157926,38.990337243333336,-76.93988885,-3.0700000000000003,0,1,17.572864000000003,8.392608999999998,56.055169,1,1,1789167882.5641873,-0.992643116135533,-0.10187595330909181,-0.06458404085527876,0.01048025729196459,-179.55807331297248,-7.490001680409245,11.690686108325995,0.0011138691286227812,0.0032766811376941543,-0.0005387831400906495,0.44041665876388547,-0.0793357998085022,-9.710348857154846
2026-09-11T19:04:42.604,1.2367026880000367,-365.4474792480469,-32890.27313232422,-131561.09252929688,-250.33152328491212,-0.014382324218750001,0.0,0.0,0.0,0.0,0.0,-0.04483222961425781,-367.265625,-16.139602661132812,0.0,0.0,0.0,1,1789167882.157926,38.990337243333336,-76.93988885,-3.0700000000000003,0,1,17.572864000000003,8.392608999999998,56.055169,1,1,1789167882.5961874,-0.992854115678209,-0.10001894911319964,-0.06423502925472958,0.010525009063027887,-179.53482833472137,-7.4497967899395565,11.474719622953799,0.00037315139407638763,0.0006911503837897546,0.0005436700619962337,0.39050080944061283,-0.08884825046539307,-9.709172059135437
2026-09-11T19:04:42.637,1.2701166080000235,-365.4474792480469,-32890.27313232422,-131561.09252929688,-250.33152328491212,-0.014382324218750001,0.0,0.0,0.0,0.0,0.0,-0.04483222961425781,-367.265625,-16.139602661132812,0.0,0.0,0.0,1,1789167882.157926,38.990337243333336,-76.93988885,-3.0700000000000003,0,1,17.572864000000003,8.392608999999998,56.055169,1,1,1789167882.6361873,-0.9930884622918809,-0.09771456389023096,-0.06416477603318879,0.010490547321292,-179.5206084857784,-7.440281621019142,11.207845856382228,0.0011693705988362008,-0.0030941196979355472,-0.0011074114103904022,0.45061557493209836,-0.07757060277938843,-9.701620938510894
2026-09-11T19:04:42.671,1.3035340480000173,-365.4474792480469,-32890.27313232422,-131561.09252929688,-250.33152328491212,-0.014382324218750001,0.0,0.0,0.0,0.0,0.0,-0.04483222961425781,-367.265625,-16.139602661132812,0.0,0.0,0.0,1,1789167882.157926,38.990337243333336,-76.93988885,-3.0700000000000003,0,1,17.572864000000003,8.392608999999998,56.055169,1,1,1789167882.6641872,-0.9932621342764871,-0.0961602074456886,-0.0638361283490124,0.0104161333482433,-179.5138046454111,-7.40113570566538,11.02798523641315,4.171336912266448e-05,-0.0031147145831090807,-0.0015210544431130584,0.3949138020133972,-0.0811990633392334,-9.709564325141907
2026-09-11T19:04:42.704,1.3369550400000207,-365.4474792480469,-32890.27313232422,-131561.09252929688,-250.33152328491212,-0.014382324218750001,0.0,0.0,0.0,0.0,0.0,-0.04483222961425781,-367.265625,-16.139602661132812,0.0,0.0,0.0,1,1789167882.157926,38.990337243333336,-76.93988885,-3.0700000000000003,0,1,17.572864000000003,8.392608999999998,56.055169,1,1,1789167882.6951873,-0.9934418146358863,-0.09430880964834208,-0.06379894334903387,0.010435716708341774,-179.49728316937697,-7.396177465665369,10.813340225393945,0.0007740535232594851,-0.004478863926467849,-0.0009065240134858548,0.4326694051361084,-0.07453054122924804,-9.702797736530304
2026-09-11T19:04:42.737,1.3703725440000198,-365.4474792480469,-32890.27313232422,-131561.09252929688,-250.33152328491212,-0.014382324218750001,0.0,0.0,0.0,0.0,0.0,-0.04483222961425781,-367.265625,-16.139602661132812,0.0,0.0,0.0,1,1789167882.157926,38.990337243333336,-76.93988885,-3.0700000000000003,0,1,17.572864000000003,8.392608999999998,56.055169,1,1,1789167882.7351873,-0.9936656203380679,-0.09200756597616011,-0.0637039125299788,0.010249599488657737,-179.5004239490143,-7.382162311148658,10.54810453476121,0.0016952383024620922,-0.001985835622919148,-0.000765152344074314,0.3995229275894165,-0.06295869403839112,-9.714957982730866
2026-09-11T19:04:42.771,1.4038006720000453,-365.4474792480469,-32890.27313232422,-131561.09252929688,-250.33152328491212,-0.014382324218750001,0.0,0.0,0.0,0.0,0.0,-0.04483222961425781,-367.265625,-16.139602661132812,0.0,0.0,0.0,1,1789167882.157926,38.990337243333336,-76.93988885,-3.0700000000000003,0,1,17.572864000000003,8.392608999999998,56.055169,1,1,1789167882.7641873,-0.9938483699155239,-0.09050607466818442,-0.06303595286102308,0.0100267996547061,-179.50784389112607,-7.302698854290783,10.37531566587965,0.0008702211650443727,9.68657734856853e-05,0.00020612338466053032,0.403053321647644,-0.06688135410308838,-9.706230064086913
2026-09-11T19:04:42.804,1.4372164160000125,-365.4474792480469,-32890.27313232422,-131561.09252929688,-250.33152328491212,-0.014382324218750001,0.0,0.0,0.0,0.0,0.0,-0.04483222961425781,-367.265625,-16.139602661132812,0.0,0.0,0.0,1,1789167882.157926,38.990337243333336,-76.93988885,-3.0700000000000003,0,1,17.572864000000003,8.392608999999998,56.055169,1,1,1789167882.7961872,-0.9940012969104175,-0.08867596065107804,-0.06322804887600846,0.010010473432826888,-179.49815795174538,-7.3235852699983095,10.16373238648093,-0.0010660471071181365,0.0008536405371504266,-0.001136383875973508,0.4358075331878662,-0.07443247472763062,-9.719272908802033
2026-09-11T19:04:42.838,1.470628959999999,-365.4474792480469,-32890.27313232422,-131561.09252929688,-250.33152328491212,-0.014382324218750001,0.0,0.0,0.0,0.0,0.0,-0.04483222961425781,-367.265625,-16.139602661132812,0.0,0.0,0.0,1,1789167882.157926,38.990337243333336,-76.93988885,-3.0700000000000003,0,1,17.572864000000003,8.392608999999998,56.055169,1,1,1789167882.8361874,-0.9942204134370471,-0.08639656363415964,-0.06291717527013913,0.010140628841555204,-179.46324114944238,-7.288141348120206,9.898732184501542,0.0013905038150638825,0.006992661648115282,-0.0005981243346584568,0.3890298119163513,-0.09375157554626466,-9.707406862106323
2026-09-11T19:04:42.871,1.5040438080000058,-365.4474792480469,-32890.27313232422,-131561.09252929688,-250.33152328491212,-0.014382324218750001,0.0,0.0,0.0,0.0,0.0,-0.04483222961425781,-367.265625,-16.139602661132812,0.0,0.0,0.0,1,1789167882.157926,38.990337243333336,-76.93988885,-3.0700000000000003,0,1,17.572864000000003,8.392608999999998,56.055169,1,1,1789167882.8641872,-0.9943661837425495,-0.08483235173982658,-0.06272662575002769,0.010234019229251464,-179.43913141486132,-7.266394990262577,9.716920160094162,-0.0008429940287132612,0.005146801431206078,-0.000290248254606657,0.4237453534889221,-0.09257477752685547,-9.697698278446198
2026-09-11T19:04:42.904,1.537458144000027,-365.4474792480469,-32890.27313232422,-131561.09252929688,-250.33152328491212,-0.014382324218750001,0.0,0.0,0.0,0.0,0.0,-0.04483222961425781,-367.265625,-16.139602661132812,0.0,0.0,0.0,1,1789167882.157926,38.990337243333336,-76.93988885,-3.0700000000000003,0,1,17.572864000000003,8.392608999999998,56.055169,1,1,1789167882.8961873,-0.9945297453468137,-0.08311724961830373,-0.06241639386286934,0.010310296477102554,-179.41481337703553,-7.230644612982339,9.517744886500335,0.00013177235852557189,0.002730393081819929,-0.0011789699097221695,0.40981991025924686,-0.09698777009963988,-9.713486985206604
2026-09-11T19:04:42.938,1.5708714240000177,-365.4474792480469,-32890.27313232422,-131561.09252929688,-250.33152328491212,-0.014382324218750001,0.0,0.0,0.0,0.0,0.0,-0.04483222961425781,-367.265625,-16.139602661132812,0.0,0.0,0.0,1,1789167882.157926,38.990337243333336,-76.93988885,-3.0700000000000003,0,1,17.572864000000003,8.392608999999998,56.055169,1,1,1789167882.9361873,-0.9947224931867021,-0.08085453352017466,-0.062302759146251635,0.010395776085994289,-179.38740419589135,-7.217081355507843,9.255338063707406,0.0011576768928478387,0.005944765965217886,0.00026354471705114377,0.4224704889678955,-0.0905153809928894,-9.713879251213074
2026-09-11T19:04:42.971,1.6042951040000162,-365.4474792480469,-32890.27313232422,-131561.09252929688,-250.33152328491212,-0.014382324218750001,0.0,0.0,0.0,0.0,0.0,-0.04483222961425781,-367.265625,-16.139602661132812,0.0,0.0,0.0,1,1789167882.157926,38.990337243333336,-76.93988885,-3.0700000000000003,0,1,17.572864000000003,8.392608999999998,56.055169,1,1,1789167882.9641874,-0.9948482379671065,-0.07922968704552033,-0.062384117907224916,0.010385660178805848,-179.37745529665614,-7.225291742955273,9.067542152659696,-0.00022165681500327985,0.0014739305533092112,-0.001939409864816099,0.41717489788055423,-0.07884546730041504,-9.70181707151413
2026-09-11T19:04:43.005,1.6377198080000426,-365.4474792480469,-32890.27313232422,-131561.09252929688,-250.33152328491212,-0.014382324218750001,0.0,0.0,0.0,0.0,0.0,-0.04483222961425781,-367.265625,-16.139602661132812,0.0,0.0,0.0,1,1789167882.157926,38.990337243333336,-76.93988885,-3.0700000000000003,0,1,17.572864000000003,8.392608999999998,56.055169,1,1,1789167882.9961872,-0.994994768971431,-0.07747537661716833,-0.06226128525564643,0.01032027595714298,-179.3710750281044,-7.209541011298403,8.865095359700529,-0.00017488199104983182,0.000244695161129605,-0.0021313960825354752,0.43247327213287357,-0.08727918643951416,-9.715154115734101
2026-09-11T19:04:43.038,1.6711363840000217,-365.4474792480469,-32890.27313232422,-131561.09252929688,-250.33152328491212,-0.014382324218750001,0.0,0.0,0.0,0.0,0.0,-0.04483222961425781,-367.265625,-16.139602661132812,0.0,0.0,0.0,1,1789167882.157926,38.990337243333336,-76.93988885,-3.0700000000000003,0,1,17.572864000000003,8.392608999999998,56.055169,1,1,1789167883.0361872,-0.9951781621184309,-0.07523978302406109,-0.06206989967334032,0.01033093643460195,-179.35192258228733,-7.1862888462970425,8.606471701917815,0.0006953391739945409,0.001944645852572082,-0.0007749261878854823,0.418940094909668,-0.08806371845245362,-9.709662391643525
2026-09-11T19:04:43.071,1.7045822080000335,-365.4474792480469,-32890.27313232422,-131561.09252929688,-250.33152328491212,-0.014382324218750001,0.0,0.0,0.0,0.0,0.0,-0.04483222961425781,-367.265625,-16.139602661132812,0.0,0.0,0.0,1,1789167882.157926,38.990337243333336,-76.93988885,-3.0700000000000003,0,1,17.572864000000003,8.392608999999998,56.055169,1,1,1789167883.0641873,-0.9953039748448617,-0.07374132970315998,-0.06185568084997446,0.010299936806360814,-179.3428057627376,-7.1605136951219235,8.433399419285575,0.0005963790054064624,-0.004470835411908675,-0.0011906636157105316,0.44041665876388547,-0.08816178495407104,-9.713192785701752
2026-09-11T19:04:43.104,1.738000512000042,-365.4474792480469,-32890.27313232422,-131561.09252929688,-250.33152328491212,-0.014382324218750001,0.0,0.0,0.0,0.0,0.0,-0.04483222961425781,-367.265625,-16.139602661132812,0.0,0.0,0.0,1,1789167882.157926,38.990337243333336,-76.93988885,-3.0700000000000003,0,1,17.572864000000003,8.392608999999998,56.055169,1,1,1789167883.0961874,-0.9954559896633921,-0.07210631927776907,-0.06136006235387905,0.01014860145129324,-179.34430063761943,-7.101418236104038,8.245334065971708,0.0007857472292478471,-0.003685437248511226,-0.0009833185005736053,0.4128599718093872,-0.07708027027130128,-9.709270125637055
2026-09-11T19:04:43.138,1.7714164160000223,-365.4474792480469,-32890.27313232422,-131561.09252929688,-250.33152328491212,-0.014382324218750001,0.0,0.0,0.0,0.0,0.0,-0.04483222961425781,-367.265625,-16.139602661132812,0.0,0.0,0.0,1,1789167882.157926,38.990337243333336,-76.93988885,-3.0700000000000003,0,1,17.572864000000003,8.392608999999998,56.055169,1,1,1789167883.1351874,-0.9956270955620181,-0.06998373518961012,-0.06106762442303095,0.009985421322021036,-179.34550946899148,-7.065203490153517,8.00113685683329,-4.031710572106901e-05,-0.004052130924355235,-0.001905899543177808,0.4233530874824524,-0.07011754865646362,-9.706720396595001
2026-09-11T19:04:43.172,1.8048448640000174,-365.4474792480469,-32890.27313232422,-131561.09252929688,-250.33152328491212,-0.014382324218750001,0.0,0.0,0.0,0.0,0.0,-0.04483222961425781,-367.265625,-16.139602661132812,0.0,0.0,0.0,1,1789167883.155508,38.990337561666664,-76.939888325,-3.1020000000000003,0,1,17.572864000000003,8.392608999999998,56.055169,1,1,1789167883.1641872,-0.9957218240505601,-0.06830944504603234,-0.061411296202324335,0.01002604237368292,-179.331577704537,-7.1037764488311765,7.807529311396849,0.0004927064478379993,-0.0057168259649074266,-0.00041957715217943683,0.4301196760940552,-0.07874740079879762,-9.70603393108368
2026-09-11T19:04:43.205,1.8382731519999993,-365.4474792480469,-32890.27313232422,-131561.09252929688,-250.33152328491212,-0.014382324218750001,0.0,0.0,0.0,0.0,0.0,-0.04483222961425781,-367.265625,-16.139602661132812,0.0,0.0,0.0,1,1789167883.155508,38.990337561666664,-76.939888325,-3.1020000000000003,0,1,17.572864000000003,8.392608999999998,56.055169,1,1,1789167883.1961873,-0.9958737885323726,-0.06664229951265165,-0.06080094399089531,0.00987149632330516,-179.33275924580417,-7.031548816426859,7.615875191998122,0.0017083282718520496,-0.00010210176124166828,0.0007927285462558246,0.3736333711624146,-0.07001948215484619,-9.705445532073975
2026-09-11T19:04:43.239,1.8716903360000288,-365.4474792480469,-32890.27313232422,-131561.09252929688,-250.33152328491212,-0.014382324218750001,0.0,0.0,0.0,0.0,0.0,-0.04483222961425781,-367.265625,-16.139602661132812,0.0,0.0,0.0,1,1789167883.155508,38.990337561666664,-76.939888325,-3.1020000000000003,0,1,17.572864000000003,8.392608999999998,56.055169,1,1,1789167883.2361872,-0.9960298647836245,-0.0644636855410605,-0.06062327665891636,0.00968297643879407,-179.33767841798488,-7.008326792939459,7.365551128462699,-0.0008749335540247574,0.00039112828537192924,-0.001252448271231131,0.4367881982040406,-0.06511615707397461,-9.720743906326295
2026-09-11T19:04:43.272,1.905103648000022,-365.4474792480469,-32890.27313232422,-131561.09252929688,-250.33152328491212,-0.014382324218750001,0.0,0.0,0.0,0.0,0.0,-0.04483222961425781,-367.265625,-16.139602661132812,0.0,0.0,0.0,1,1789167883.155508,38.990337561666664,-76.939888325,-3.1020000000000003,0,1,17.572864000000003,8.392608999999998,56.055169,1,1,1789167883.2641873,-0.9961360711252012,-0.06294143098814237,-0.06049475942972299,0.00957539293987324,-179.33836763070374,-6.991806344012391,7.19050075320886,0.0018095573684677208,0.003281393526674539,0.002108008670558751,0.3942273365020752,-0.060212831993103025,-9.719174842300415
2026-09-11T19:04:43.305,1.938520704000041,-365.4474792480469,-32890.27313232422,-131561.09252929688,-250.33152328491212,-0.014382324218750001,0.0,0.0,0.0,0.0,0.0,-0.04483222961425781,-367.265625,-16.139602661132812,0.0,0.0,0.0,1,1789167883.155508,38.990337561666664,-76.939888325,-3.1020000000000003,0,1,17.572864000000003,8.392608999999998,56.055169,1,1,1789167883.2961872,-0.996259954949991,-0.06120696635656028,-0.060273564001248975,0.009322387840902242,-179.35369417643636,-6.963525656703451,6.99197082890555,0.0019247490990993467,0.007587818923045348,0.0034798374626262944,0.40217072313308716,-0.04265892820358276,-9.690539423828126
2026-09-11T19:04:43.339,1.971935168000016,-365.4474792480469,-32890.27313232422,-131561.09252929688,-250.33152328491212,-0.014382324218750001,0.0,0.0,0.0,0.0,0.0,-0.04483222961425781,-367.265625,-16.139602661132812,0.0,0.0,0.0,1,1789167883.155508,38.990337561666664,-76.939888325,-3.1020000000000003,0,1,17.572864000000003,8.392608999999998,56.055169,1,1,1789167883.3361874,-0.9963675859995393,-0.05896579173135325,-0.06073392523731595,0.009276815197767175,-179.34628780073683,-7.014507653799989,6.7336487536689855,-0.000148352986419518,0.003150842898625363,-0.0011068878116148038,0.4540479024887085,-0.06992141565322876,-9.711035322666168
2026-09-11T19:04:43.372,2.0053655359999993,-365.4474792480469,-32890.27313232422,-131561.09252929688,-250.33152328491212,-0.014382324218750001,0.0,0.0,0.0,0.0,0.0,-0.04483222961425781,-367.265625,-16.139602661132812,0.0,0.0,0.0,1,1789167883.155508,38.990337561666664,-76.939888325,-3.1020000000000003,0,1,17.572864000000003,8.392608999999998,56.055169,1,1,1789167883.3641872,-0.9964514729492451,-0.05748544599090053,-0.06077562477866806,0.009284879604488268,-179.3351603947993,-7.018361240370752,6.562715465980711,0.0016631242442253966,0.01011418301530714,0.0004944517770899936,0.42560861701965336,-0.07070594766616821,-9.688283894290924
2026-09-11T19:04:43.406,2.038790208000023,-365.4474792480469,-32890.27313232422,-131561.09252929688,-250.33152328491212,-0.014382324218750001,0.0,0.0,0.0,0.0,0.0,-0.04483222961425781,-367.265625,-16.139602661132812,0.0,0.0,0.0,1,1789167883.155508,38.990337561666664,-76.939888325,-3.1020000000000003,0,1,17.572864000000003,8.392608999999998,56.055169,1,1,1789167883.3961873,-0.9965765402614214,-0.055736057869176805,-0.06037707391175419,0.00912689430387675,-179.33843228132218,-6.97049146600308,6.3618599306003984,0.0006239552075879728,0.006172705965528345,0.003616322210132251,0.38746074789047247,-0.05089651433944702,-9.695835014915467
2026-09-11T19:04:43.439,2.0722064000000273,-365.4474792480469,-32890.27313232422,-131561.09252929688,-250.33152328491212,-0.014382324218750001,0.0,0.0,0.0,0.0,0.0,-0.04483222961425781,-367.265625,-16.139602661132812,0.0,0.0,0.0,1,1789167883.155508,38.990337561666664,-76.939888325,-3.1020000000000003,0,1,17.572864000000003,8.392608999999998,56.055169,1,1,1789167883.4361873,-0.9966696714087182,-0.05363177675490603,-0.06071544867471117,0.009318417697118643,-179.30366526438598,-7.00904436157393,6.117697896165705,0.0005410520681182421,0.00028152160834668533,-9.424777960769379e-06,0.4787606608963013,-0.10748088577270506,-9.721822637844085
2026-09-11T19:04:43.472,2.105622944000004,-365.4474792480469,-32890.27313232422,-131561.09252929688,-250.33152328491212,-0.014382324218750001,0.0,0.0,0.0,0.0,0.0,-0.04483222961425781,-367.265625,-16.139602661132812,0.0,0.0,0.0,1,1789167883.155508,38.990337561666664,-76.939888325,-3.1020000000000003,0,1,17.572864000000003,8.392608999999998,56.055169,1,1,1789167883.4641874,-0.9967816739408197,-0.05230027614568359,-0.06003454186311552,0.009318229129413182,-179.29023994575613,-6.930041862868612,5.96403559854633,0.002522349834982205,0.0014679964338524306,-0.00017261306302223918,0.39040274293899535,-0.06825428512573242,-9.696031147918701
2026-09-11T19:04:43.506,2.1390459840000062,-365.4474792480469,-32890.27313232422,-131561.09252929688,-250.33152328491212,-0.014382324218750001,0.0,0.0,0.0,0.0,0.0,-0.044647216796875,-365.75,-16.072998046875,0.0,0.0,0.0,1,1789167883.155508,38.990337561666664,-76.939888325,-3.1020000000000003,0,1,17.572864000000003,8.392608999999998,56.055169,1,1,1789167883.4961872,-0.9969008453421853,-0.05071301325208378,-0.05945675816561608,0.0090437133615355,-179.3074221334406,-6.861068690838514,5.7828110373043895,0.001413716694115407,0.003988251873732242,-4.537856055185257e-06,0.39236407297134396,-0.05874183446884155,-9.67739851261139
2026-09-11T19:04:43.539,2.1724612480000474,-365.4474792480469,-32890.27313232422,-131561.09252929688,-250.33152328491212,-0.014382324218750001,0.0,0.0,0.0,0.0,0.0,-0.044647216796875,-365.75,-16.072998046875,0.0,0.0,0.0,1,1789167883.155508,38.990337561666664,-76.939888325,-3.1020000000000003,0,1,17.572864000000003,8.392608999999998,56.055169,1,1,1789167883.5361872,-0.9969935748435715,-0.04874529148199767,-0.05950186123601483,0.009340063619738792,-179.25996231117657,-6.866508496316923,5.553786974668673,0.002028945255443408,-0.007220950714276139,-0.0022160445512572004,0.46718881370544435,-0.10346015920639039,-9.663080803375244
2026-09-11T19:04:43.573,2.2058868160000316,-365.4474792480469,-32890.27313232422,-131561.09252929688,-250.33152328491212,-0.014382324218750001,0.0,0.0,0.0,0.0,0.0,-0.044647216796875,-365.75,-16.072998046875,0.0,0.0,0.0,1,1789167883.155508,38.990337561666664,-76.939888325,-3.1020000000000003,0,1,17.572864000000003,8.392608999999998,56.055169,1,1,1789167883.5641873,-0.9970998298299186,-0.047360821548015006,-0.05886633534512061,0.009145299255922945,-179.2693953185163,-6.7915476652054165,5.395495632660159,0.0017667968017938598,-0.002107136005932754,0.0008964011038242877,0.39510993501663205,-0.046385455265045165,-9.734277083549498
2026-09-11T19:04:43.606,2.2393026560000067,-365.4474792480469,-32890.27313232422,-131561.09252929688,-250.33152328491212,-0.014382324218750001,0.0,0.0,0.0,0.0,0.0,-0.04405021667480469,-360.859375,-15.858078002929688,0.03051757998764515,10.986328795552254,328.7760773202301,1,1789167883.155508,38.990337561666664,-76.939888325,-3.1020000000000003,0,1,17.572864000000003,8.392608999999998,56.055169,1,1,1789167883.5961874,-0.9971959812500054,-0.04564591168011939,-0.0586265966816894,0.00891896222954862,-179.28247312587396,-6.76161105718359,5.199297047815309,-4.747295565424577e-05,-0.0025771531734948274,0.001441118363371718,0.38167482429504396,-0.05413270889282226,-9.728098893947601
2026-09-11T19:04:43.640,2.2727220160000456,-365.4474792480469,-32890.27313232422,-131561.09252929688,-250.33152328491212,-0.014382324218750001,0.0,0.0,0.0,0.0,0.0,-0.043487548828125,-356.25,-15.655517578125,0.015258789993822575,5.493164397776127,-164.37072396867325,1,1789167883.155508,38.990337561666664,-76.939888325,-3.1020000000000003,0,1,17.572864000000003,8.392608999999998,56.055169,1,1,1789167883.6351874,-0.9972794025529488,-0.043579907765178755,-0.058782309985290826,0.00890083791590807,-179.2712537656494,-6.777877744595897,4.961174321798129,0.002183406894244906,-0.003953694354542755,0.0016364207066698834,0.47660319786071775,-0.05452497489929199,-9.717605778274537
2026-09-11T19:04:43.673,2.306137760000013,-365.4474792480469,-32890.27313232422,-131561.09252929688,-250.33152328491212,-0.014382324218750001,0.0,0.0,0.0,0.0,0.0,-0.04239845275878906,-347.328125,-15.263442993164062,0.0305175818502903,10.986329466104507,164.38853099705872,1,1789167883.155508,38.990337561666664,-76.939888325,-3.1020000000000003,0,1,17.572864000000003,8.392608999999998,56.055169,1,1,1789167883.6631873,-0.9973535239127739,-0.04210111445386154,-0.05864580083692105,0.008608980468730152,-179.29410219842197,-6.759732793613435,4.7926741799705175,-9.442231253289323e-05,-0.004393168260194927,0.0020729275525936653,0.38549941785812375,-0.022359162368774412,-9.69681567993164
2026-09-11T19:04:43.707,2.3395640960000037,-365.4474792480469,-32890.27313232422,-131561.09252929688,-250.33152328491212,-0.014382324218750001,0.0,0.0,0.0,0.0,0.0,-0.04080772399902344,-334.296875,-14.690780639648438,0.0457763709127903,16.479493528604507,164.3364101438308,1,1789167883.155508,38.990337561666664,-76.939888325,-3.1020000000000003,0,1,17.572864000000003,8.392608999999998,56.055169,1,1,1789167883.703162,-0.9974724525755582,-0.03999998247510381,-0.058118762199755494,0.008421237157357495,-179.29903293355153,-6.696924575471261,4.551801341799509,0.0022418754241867165,-0.008024849367744728,0.003878819729632198,0.415311634349823,-0.060212831993103025,-9.69269688686371
2026-09-11T19:04:43.740,2.372980767999991,-365.4474792480469,-32890.27313232422,-131561.09252929688,-250.33152328491212,-0.014382324218750001,0.0,0.0,0.0,0.0,0.0,-0.038616180419921875,-316.34375,-13.901824951171875,0.0762939527630806,27.465822994709015,328.7679116013931,1,1789167883.155508,38.990337561666664,-76.939888325,-3.1020000000000003,0,1,17.572864000000003,8.392608999999998,56.055169,1,1,1789167883.735162,-0.9975537811714089,-0.03832174965394729,-0.057871010748894364,0.00829718560636525,-179.30092593558982,-6.666776408179191,4.35923639194064,0.0019500563732532644,-0.015279659469509557,0.0026204373389442865,0.4561072990226746,-0.0483467852973938,-9.70181707151413
2026-09-11T19:04:43.773,2.4063950720000093,-365.4474792480469,-32890.27313232422,-131561.09252929688,-250.33152328491212,-0.014382324218750001,0.0,0.0,0.0,0.0,0.0,-0.03647422790527344,-298.796875,-13.130722045898438,0.0457763746380806,16.479494869709015,-328.79117054163095,1,1789167883.155508,38.990337561666664,-76.939888325,-3.1020000000000003,0,1,17.572864000000003,8.392608999999998,56.055169,1,1,1789167883.763162,-0.9975932745848894,-0.036846177453021316,-0.058149794596417254,0.008283664556955924,-179.29373238000343,-6.697657435770431,4.189196612801265,-0.00040945424251786973,-0.020872043458749788,0.0021989403245876557,0.47493606733322147,-0.056192105426788326,-9.716625113258361
2026-09-11T19:04:43.807,2.439810752000028,-365.4474792480469,-32890.27313232422,-131561.09252929688,-250.33152328491212,-0.014382324218750001,0.0,0.0,0.0,0.0,0.0,-0.035247802734375,-288.75,-12.689208984375,0.015258789993822575,5.493164397776127,-328.7777017234645,1,1789167883.155508,38.990337561666664,-76.939888325,-3.1020000000000003,0,1,17.572864000000003,8.392608999999998,56.055169,1,1,1789167883.795162,-0.9976928409889746,-0.03526119926256796,-0.05743242023760042,0.008195118764594939,-179.29039819709385,-6.613878563524897,4.0072925840207665,0.000244695161129605,-0.019038051480754145,-0.0009072221451866525,0.3867742823791504,-0.058839900970458985,-9.716919312763213
2026-09-11T19:04:43.841,2.473225216000003,-365.4474792480469,-32890.27313232422,-131561.09252929688,-250.33152328491212,-0.014382324218750001,0.0,0.0,0.0,0.0,0.0,-0.033935546875,-278.0,-12.216796875,0.0610351599752903,21.972657591104507,493.1844243660691,1,1789167883.155508,38.990337561666664,-76.939888325,-3.1020000000000003,0,1,17.572864000000003,8.392608999999998,56.055169,1,1,1789167883.835162,-0.9976182438519753,-0.034696594919556824,-0.058975417330929515,0.008711256243027926,-179.23321885631017,-6.792524117949188,3.938317783732846,0.0006120869686744113,0.008672715586085024,0.027725776898406322,6.060215600452423,-1.305265136528015,-10.271681512413025
2026-09-11T19:04:43.873,2.506638176000024,-365.4474792480469,-32890.27313232422,-131561.09252929688,-250.33152328491212,-0.014382324218750001,0.0,0.0,0.0,0.0,0.0,-0.033660888671875,-275.75,-12.117919921875,0.0,0.0,-657.608831755423,1,1789167883.155508,38.990337561666664,-76.939888325,-3.1020000000000003,0,1,17.572864000000003,8.392608999999998,56.055169,1,1,1789167883.863162,-0.997691835212947,-0.03401019732652995,-0.05815004425327483,0.00853702410529517,-179.24544459203253,-6.6966311248615416,3.860639396845239,0.004259999638267759,0.002828829651632409,-0.04178580028662224,-1.337725148563385,-0.10179302867889405,-10.048580221233367
2026-09-11T19:04:43.907,2.5400536960000295,-365.4481506347656,-32890.333557128906,-131561.33422851562,-250.33198318481448,-0.01484222412109375,-0.02583135850727558,-0.017694480577483775,-0.03958142577282515,-0.5295288110878082,0.0,-0.03379058837890625,-276.8125,-12.16461181640625,-0.0762939527630806,-27.465822994709015,-821.9480946190428,1,1789167883.155508,38.990337561666664,-76.939888325,-3.1020000000000003,0,1,17.572864000000003,8.392608999999998,56.055169,1,1,1789167883.903162,-0.997750329407166,-0.03244336612833926,-0.058083233075850726,0.008249011917235288,-179.26779705437195,-6.686711009223907,3.6820309802058233,0.0038718384126242207,0.015607781368884492,0.017351714357477226,0.45561696651458744,-0.09208444501876832,-9.87431604785919
2026-09-11T19:04:43.940,2.5734660480000002,-365.4490051269531,-32890.41046142578,-131561.64184570312,-250.3325685119629,-0.015427551269531251,-0.02583135850727558,-0.017694480577483775,-0.03958142577282515,0.0,0.0,-0.0342254638671875,-280.375,-12.3211669921875,-0.015258795581758022,-5.493166409432888,657.6207680709032,1,1789167883.155508,38.990337561666664,-76.939888325,-3.1020000000000003,0,1,17.572864000000003,8.392608999999998,56.055169,1,1,1789167883.935162,-0.9978038784919987,-0.031496959178565556,-0.05762945580749173,0.008614374739975164,-179.21777077567273,-6.635259359488334,3.570683562783646,-0.0010922270458980513,0.01672636288648766,-0.0015323990832510214,0.18867994911193847,-0.16063292964935302,-9.64797856212616
2026-09-11T19:04:43.974,2.6068829760000085,-365.4498596191406,-32890.487365722656,-131561.94946289062,-250.33315383911136,-0.01601287841796875,-0.02583135850727558,-0.017694480577483775,-0.03958142577282515,0.0,0.0,-0.033649444580078125,-275.65625,-12.113800048828125,0.0610351637005806,21.972658932209015,821.9135326154186,1,1789167883.155508,38.990337561666664,-76.939888325,-3.1020000000000003,0,1,17.572864000000003,8.392608999999998,56.055169,1,1,1789167883.963162,-0.9978604965087972,-0.031024316653537193,-0.056786222599089775,0.009340567773136629,-179.12811352511923,-6.540703350264221,3.511779061517536,0.004947310297703126,0.020980602938223833,-0.023045327443333128,1.2755509865379333,-0.42403955299377444,-10.083393829307555
2026-09-11T19:04:44.008,2.640302399999996,-365.45074462890625,-32890.56701660156,-131562.26806640625,-250.3337600708008,-0.016619110107421876,-0.02583135850727558,-0.017694480577483775,-0.03958142577282515,0.0,0.0,-0.033172607421875,-271.75,-11.942138671875,0.0,0.0,-657.4816768899811,1,1789167883.155508,38.990337561666664,-76.939888325,-3.1020000000000003,0,1,17.572864000000003,8.392608999999998,56.055169,1,1,1789167884.003162,-0.9978693060674472,-0.029729607578548527,-0.056990856648823536,0.01118215990451458,-178.9082698264198,-6.569234636780627,3.350370175060372,0.004143935243010137,-0.00892299580082101,-0.012311552543568001,-0.13886216629028322,-0.32342332233428955,-9.963556564331055
2026-09-11T19:04:44.041,2.6737173760000132,-365.45159912109375,-32890.64392089844,-131562.57568359375,-250.33434539794925,-0.017204437255859375,-0.02583135850727558,-0.017694480577483775,-0.03958142577282515,0.0,0.0,-0.03323554992675781,-272.265625,-11.964797973632812,0.0,0.0,0.0,1,1789167883.155508,38.990337561666664,-76.939888325,-3.1020000000000003,0,1,17.572864000000003,8.392608999999998,56.055169,1,1,1789167884.035162,-0.9979024023636913,-0.028430408334679524,-0.05675227402077872,0.01271560585136223,-178.72241515443935,-6.5453432974799854,3.1907933066552014,0.002128079956956686,0.002309768732089296,0.007697076534220193,0.5108284069252014,-0.3735353046607971,-9.62199093919754
2026-09-11T19:04:44.074,2.7071307840000145,-365.45245361328125,-32890.72082519531,-131562.88330078125,-250.33493072509768,-0.017789764404296877,-0.02583135850727558,-0.017694480577483775,-0.03958142577282515,0.0,0.0,-0.03323554992675781,-272.265625,-11.964797973632812,0.0,0.0,0.0,1,1789167883.155508,38.990337561666664,-76.939888325,-3.1020000000000003,0,1,17.572864000000003,8.392608999999998,56.055169,1,1,1789167884.0631618,-0.9979413542977976,-0.027307792418057666,-0.05645031008039685,0.013442482931245255,-178.63045847676347,-6.511484586104447,3.0570058811654977,0.00022532200643246794,-0.008238652201114034,-0.007435102613495843,0.41295803831100464,-0.2104507124710083,-9.696227280921935
2026-09-11T19:04:44.108,2.740547584000012,-365.44378662109375,-32889.94079589844,-131559.76318359375,-250.32899383544924,-0.011852874755859376,0.20665086805820465,0.1415558446198702,0.3166514061826012,4.7655767517346055,0.0,-0.032928466796875,-269.75,-11.854248046875,0.0,0.0,0.0,1,1789167883.155508,38.990337561666664,-76.939888325,-3.1020000000000003,0,1,17.572864000000003,8.392608999999998,56.055169,1,1,1789167884.103162,-0.9980505980793345,-0.02524953776123532,-0.05532968366816411,0.014003236108403355,-178.54942304999804,-6.381658285782421,2.8175457841324056,-0.0006921975813409512,-0.026246959423191527,0.0015789993742792699,0.43904372774124145,-0.1655362547302246,-9.713094719200134
2026-09-11T19:04:44.142,2.7739659200000233,-365.4368896484375,-32889.320068359375,-131557.2802734375,-250.32426940917972,-0.007128448486328125,0.20665086805820465,0.1415558446198702,0.3166514061826012,0.0,0.0,-0.032928466796875,-269.75,-11.854248046875,0.0,0.0,0.0,1,1789167883.155508,38.990337561666664,-76.939888325,-3.1020000000000003,0,1,17.572864000000003,8.392608999999998,56.055169,1,1,1789167884.1351619,-0.9981082481286369,-0.023542450347552167,-0.055207246838799254,0.013335589439399626,-178.61501416755596,-6.363366664036588,2.625385853883374,0.0004199262180298357,-0.020545317822776448,0.004040088152516474,0.31342053916931156,-0.07747253627777101,-9.740749472656251
2026-09-11T19:04:44.175,2.807383264000009,-365.4299621582031,-32888.69659423828,-131554.78637695312,-250.31952407836917,-0.00238311767578125,0.20665086805820465,0.1415558446198702,0.3166514061826012,0.0,0.0,-0.032928466796875,-269.75,-11.854248046875,0.0,0.0,0.0,1,1789167883.155508,38.990337561666664,-76.939888325,-3.1020000000000003,0,1,17.572864000000003,8.392608999999998,56.055169,1,1,1789167884.163162,-0.99815531083551,-0.022223943452577395,-0.055136550933063806,0.012330147585846185,-178.7221430747778,-6.350926284420207,2.480064076689949,0.0014248868013281707,-0.015588233681262156,-0.000359188760060433,0.44247605529785156,-0.021966896362304686,-9.701326739006042
2026-09-11T19:04:44.209,2.8408042560000126,-365.4272155761719,-32888.44940185547,-131553.79760742188,-250.31764266967775,-0.000501708984375,0.07513560354709625,0.05146788842976094,0.11513038750393897,-2.695550036040219,0.0,-0.03316688537597656,-271.703125,-11.940078735351562,0.0305175818502903,10.986329466104507,328.72541503565674,1,1789167884.2021575,38.990337931666666,-76.93988779333333,-3.1220000000000034,0,1,17.572864000000003,8.392608999999998,56.040195999999995,1,1,1789167884.203162,-0.9982734737665272,-0.021354769842209118,-0.0536636910994669,0.01068894927846731,-178.90212998165998,-6.17690372967312,2.3916964133338583,-0.026574732256716062,-0.09071872386016126,-0.0016975072304896849,-2.2277767172431946,0.628410142364502,-7.730190056495666
2026-09-11T19:04:44.241,2.874220831999992,-365.4270935058594,-32888.438415527344,-131553.75366210938,-250.31755905151368,-0.00041809082031250003,0.022529492154717445,0.01543270212598145,0.034521971470073,-1.0783626157210708,0.0,-0.024158477783203125,-197.90625,-8.697052001953125,0.4119873344898224,148.31544041633606,4109.6104804489005,1,1789167884.2021575,38.990337931666666,-76.93988779333333,-3.1220000000000034,0,1,17.572864000000003,8.392608999999998,56.040195999999995,1,1,1789167884.235162,-0.9983011120821274,-0.020720812340551915,-0.05322898463023419,0.011498380180254167,-178.80408931702596,-6.128209573298275,2.314110347003087,0.01166211552890091,-0.05613275580386603,0.03375588946404673,1.5055169328308105,0.0461893222618103,-15.274838291931154
2026-09-11T19:04:44.275,2.9076406080000083,-365.4275207519531,-32888.47686767578,-131553.90747070312,-250.3178517150879,-0.0007107543945312501,0.0,0.0,0.0,-0.4617835297870879,0.0,-0.008756637573242188,-71.734375,-3.1523895263671875,0.13732916116714478,49.43849802017212,-2958.63570109252,1,1789167884.2021575,38.990337931666666,-76.93988779333333,-3.1220000000000034,0,1,17.572864000000003,8.392608999999998,56.040195999999995,1,1,1789167884.263162,-0.9982182971324488,-0.019933681975583147,-0.05491293819869401,0.012142850212231262,-178.72860980726514,-6.3219046613855845,2.2177892045505074,0.02584919888666202,-0.06240669086601004,-0.0008091346412245711,0.9950807919120789,-0.09247671102523802,-8.546593682460784
2026-09-11T19:04:44.309,2.941054816000019,-365.4275207519531,-32888.47686767578,-131553.90747070312,-250.3178517150879,-0.0007107543945312501,0.0,0.0,0.0,0.0,0.0,-0.009187698364257812,-75.265625,-3.3075714111328125,0.0,0.0,-1479.5651604298516,1,1789167884.2021575,38.990337931666666,-76.93988779333333,-3.1220000000000034,0,1,17.572864000000003,8.392608999999998,56.040195999999995,1,1,1789167884.3031619,-0.9984191511937621,-0.019728462666303143,-0.051881891976768534,0.008846218133342056,-179.1002798946126,-5.966605454992801,2.2171097972085927,0.012521166586732519,-0.07227286259460879,0.023597200552813734,0.23261374183654787,1.4204932759284974,-8.896102694225311
2026-09-11T19:04:44.342,2.97462073600002,-365.4275207519531,-32888.47686767578,-131553.90747070312,-250.3178517150879,-0.0007107543945312501,0.0,0.0,0.0,0.0,0.0,-0.009187698364257812,-75.265625,-3.3075714111328125,0.0,0.0,0.0,1,1789167884.2021575,38.990337931666666,-76.93988779333333,-3.1220000000000034,0,1,17.572864000000003,8.392608999999998,56.040195999999995,1,1,1789167884.335162,-0.9984994816679138,-0.019263759927198237,-0.05092253895967192,0.005881129846838231,-179.43655001097397,-5.849676718992709,2.181719101084975,-0.010319608268266871,-0.06522976093111087,-0.011254930214410633,0.11248227735519409,0.4715037397766113,-9.913052315998078
2026-09-11T19:04:44.375,3.008038720000002,-365.4275207519531,-32888.47686767578,-131553.90747070312,-250.3178517150879,-0.0007107543945312501,0.0,0.0,0.0,0.0,0.0,-0.009187698364257812,-75.265625,-3.3075714111328125,0.0,0.0,0.0,1,1789167884.2021575,38.990337931666666,-76.93988779333333,-3.1220000000000034,0,1,17.572864000000003,8.392608999999998,56.040195999999995,1,1,1789167884.363162,-0.9985342292439839,-0.018130023940332998,-0.05078630813352965,0.0046310005627080075,-179.57340420023297,-5.830832388798073,2.0586432117199664,0.0011379546723003027,-0.030964235325481797,-0.002647664475275398,0.46042222509384156,0.14356935836791992,-10.018964137744904
2026-09-11T19:04:44.409,3.041454368000018,-365.4275207519531,-32888.47686767578,-131553.90747070312,-250.3178517150879,-0.0007107543945312501,0.0,0.0,0.0,0.0,0.0,-0.009073257446289062,-74.328125,-3.2663726806640625,0.0457763709127903,16.479493528604507,493.1669596410815,1,1789167884.2021575,38.990337931666666,-76.93988779333333,-3.1220000000000034,0,1,17.572864000000003,8.392608999999998,56.040195999999995,1,1,1789167884.403162,-0.998576751189399,-0.017343325562623853,-0.05042337361093552,0.001079090425224562,-179.97661371187567,-5.781821822303871,1.9888502494950198,0.0020820032647040354,0.007572110959777399,0.004179539959750821,0.09875296712875367,0.6303714723968507,-9.714075384216308
2026-09-11T19:04:44.442,3.074874080000029,-365.4275207519531,-32888.47686767578,-131553.90747070312,-250.3178517150879,-0.0007107543945312501,0.0,0.0,0.0,0.0,0.0,-0.008380889892578125,-68.65625,-3.017120361328125,0.1373291164636612,49.43848192691803,986.2140163955457,1,1789167884.2021575,38.990337931666666,-76.93988779333333,-3.1220000000000034,0,1,17.572864000000003,8.392608999999998,56.040195999999995,1,1,1789167884.435162,-0.9986750546037247,-0.016254053426865814,-0.04882484898233487,0.00027419207837351566,179.94015308997092,-5.596910263635571,1.8678091400009487,-0.010143679079665844,0.009628806950327517,0.0020448277516365563,-0.28527545320510866,0.0037265270614624028,-9.649351493148803
2026-09-11T19:04:44.476,3.1082984000000238,-365.46807861328125,-32892.12707519531,-131568.50830078125,-250.34563385009767,-0.028492889404296878,-0.6694439649581909,-0.4585691159963608,-1.0257898979875633,-13.719624393149497,0.0,-0.00313568115234375,-25.6875,-1.12884521484375,0.030517593026161194,10.98633348941803,-1150.4242550785232,1,1789167884.2021575,38.990337931666666,-76.93988779333333,-3.1220000000000034,0,1,17.572864000000003,8.392608999999998,56.040195999999995,1,1,1789167884.463162,-0.9986644440094242,-0.015060684561558055,-0.04937445756200754,0.0021603222774366428,-179.8371928350753,-5.663285123418061,1.7199516178995933,-0.00019041542139258135,0.0021844540917961026,0.007853458035198884,0.5996766573905945,-0.2612491603088379,-9.994741711845398
2026-09-11T19:04:44.510,3.1417275200000176,-365.46783447265625,-32892.10510253906,-131568.42041015625,-250.34546661376956,-0.028325653076171877,-0.1224258542060852,-0.08386171013116837,-0.18759330290615667,11.2090119591919,0.0,-0.001461029052734375,-11.96875,-0.525970458984375,0.045776382088661194,16.47949755191803,164.3227240950706,1,1789167884.2021575,38.990337931666666,-76.93988779333333,-3.1220000000000034,0,1,17.572864000000003,8.392608999999998,56.040195999999995,1,1,1789167884.503162,-0.9986243544765188,-0.013557309261252691,-0.050517561939270025,0.003684283873814904,-179.655109109569,-5.79652937817352,1.5381367233488945,0.0038805650588841925,0.004825137250063523,-0.004025427386799722,0.12542705556869507,-0.11581653841018676,-9.657098746776581
2026-09-11T19:04:44.543,3.175146496000025,-365.4678955078125,-32892.110595703125,-131568.4423828125,-250.3455084228516,-0.028367462158203127,-0.01823192648589611,-0.012488869642838837,-0.027936805750802665,2.135698008470222,0.0,-0.000362396240234375,-2.96875,-0.130462646484375,0.015258789993822575,5.493164397776127,-328.74535575654784,1,1789167884.2021575,38.990337931666666,-76.93988779333333,-3.1220000000000034,0,1,17.572864000000003,8.392608999999998,56.040195999999995,1,1,1789167884.535162,-0.9986480811271348,-0.012449196891660306,-0.05012815011165658,0.005847745225956979,-179.39927692535946,-5.754508946247428,1.3982376021270086,-0.0003595378259108319,0.00759322944372653,-0.0042193334666962914,0.3738295041656494,-0.4865079145240784,-9.718586443290711
2026-09-11T19:04:44.576,3.2085673600000177,-365.4678039550781,-32892.10235595703,-131568.40942382812,-250.34544570922853,-0.028304748535156254,0.0,0.0,0.0,0.3736848228352653,0.0,-0.000335693359375,-2.75,-0.120849609375,0.0,0.0,-164.36332698572053,1,1789167884.2021575,38.990337931666666,-76.93988779333333,-3.1220000000000034,0,1,17.572864000000003,8.392608999999998,56.040195999999995,1,1,1789167884.5631618,-0.9986125455500243,-0.011843465623289418,-0.050628244817835386,0.008336487197597383,-179.11013068086365,-5.814810740195235,1.3137880398342359,0.0023972097276142115,0.014443297691953875,-0.013258393662774925,0.23761513341903687,-0.7055884791374206,-9.647782429122925
2026-09-11T19:04:44.609,3.241981887999998,-365.4689636230469,-32892.20672607422,-131568.82690429688,-250.34624008178713,-0.029099121093750003,-0.026048483327031136,-0.01784321107901633,-0.03991412642943878,-0.5339956045174986,0.0,3.0517585400957614e-05,0.2500000596046448,0.010986330744344741,0.015258789993822575,5.493164397776127,164.3944932509409,1,1789167884.2021575,38.990337931666666,-76.93988779333333,-3.1220000000000034,0,1,17.572864000000003,8.392608999999998,56.040195999999995,1,1,1789167884.603162,-0.9986307353193807,-0.010491209637369572,-0.05022929324838345,0.010178757074683804,-178.8898899229986,-5.769956349670667,1.1478624710786396,0.00949249673574676,0.006020862320604839,-0.0015695745963185005,0.3893240114212036,-0.11581653841018676,-9.462534807567597
2026-09-11T19:04:44.642,3.2753969280000206,-365.4698486328125,-32892.286376953125,-131569.1455078125,-250.3468463134766,-0.029705352783203128,-0.026048483327031136,-0.01784321107901633,-0.03991412642943878,0.0,0.0,0.0010852814884856343,8.890625953674316,0.39070133585482836,0.1220703199505806,43.945315182209015,1150.7438202799362,1,1789167884.2021575,38.990337931666666,-76.93988779333333,-3.1220000000000034,0,1,17.572864000000003,8.392608999999998,56.040195999999995,1,1,1789167884.6351619,-0.9987070109010764,-0.009182172409903768,-0.049155861739493815,0.00914851591898212,-178.99983484440747,-5.64431454935429,1.0042268112156811,-0.00016510814723866358,0.006677978783980704,0.0030778881358920003,0.140627363319397,-0.025399223918914794,-9.667297662944794
2026-09-11T19:04:44.676,3.3088140800000474,-365.4707336425781,-32892.36602783203,-131569.46411132812,-250.34745254516602,-0.030311584472656253,-0.026048483327031136,-0.01784321107901633,-0.03991412642943878,0.0,0.0,0.0034637453500181437,28.375001907348633,1.2469483260065317,0.030517585575580597,10.986330807209015,-986.2894472567127,1,1789167884.2021575,38.990337931666666,-76.93988779333333,-3.1220000000000034,0,1,17.572864000000003,8.392608999999998,56.040195999999995,1,1,1789167884.663162,-0.9987103778679907,-0.007722840510537263,-0.0493249146781895,0.009219092428943629,-178.98357089647033,-5.662300631629135,0.8358304903046044,0.0001012290966156711,0.009712233688572845,0.003009296696288623,0.3703971766090393,-0.03540200708389282,-9.80880762477875
2026-09-11T19:04:44.709,3.342236832000026,-365.4715881347656,-32892.442932128906,-131569.77172851562,-250.34803787231448,-0.030896911621093752,-0.026048483327031136,-0.01784321107901633,-0.03991412642943878,0.0,0.0,0.003808975452557206,31.203126907348633,1.3712311629205942,0.015258789993822575,5.493164397776127,-164.35410254177782,1,1789167884.2021575,38.990337931666666,-76.93988779333333,-3.1220000000000034,0,1,17.572864000000003,8.392608999999998,56.040195999999995,1,1,1789167884.702162,-0.9986455088298886,-0.006559723115059468,-0.05113606168914123,0.007015762358500381,-179.23153145915427,-5.867347170826258,0.7133152713923705,0.005356590007295797,-0.004639085151800928,-0.0071780156146770795,0.49641263118743895,0.383047755317688,-9.628365261802674
2026-09-11T19:04:44.742,3.3756574720000003,-365.4724426269531,-32892.51983642578,-131570.07934570312,-250.3486231994629,-0.031482238769531254,-0.026048483327031136,-0.01784321107901633,-0.03991412642943878,0.0,0.0,0.003936768043786287,32.250003814697266,1.4172364957630634,0.0,0.0,-164.3644286219636,1,1789167884.2021575,38.990337931666666,-76.93988779333333,-3.1220000000000034,0,1,17.572864000000003,8.392608999999998,56.040195999999995,1,1,1789167884.735162,-0.9987266807449957,-0.005915763938594183,-0.049908566416507254,0.004376745749444187,-179.53058732630018,-5.724303371215778,0.6552842715694679,0.0023738223156374873,-0.019544720562608104,-0.006871710330952074,0.09561483907699585,0.4071721147155762,-9.655725815753936
2026-09-11T19:04:44.776,3.4090752320000206,-365.50616455078125,-32895.55480957031,-131582.21923828125,-250.37172271728517,-0.05458175659179688,-0.8138692378997803,-0.5575004279613496,-1.2470929401426023,-16.148814788364202,0.0,0.003936768043786287,32.250003814697266,1.4172364957630634,0.0,0.0,0.0,1,1789167884.2021575,38.990337931666666,-76.93988779333333,-3.1220000000000034,0,1,17.572864000000003,8.392608999999998,56.040195999999995,1,1,1789167884.763162,-0.9987362285033474,-0.005148811043721443,-0.04993858867760775,0.0023607161274167197,-179.75808011668752,-5.726229399089272,0.5786526176171521,0.0004597197249753064,-0.03645905540953555,-0.012635834718588547,0.4150174348449707,0.34146755863189693,-9.770365556144714
2026-09-11T19:04:44.809,3.442495231999999,-365.5101318359375,-32895.911865234375,-131583.6474609375,-250.37444030761722,-0.057299346923828126,-0.19530637562274933,-0.1337848673015833,-0.29926822499459366,12.678502712748118,0.0,0.004058838356286287,33.250003814697266,1.4611818082630634,0.0,0.0,0.0,1,1789167884.2021575,38.990337931666666,-76.93988779333333,-3.1220000000000034,0,1,17.572864000000003,8.392608999999998,56.040195999999995,1,1,1789167884.8031619,-0.9988017422191302,-0.003926302698706753,-0.048716596208358665,0.002521337149219105,-179.73206764332878,-5.585799917378419,0.43738777444564475,0.0032775538023201516,-0.06480826391675425,-0.011912570276562097,0.04707192077636718,-0.12905551612854005,-9.775366947727203
2026-09-11T19:04:44.843,3.4759149760000128,-365.5101623535156,-32895.914611816406,-131583.65844726562,-250.37446121215822,-0.057320251464843756,-0.040665674954652786,-0.027855987343937162,-0.06231206904066108,3.169649652540787,0.0,0.004186630714684725,34.296878814697266,1.507187057286501,0.015258789993822575,5.493164397776127,164.3688353140539,1,1789167884.2021575,38.990337931666666,-76.93988779333333,-3.1220000000000034,0,1,17.572864000000003,8.392608999999998,56.040195999999995,1,1,1789167884.835162,-0.9988756040152874,-0.002891389128953852,-0.04707291679977165,0.004827843821182259,-179.46058871322168,-5.397673867741933,0.3062736218195521,0.004774697234680887,-0.07829337584936323,-0.006365564847873719,0.32901311292648316,-0.3338183715057373,-9.6915200888443
2026-09-11T19:04:44.876,3.5093417920000434,-365.51123046875,-32896.0107421875,-131584.04296875,-250.37519287109376,-0.05805191040039063,-0.040665674954652786,-0.027855987343937162,-0.06231206904066108,0.0,0.0,0.004276276100426912,35.031253814697266,1.5394593961536884,0.015258789993822575,5.493164397776127,0.0,1,1789167884.2021575,38.990337931666666,-76.93988779333333,-3.1220000000000034,0,1,17.572864000000003,8.392608999999998,56.040195999999995,1,1,1789167884.863162,-0.9988812991291868,-0.0021253483036738894,-0.046713673784600014,0.007033194588659473,-179.20282707034448,-5.356516620127746,0.20652821351958145,0.0038730601431006166,-0.08007692781197624,-0.014682931398252696,0.20446865587234497,-0.40834891273498536,-9.698580876960754
2026-09-11T19:04:44.911,3.5427596800000174,-365.5126037597656,-32896.134338378906,-131584.53735351562,-250.37613357543947,-0.058992614746093755,-0.040665674954652786,-0.027855987343937162,-0.06231206904066108,0.0,0.0,0.0043964390642941,36.015628814697266,1.582718063145876,0.015258789993822575,5.493164397776127,0.0,1,1789167884.2021575,38.990337931666666,-76.93988779333333,-3.1220000000000034,0,1,17.572864000000003,8.392608999999998,56.040195999999995,1,1,1789167884.903162,-0.9989522687300807,-0.0009143301228382934,-0.04458482463061519,0.010282130718306165,-178.8228967906635,-5.1115467459214114,0.05234103538189433,0.003292563633887303,-0.06015905585529175,-0.004364021261686621,0.006080123100280762,-0.5375024953651428,-9.750163856811524
2026-09-11T19:04:44.943,3.576176672000031,-365.5139465332031,-32896.25518798828,-131585.02075195312,-250.37705337524417,-0.05991241455078126,-0.040665674954652786,-0.027855987343937162,-0.06231206904066108,0.0,0.0,0.004669189918786287,38.250003814697266,1.6809083707630634,0.0,0.0,-164.38237163218923,1,1789167884.2021575,38.990337931666666,-76.93988779333333,-3.1220000000000034,0,1,17.572864000000003,8.392608999999998,56.040195999999995,1,1,1789167884.935162,-0.9989224611090134,0.0001521458826833158,-0.04457689695281317,0.012914867463522675,-178.51481614818454,-5.109175092762909,-0.0837194105236194,0.006024702044959226,-0.026502824691533894,-0.00579257325444398,0.26232789182662963,-0.5008256237602233,-9.719665174808501
2026-09-11T19:04:44.976,3.6095879040000227,-365.51531982421875,-32896.37878417969,-131585.51513671875,-250.37799407958985,-0.06085311889648438,-0.040665674954652786,-0.027855987343937162,-0.06231206904066108,0.0,0.0,0.004669189918786287,38.250003814697266,1.6809083707630634,0.0,0.0,0.0,1,1789167884.2021575,38.990337931666666,-76.93988779333333,-3.1220000000000034,0,1,17.572864000000003,8.392608999999998,56.040195999999995,1,1,1789167884.963162,-0.9989314317009994,0.0014686433356769528,-0.043958475583458785,0.014194726870318653,-178.3611955505643,-5.035980376434091,-0.2405462388133005,0.00616485198389437,0.0004644321139556911,-0.006540970437699149,0.03628460559844971,-0.21682503507614137,-9.767619694099427
2026-09-11T19:04:45.010,3.642999072000009,-365.51666259765625,-32896.49963378906,-131585.99853515625,-250.37891387939456,-0.06177291870117188,-0.040665674954652786,-0.027855987343937162,-0.06231206904066108,0.0,0.0,0.0001544957049190998,1.2656288146972656,0.05561845377087593,-0.1678467094898224,-60.42481541633606,-1808.5214924650516,1,1789167884.2021575,38.990337931666666,-76.93988779333333,-3.1220000000000034,0,1,17.572864000000003,8.392608999999998,56.040195999999995,1,1,1789167885.003162,-0.9988746433875862,0.0030717010475454247,-0.045614008794200654,0.012624327772989045,-178.5326766523961,-5.223888952061009,-0.41932740436460986,0.002706831136918006,0.04440484136216493,-0.010836574792707594,0.35068580978393554,0.0945361075592041,-9.668866726970673
2026-09-11T19:04:45.043,3.6764147840000305,-365.5180358886719,-32896.62322998047,-131586.49291992188,-250.37985458374024,-0.062713623046875,-0.040665674954652786,-0.027855987343937162,-0.06231206904066108,0.0,0.0,-0.0011310577392578125,-9.265625,-0.4071807861328125,0.0,0.0,1808.2755625945495,1,1789167884.2021575,38.990337931666666,-76.93988779333333,-3.1220000000000034,0,1,17.572864000000003,8.392608999999998,56.040195999999995,1,1,1789167885.035162,-0.9988952387791842,0.004121644738155141,-0.04541399421682982,0.011352670091338848,-178.67349017495317,-5.200085243158778,-0.5330655077949928,-0.004253367387110181,0.06609073185111967,-0.012233012727228255,-0.24036099546432496,-0.05197524585723877,-9.7235878348732
2026-09-11T19:04:45.077,3.7098304320000466,-365.5193786621094,-32896.744079589844,-131586.97631835938,-250.38077438354495,-0.06363342285156251,-0.06669864058494568,-0.04568856880068779,-0.10220241768228289,-0.533659603331411,0.0,-0.0011310577392578125,-9.265625,-0.4071807861328125,0.0,0.0,0.0,1,1789167884.2021575,38.990337931666666,-76.93988779333333,-3.1220000000000034,0,1,17.572864000000003,8.392608999999998,56.040195999999995,1,1,1789167885.075162,-0.9988694206834263,0.005856364117559899,-0.04541834712795824,0.012757631717660253,-178.50293167570624,-5.197237827389547,-0.7397909477708893,-0.0005845107664929009,0.05228186134226574,0.0016219344738783305,0.3195987287712097,-0.38294968881607055,-9.746143130245208
2026-09-11T19:04:45.111,3.743247999999994,-365.54876708984375,-32899.38903808594,-131597.55615234375,-250.400905456543,-0.08376449584960938,-0.5873579382896423,-0.402340187728405,-0.9000093676816494,-10.672578534987256,0.0,-0.0011310577392578125,-9.265625,-0.4071807861328125,0.0,0.0,0.0,1,1789167884.2021575,38.990337931666666,-76.93988779333333,-3.1220000000000034,0,1,17.572864000000003,8.392608999999998,56.040195999999995,1,1,1789167885.103162,-0.9987941159069043,0.007185200652031876,-0.04636761830449007,0.014447522074906429,-178.30073491315133,-5.302601154711342,-0.9030367962919965,0.0006023131248632432,0.03794625046515992,0.004750437158078166,0.210156512966156,-0.39638479953765865,-9.682988303203583
2026-09-11T19:04:45.144,3.776662368000018,-365.55169677734375,-32899.65270996094,-131598.61083984375,-250.4029122924805,-0.08577133178710938,-0.14020603895187378,-0.09604113668203354,-0.2148379041741979,9.16668694874471,0.0,-0.0009174346923828125,-7.515625,-0.3302764892578125,0.0,0.0,0.0,1,1789167884.2021575,38.990337931666666,-76.93988779333333,-3.1220000000000034,0,1,17.572864000000003,8.392608999999998,56.040195999999995,1,1,1789167885.1351619,-0.998761465053979,0.00881502812578179,-0.04619318567220332,0.016248716867022332,-178.08520633657747,-5.277840729628997,-1.0996160743708112,-0.0008025023900669928,0.03865101441711522,0.009074664912819316,0.15102241249084472,-0.41217350629806515,-9.702111271018982
2026-09-11T19:04:45.178,3.810085632000039,-365.5519104003906,-32899.671936035156,-131598.68774414062,-250.4030586242676,-0.08591766357421876,-0.034993819892406464,-0.02397076662629843,-0.05362107781473337,2.1562935940574195,0.0,-0.000102996826171875,-0.84375,-0.037078857421875,0.0762939527630806,27.465822994709015,821.757653432406,1,1789167885.165931,38.99033848333333,-76.93988735,-3.1050000000000004,0,1,45.684081000000006,41.770369,263.315529,1,1,1789167885.175162,-0.9986689310901025,0.011039250479850252,-0.04745477144461354,0.01692766053932752,-177.99341358943633,-5.417332426560532,-1.361581464037646,-0.0005787511799613197,0.04011970898266846,0.004695110220789946,0.2550709707069397,-0.20711645141601562,-9.71436958372116
2026-09-11T19:04:45.211,3.843500256000027,-365.5514831542969,-32899.63348388672,-131598.53393554688,-250.4027659606934,-0.085625,0.0,0.0,0.0,0.7173735256247956,0.0,0.0019912722054868937,16.312501907348633,0.7168579939752817,0.0610351637005806,21.972658932209015,-164.3940109127651,1,1789167885.165931,38.99033848333333,-76.93988735,-3.1050000000000004,0,1,45.684081000000006,41.770369,263.315529,1,1,1789167885.203162,-0.9986692369913471,0.012545956505937067,-0.047272596739587974,0.016360185205797066,-178.05078707958882,-5.394276823829233,-1.5313345435812478,-0.0018444639535076075,0.035407494535208965,0.009142034621946299,0.23545767038345336,-0.15396440753936766,-9.720449706821443
2026-09-11T19:04:45.244,3.876916960000017,-365.5514831542969,-32899.63348388672,-131598.53393554688,-250.4027659606934,-0.085625,0.0,0.0,0.0,0.0,0.0,0.00434303330257535,35.578128814697266,1.563491988927126,0.0762939527630806,27.465822994709015,164.3837783194203,1,1789167885.165931,38.99033848333333,-76.93988735,-3.1050000000000004,0,1,45.684081000000006,41.770369,263.315529,1,1,1789167885.235162,-0.9986545516892834,0.014069978625118593,-0.04755768021128856,0.01514559819505048,-178.18164831356168,-5.426064220305746,-1.70053918506289,-0.0009775589140420238,0.039779020712679164,0.0055229198850108565,0.2526193081665039,-0.051681046352386475,-9.732217687015533
2026-09-11T19:04:45.277,3.9103320000000394,-365.5514831542969,-32899.63348388672,-131598.53393554688,-250.4027659606934,-0.085625,0.0,0.0,0.0,0.0,0.0,0.005401611793786287,44.250003814697266,1.9445802457630634,0.0,0.0,-821.9599017295935,1,1789167885.165931,38.99033848333333,-76.93988735,-3.1050000000000004,0,1,45.684081000000006,41.770369,263.315529,1,1,1789167885.275162,-0.9986344414665317,0.015670600051056725,-0.04815952047913233,0.012819719111128738,-178.43912439283898,-5.496544853408948,-1.872958114026021,-0.0014929546421559496,0.054484815924132984,0.0032517229293906355,0.39197180696487427,0.0542307753944397,-9.68769549528122
2026-09-11T19:04:45.311,3.9437399680000453,-365.5514831542969,-32899.63348388672,-131598.53393554688,-250.4027659606934,-0.085625,0.0,0.0,0.0,0.0,0.0,0.005401611793786287,44.250003814697266,1.9445802457630634,0.0,0.0,0.0,1,1789167885.165931,38.99033848333333,-76.93988735,-3.1050000000000004,0,1,45.684081000000006,41.770369,263.315529,1,1,1789167885.3031619,-0.9985902555555578,0.016774060092909663,-0.04906131191403869,0.01136310216263684,-178.59858586113398,-5.601162092920803,-1.993256513743623,-0.0026295130510546566,0.053870460027430976,0.002829876849183606,0.2135888405227661,0.019417167320251463,-9.72966795797348
2026-09-11T19:04:45.344,3.9771542080000017,-365.5514831542969,-32899.63348388672,-131598.53393554688,-250.4027659606934,-0.085625,0.0,0.0,0.0,0.0,0.0,0.005523682106286287,45.250003814697266,1.9885255582630634,0.0,0.0,0.0,1,1789167885.165931,38.99033848333333,-76.93988735,-3.1050000000000004,0,1,45.684081000000006,41.770369,263.315529,1,1,1789167885.335162,-0.9985779184179089,0.0182326029950994,-0.048938930468866916,0.010709534104832705,-178.66581793426965,-5.58648521313231,-2.157142930363052,-0.0005839871677173026,0.04664916024730444,0.0061192988904173184,0.31302827316284176,-0.08433719139099122,-9.743299201698303
2026-09-11T19:04:45.378,4.010576224000033,-365.5514831542969,-32899.63348388672,-131598.53393554688,-250.4027659606934,-0.085625,0.0,0.0,0.0,0.0,0.0,0.005523682106286287,45.250003814697266,1.9885255582630634,0.0,0.0,0.0,1,1789167885.165931,38.99033848333333,-76.93988735,-3.1050000000000004,0,1,45.684081000000006,41.770369,263.315529,1,1,1789167885.375162,-0.998476848520858,0.019846418952316484,-0.05058979523809574,0.009527604126540152,-178.78858585050133,-5.776446153736997,-2.338521710522487,-0.0007614871526451261,0.024005782130705606,-0.0015650367402633154,0.48886151056289673,0.01843650230407715,-9.71250632019043
2026-09-11T19:04:45.411,4.0439890560000435,-365.5514831542969,-32899.63348388672,-131598.53393554688,-250.4027659606934,-0.085625,0.0,0.0,0.0,0.0,0.0,0.005523682106286287,45.250003814697266,1.9885255582630634,0.0,0.0,0.0,1,1789167885.165931,38.99033848333333,-76.93988735,-3.1050000000000004,0,1,45.684081000000006,41.770369,263.315529,1,1,1789167885.403162,-0.9984965931028985,0.020904911765665352,-0.04992700108390061,0.008650594704555967,-178.88501824867643,-5.701292763349925,-2.454304294358101,0.0006864379948093698,-0.0004082325120414737,0.00028728119487826664,0.3204813272857666,-0.005197524585723877,-9.709172059135437
2026-09-11T19:04:45.444,4.077413760000013,-365.5514831542969,-32899.63348388672,-131598.53393554688,-250.4027659606934,-0.085625,0.0,0.0,0.0,0.0,0.0,0.005523682106286287,45.250003814697266,1.9885255582630634,0.0,0.0,0.0,1,1789167885.165931,38.99033848333333,-76.93988735,-3.1050000000000004,0,1,45.684081000000006,41.770369,263.315529,1,1,1789167885.435162,-0.9984811941470507,0.022232440704734558,-0.049788130512091903,0.007884514893189216,-178.96588697476312,-5.685875120111545,-2.6024585717238735,0.000986809159077594,-0.019811930471088434,-0.0001096066770252439,0.4120754397964478,-0.0017651970291137696,-9.70142480550766
2026-09-11T19:04:45.478,4.110825280000029,-365.5514831542969,-32899.63348388672,-131598.53393554688,-250.4027659606934,-0.085625,0.0,0.0,0.0,0.0,0.0,0.005523682106286287,45.250003814697266,1.9885255582630634,0.0,0.0,0.0,1,1789167885.165931,38.99033848333333,-76.93988735,-3.1050000000000004,0,1,45.684081000000006,41.770369,263.315529,1,1,1789167885.475162,-0.9985096047631455,0.023574254880994672,-0.04872475053545724,0.006980142391839628,-179.0652542471831,-5.565013109158629,-2.750371916611706,0.00032864549815053224,-0.039048774953644734,-0.008381245601001971,0.36049245994567874,0.007943386631011962,-9.721332305335999
2026-09-11T19:04:45.513,4.1442489280000245,-365.5514831542969,-32899.63348388672,-131598.53393554688,-250.4027659606934,-0.085625,0.0,0.0,0.0,0.0,0.0,0.005523682106286287,45.250003814697266,1.9885255582630634,0.0,0.0,0.0,1,1789167885.165931,38.99033848333333,-76.93988735,-3.1050000000000004,0,1,45.684081000000006,41.770369,263.315529,1,1,1789167885.503162,-0.998527150142161,0.024629744215973998,-0.04793374078202194,0.006265989424834303,-179.14380347966238,-5.475357082953231,-2.866893089362021,0.0023364722696448087,-0.04889749338972354,-0.0046022587045838476,0.38373422082901,0.03903046764373779,-9.709564325141907
2026-09-11T19:04:45.546,4.177666528000032,-365.5514831542969,-32899.63348388672,-131598.53393554688,-250.4027659606934,-0.085625,0.0,0.0,0.0,0.0,0.0,0.005523682106286287,45.250003814697266,1.9885255582630634,0.0,0.0,0.0,1,1789167885.165931,38.99033848333333,-76.93988735,-3.1050000000000004,0,1,45.684081000000006,41.770369,263.315529,1,1,1789167885.535162,-0.9985449961181495,0.0259731991774519,-0.04690823656881477,0.0057359387982673,-179.20053355123432,-5.358201724896048,-3.0173845319046038,0.0038688713528958305,-0.0477385947663993,-0.006428047635095116,0.28096052713394165,0.03383294305801392,-9.712996652698518
2026-09-11T19:04:45.579,4.211083520000045,-365.5514831542969,-32899.63348388672,-131598.53393554688,-250.4027659606934,-0.085625,0.0,0.0,0.0,0.0,0.0,0.005523682106286287,45.250003814697266,1.9885255582630634,0.0,0.0,0.0,1,1789167885.165931,38.99033848333333,-76.93988735,-3.1050000000000004,0,1,45.684081000000006,41.770369,263.315529,1,1,1789167885.574162,-0.9985687480126815,0.02751161399043985,-0.04553292771516396,0.005506276574294947,-179.22316235925075,-5.1999979250716954,-3.191595434647049,0.001515294856581477,-0.053489629184645816,-0.010003354607805501,0.2114313774871826,-0.02049589883804321,-9.706230064086913
2026-09-11T19:04:45.611,4.2446182400000225,-365.5514831542969,-32899.63348388672,-131598.53393554688,-250.4027659606934,-0.085625,0.0,0.0,0.0,0.0,0.0,0.005523682106286287,45.250003814697266,1.9885255582630634,0.0,0.0,0.0,1,1789167885.165931,38.99033848333333,-76.93988735,-3.1050000000000004,0,1,45.684081000000006,41.770369,263.315529,1,1,1789167885.602162,-0.9985769968352228,0.028687340094249628,-0.04455824318096118,0.005964970619404324,-179.1676538207027,-5.085799797727104,-3.328072463725969,0.0032997194838204793,-0.0587889723924762,-0.0024192008761893405,0.3566678663825989,-0.1041466247177124,-9.73349255153656
2026-09-11T19:04:45.645,4.278034624000043,-365.5514831542969,-32899.63348388672,-131598.53393554688,-250.4027659606934,-0.085625,0.0,0.0,0.0,0.0,0.0,0.005523682106286287,45.250003814697266,1.9885255582630634,0.0,0.0,0.0,1,1789167885.165931,38.99033848333333,-76.93988735,-3.1050000000000004,0,1,45.684081000000006,41.770369,263.315529,1,1,1789167885.6351619,-0.9985634108501945,0.03004914667092134,-0.04376421713391656,0.007270254069193435,-179.0136046255789,-4.9890734171728175,-3.4902658634773402,0.005110149516914198,-0.06408430134302699,-0.004071155013201973,0.25026571212768556,-0.17230284334182738,-9.722312970352172
2026-09-11T19:04:45.678,4.311451615999999,-365.5514831542969,-32899.63348388672,-131598.53393554688,-250.4027659606934,-0.085625,0.0,0.0,0.0,0.0,0.0,0.005523682106286287,45.250003814697266,1.9885255582630634,0.0,0.0,0.0,1,1789167885.165931,38.99033848333333,-76.93988735,-3.1050000000000004,0,1,45.684081000000006,41.770369,263.315529,1,1,1789167885.674162,-0.9985586314829012,0.03175310543822821,-0.0423496782136657,0.00888282281840232,-178.82524029706335,-4.819280063550353,-3.692099339445969,0.0041865212767587985,-0.06101705971557216,-0.0038741073406518135,0.1992711312866211,-0.18505148855209352,-9.692206554355622
2026-09-11T19:04:45.712,4.344864287999997,-365.5514831542969,-32899.63348388672,-131598.53393554688,-250.4027659606934,-0.085625,0.0,0.0,0.0,0.0,0.0,0.005718231666833162,46.843753814697266,2.0585634000599384,0.015258789993822575,5.493164397776127,164.40362500121472,1,1789167885.165931,38.99033848333333,-76.93988735,-3.1050000000000004,0,1,45.684081000000006,41.770369,263.315529,1,1,1789167885.703162,-0.9985227169425636,0.0331062009619707,-0.041874166263855324,0.010144821694522795,-178.67566690070313,-4.758318862727626,-3.852938498725201,0.003761882669748578,-0.04965357002168747,-0.004068362486398782,0.1918180771636963,-0.23457507186889648,-9.71633091375351
2026-09-11T19:04:45.745,4.378279936000013,-365.5514831542969,-32899.63348388672,-131598.53393554688,-250.4027659606934,-0.085625,0.0,0.0,0.0,0.0,0.0,0.0065631871111691,53.765628814697266,2.362747360020876,0.0457763709127903,16.479493528604507,328.77797643855655,1,1789167885.165931,38.99033848333333,-76.93988735,-3.1050000000000004,0,1,45.684081000000006,41.770369,263.315529,1,1,1789167885.735162,-0.9984881912715048,0.034672665282128055,-0.04097988716403597,0.011823156161323525,-178.4792161862571,-4.646967029748995,-4.039321241334825,0.002921855700763707,-0.0355528804619001,0.002341708257400792,0.10355822570800781,-0.28566771921157835,-9.738003610610962
2026-09-11T19:04:45.779,4.411700352000025,-365.5514831542969,-32899.63348388672,-131598.53393554688,-250.4027659606934,-0.085625,0.0,0.0,0.0,0.0,0.0,0.00733375595882535,60.078128814697266,2.640152145177126,0.015258789993822575,5.493164397776127,-328.7310705774643,1,1789167885.165931,38.99033848333333,-76.93988735,-3.1050000000000004,0,1,45.684081000000006,41.770369,263.315529,1,1,1789167885.774162,-0.9983940562124586,0.036682032308099105,-0.04123209966278318,0.012792614384083092,-178.35743729276368,-4.668654179709622,-4.275282124151292,0.0051658255200528165,-0.010399020749232615,-0.0005370378108386552,0.23751706691741942,-0.14209836084365843,-9.729079558963775
2026-09-11T19:04:45.812,4.445117696000011,-365.5514831542969,-32899.63348388672,-131598.53393554688,-250.4027659606934,-0.085625,0.0,0.0,0.0,0.0,0.0,0.007354736793786287,60.250003814697266,2.6477052457630634,0.0,0.0,-164.3806401184502,1,1789167885.165931,38.99033848333333,-76.93988735,-3.1050000000000004,0,1,45.684081000000006,41.770369,263.315529,1,1,1789167885.8031619,-0.9983500014773583,0.03810200349914184,-0.04118551643271071,0.012217410350842,-178.4170336669504,-4.663529671614922,-4.43572416337166,0.0018069393745897293,0.01933493198651838,0.0014517648718088835,0.10738281927108764,-0.05933023347854614,-9.695835014915467
2026-09-11T19:04:45.845,4.478533760000005,-365.5514831542969,-32899.63348388672,-131598.53393554688,-250.4027659606934,-0.085625,0.0,0.0,0.0,0.0,0.0,0.007354736793786287,60.250003814697266,2.6477052457630634,0.0,0.0,0.0,1,1789167885.165931,38.99033848333333,-76.93988735,-3.1050000000000004,0,1,45.684081000000006,41.770369,263.315529,1,1,1789167885.835162,-0.9982963315363822,0.03969865378521989,-0.04118403005759142,0.011503347202377133,-178.4915387828146,-4.664121335659163,-4.615929366889924,-0.002063153708782497,0.04731151269843629,0.003658384645105314,0.1577890011024475,-0.05933023347854614,-9.723783967876434
2026-09-11T19:04:45.879,4.511950912000032,-365.5514831542969,-32899.63348388672,-131598.53393554688,-250.4027659606934,-0.085625,0.0,0.0,0.0,0.0,0.0,0.007354736793786287,60.250003814697266,2.6477052457630634,0.0,0.0,0.0,1,1789167885.165931,38.99033848333333,-76.93988735,-3.1050000000000004,0,1,45.684081000000006,41.770369,263.315529,1,1,1789167885.875162,-0.9981905864213027,0.0414750603111145,-0.04241360235458028,0.009821348552660945,-178.67021099562643,-4.810418144566136,-4.814428107595704,-0.0007291985614832308,0.06634188473048167,0.0006103416394224171,0.1956426707267761,0.05589790592193604,-9.697306012439729
2026-09-11T19:04:45.912,4.545365120000042,-365.5514831542969,-32899.63348388672,-131598.53393554688,-250.4027659606934,-0.085625,0.0,0.0,0.0,0.0,0.0,0.00739479111507535,60.578128814697266,2.662124801427126,0.015258789993822575,5.493164397776127,164.39606761813369,1,1789167885.165931,38.99033848333333,-76.93988735,-3.1050000000000004,0,1,45.684081000000006,41.770369,263.315529,1,1,1789167885.903162,-0.9981119050281768,0.042721287810173536,-0.04324437077104465,0.008800057129388663,-178.77721109361528,-4.909006636347086,-4.954185016888555,-0.003182258825161261,0.06006899686588884,0.0012959069696057896,0.2272200842475891,-0.0054917240905761715,-9.726333696918488
2026-09-11T19:04:45.946,4.57877974400003,-365.55218505859375,-32899.69665527344,-131598.78662109375,-250.40324676513674,-0.08610580444335938,-0.02630305476486683,-0.01801759251393378,-0.040304206589866144,-0.5392127864117265,0.0,0.007713318336755037,63.187503814697266,2.7767946012318134,0.015258789993822575,5.493164397776127,0.0,1,1789167885.165931,38.99033848333333,-76.93988735,-3.1050000000000004,0,1,45.684081000000006,41.770369,263.315529,1,1,1789167885.935162,-0.998050674803992,0.0442313955123698,-0.0431426157982228,0.008783443311802247,-178.7722105401899,-4.895577955280487,-5.1276107548612275,-0.0037295940785866824,0.05440121465296246,0.006844657727546163,0.15386634103775024,-0.12719225259780884,-9.698188610954285
2026-09-11T19:04:45.979,4.612202144000037,-365.5530700683594,-32899.776306152344,-131599.10522460938,-250.4038529968262,-0.0867120361328125,-0.02630305476486683,-0.01801759251393378,-0.040304206589866144,0.0,0.0,0.010673523880541325,87.43750762939453,3.842468596994877,0.0915527492761612,32.95898973941803,821.7789668496796,1,1789167885.165931,38.99033848333333,-76.93988735,-3.1050000000000004,0,1,45.684081000000006,41.770369,263.315529,1,1,1789167885.975162,-0.9979086794045666,0.04617843937190094,-0.04419529523129207,0.009622639223650063,-178.66052881217723,-5.00927589625039,-5.357562743243164,0.0005763077190085276,0.03437757574360711,0.006102543729598174,0.29047297779083253,-0.16396719070434568,-9.806944361248016
2026-09-11T19:04:46.012,4.645612991999997,-365.553955078125,-32899.85595703125,-131599.423828125,-250.40445922851563,-0.08731826782226564,-0.02630305476486683,-0.01801759251393378,-0.040304206589866144,0.0,0.0,0.014642716385424137,119.95313262939453,5.271377898752689,0.1220703274011612,43.94531786441803,328.8251805226004,1,1789167885.165931,38.99033848333333,-76.93988735,-3.1050000000000004,0,1,45.684081000000006,41.770369,263.315529,1,1,1789167886.003162,-0.9978480305329475,0.04750362345304562,-0.04412890072786454,0.009764929129250298,-178.63790411939104,-4.999102288031788,-5.510600750499625,0.0003415609346152903,0.022561871240530697,0.008502545984015576,0.256051635723114,-0.10071429716110229,-9.692206554355622
2026-09-11T19:04:46.046,4.6790249599999925,-365.5548095703125,-32899.932861328125,-131599.7314453125,-250.4050445556641,-0.08790359497070313,-0.02630305476486683,-0.01801759251393378,-0.040304206589866144,0.0,0.0,0.019742967560887337,161.73439025878906,7.107468321919441,0.1678466945886612,60.42481005191803,493.22123699813415,1,1789167885.165931,38.99033848333333,-76.93988735,-3.1050000000000004,0,1,45.684081000000006,41.770369,263.315529,1,1,1789167886.035162,-0.9977595470033338,0.049111406256342215,-0.04447645672743786,0.009262879476663117,-178.68543116554153,-5.039574136115815,-5.693693822360428,-0.0002684316389567279,0.00930173224850378,0.010774092005486196,0.3096940121078491,-0.038344002132415775,-9.718194177284241
2026-09-11T19:04:46.079,4.712438784000028,-365.5556945800781,-32900.01251220703,-131600.05004882812,-250.40565078735352,-0.08850982666015626,-0.02630305476486683,-0.01801759251393378,-0.040304206589866144,0.0,0.0,0.0240860003978014,197.31251525878906,8.670960143208504,0.01525880303233862,5.493169091641903,-1643.9794786797668,1,1789167885.165931,38.99033848333333,-76.93988735,-3.1050000000000004,0,1,45.684081000000006,41.770369,263.315529,1,1,1789167886.075162,-0.9976773642610762,0.050818501644170636,-0.0446465292109332,0.008002759594686666,-178.82040024311615,-5.064220784109279,-5.884054787807789,0.0013400637996812462,0.018012670545207478,0.005264785688640894,0.311263076133728,0.014709975242614746,-9.718684509792327
2026-09-11T19:04:46.113,4.745864288000007,-365.55657958984375,-32900.09216308594,-131600.36865234375,-250.40625701904298,-0.08911605834960938,-0.02630305476486683,-0.01801759251393378,-0.040304206589866144,0.0,0.0,0.02420044131577015,198.25001525878906,8.712158873677254,0.0,0.0,-164.34065112811373,1,1789167885.165931,38.99033848333333,-76.93988735,-3.1050000000000004,0,1,45.684081000000006,41.770369,263.315529,1,1,1789167886.103162,-0.9975970482673562,0.052076689253377016,-0.04509497844022036,0.007388548175483473,-178.88173396021065,-5.117797770944686,-6.026476377145986,-0.001133591349170317,0.02005330950663925,0.0027808330972025654,0.35480460285186766,-0.012552512207031252,-9.690441357326508
2026-09-11T19:04:46.146,4.779279872000018,-365.5574645996094,-32900.171813964844,-131600.68725585938,-250.40686325073244,-0.08972229003906251,-0.02630305476486683,-0.01801759251393378,-0.040304206589866144,0.0,0.0,0.02420044131577015,198.25001525878906,8.712158873677254,0.0,0.0,0.0,1,1789167885.165931,38.99033848333333,-76.93988735,-3.1050000000000004,0,1,45.684081000000006,41.770369,263.315529,1,1,1789167886.1351619,-0.9975268122690955,0.053363097477452257,-0.04519192333023391,0.007094272167243685,-178.9082824712816,-5.129272594521668,-6.173184740983574,-0.0003167772592369708,0.016275020741921924,0.0007578219612159379,0.32391365484237666,-0.06717555360794067,-9.710643056659698
2026-09-11T19:04:46.180,4.812695071999997,-365.558349609375,-32900.25146484375,-131601.005859375,-250.4074694824219,-0.09032852172851563,-0.02630305476486683,-0.01801759251393378,-0.040304206589866144,0.0,0.0,0.02432251162827015,199.25001525878906,8.756104186177254,0.0,0.0,0.0,1,1789167886.161338,38.99033896,-76.93988718666667,-3.2340000000000018,0,1,45.657048999999994,41.757444,263.34798400000005,1,1,1789167886.175162,-0.9974279654206116,0.05505424627608071,-0.045280052172498274,0.0074967085529282955,-178.8528089940999,-5.134942602301737,-6.370051212940981,0.0004654793115068877,0.010326240519424452,-0.0016449728200046555,0.36245378997802735,-0.10179302867889405,-9.707504928607941
2026-09-11T19:04:46.213,4.84610886400003,-365.5592041015625,-32900.328369140625,-131601.3134765625,-250.40805480957033,-0.09091384887695313,-0.02630305476486683,-0.01801759251393378,-0.040304206589866144,0.0,0.0,0.02432251162827015,199.25001525878906,8.756104186177254,0.0,0.0,0.0,1,1789167886.161338,38.99033896,-76.93988718666667,-3.2340000000000018,0,1,45.657048999999994,41.757444,263.34798400000005,1,1,1789167886.203162,-0.9973778189592641,0.05614651282043526,-0.045019026575106515,0.007638232282129425,-178.83266247928026,-5.102872730259377,-6.4960491742566875,0.001803274183160541,-0.0018114772306449145,-0.0018791960056222946,0.32930731243133543,-0.09100571350097657,-9.708387527122497
2026-09-11T19:04:46.246,4.87952307200004,-365.5600891113281,-32900.40802001953,-131601.63208007812,-250.4086610412598,-0.09152008056640626,-0.02630305476486683,-0.01801759251393378,-0.040304206589866144,0.0,0.0,0.02432251162827015,199.25001525878906,8.756104186177254,0.0,0.0,0.0,1,1789167886.161338,38.99033896,-76.93988718666667,-3.2340000000000018,0,1,45.657048999999994,41.757444,263.34798400000005,1,1,1789167886.235162,-0.9973242457934376,0.057437956582925755,-0.044502736689094095,0.0080458885966604,-178.78276668627643,-5.03953072427551,-6.645849993826611,0.0008009315937401978,-0.005670923805579976,-0.0007258824359044417,0.3071442830657959,-0.12542705556869507,-9.71897870929718
2026-09-11T19:04:46.280,4.912933887999998,-365.56097412109375,-32900.48767089844,-131601.95068359375,-250.40926727294925,-0.09212631225585938,-0.02630305476486683,-0.01801759251393378,-0.040304206589866144,0.0,0.0,0.02432251162827015,199.25001525878906,8.756104186177254,0.0,0.0,0.0,1,1789167886.161338,38.99033896,-76.93988718666667,-3.2340000000000018,0,1,45.657048999999994,41.757444,263.34798400000005,1,1,1789167886.275162,-0.9972487120221758,0.058979943649316205,-0.044113219685053905,0.008390260201765734,-178.7381630232003,-4.990696850576445,-6.824357031285199,0.0010239846721450732,-0.01019429362797368,-0.004749564493452168,0.33048411045074466,-0.11101127983093262,-9.718586443290711
2026-09-11T19:04:46.313,4.946359552000047,-365.5618591308594,-32900.567321777344,-131602.26928710938,-250.40987350463868,-0.09273254394531251,-0.02630305476486683,-0.01801759251393378,-0.040304206589866144,0.0,0.0,0.02432251162827015,199.25001525878906,8.756104186177254,0.0,0.0,0.0,1,1789167886.161338,38.99033896,-76.93988718666667,-3.2340000000000018,0,1,45.657048999999994,41.757444,263.34798400000005,1,1,1789167886.3031619,-0.9971964437185993,0.06013942586204607,-0.0437102623698668,0.008480274495522156,-178.72488241972053,-4.942470389914939,-6.95751897083647,0.001396437934520663,-0.012158138102317698,-0.0035953782591083188,0.2738997390174866,-0.08688692043304443,-9.720057440814973
2026-09-11T19:04:46.347,4.979775456000027,-365.5627136230469,-32900.64422607422,-131602.57690429688,-250.41045883178714,-0.09331787109375,-0.02630305476486683,-0.01801759251393378,-0.040304206589866144,0.0,0.0,0.02438545413315296,199.76564025878906,8.778763487935066,0.015258789993822575,5.493164397776127,164.38772381496395,1,1789167886.161338,38.99033896,-76.93988718666667,-3.2340000000000018,0,1,45.657048999999994,41.757444,263.34798400000005,1,1,1789167886.343162,-0.9971534070323338,0.06157178969240946,-0.042687005436484536,0.008474498495370056,-178.725858434946,-4.823549193119527,-7.120443820175336,-8.342673824532896e-05,-0.0036316811075498005,-0.0031257101573966446,0.2873348497390747,-0.1153262059020996,-9.71211405418396
2026-09-11T19:04:46.380,5.013188928000034,-365.5635986328125,-32900.723876953125,-131602.8955078125,-250.41106506347657,-0.09392410278320314,-0.02630305476486683,-0.01801759251393378,-0.040304206589866144,0.0,0.0,0.02444458194077015,200.25001525878906,8.800049498677254,0.0,0.0,-164.39968877748024,1,1789167886.161338,38.99033896,-76.93988718666667,-3.2340000000000018,0,1,45.657048999999994,41.757444,263.34798400000005,1,1,1789167886.375162,-0.997080922768474,0.0628504730177576,-0.04245260853722663,0.008787919036813833,-178.6854574635619,-4.792805908703205,-7.268690177874187,-0.0004878195259324151,-0.005656786638638822,-0.0028023006470020958,0.28968844577789304,-0.12444639055252076,-9.70564166507721
2026-09-11T19:04:46.415,5.046605376000002,-365.5644836425781,-32900.80352783203,-131603.21411132812,-250.41167129516603,-0.09453033447265625,-0.02630305476486683,-0.01801759251393378,-0.040304206589866144,0.0,0.0,0.02444458194077015,200.25001525878906,8.800049498677254,0.0,0.0,0.0,1,1789167886.161338,38.99033896,-76.93988718666667,-3.2340000000000018,0,1,45.657048999999994,41.757444,263.34798400000005,1,1,1789167886.403162,-0.9970267697044523,0.06392809724939497,-0.042098147964581466,0.008863679412584313,-178.67425035886473,-4.750257404192555,-7.392413137467654,0.0014953981031087416,-0.004207814293633129,0.001612509695917561,0.2907671772956848,-0.11042288082122802,-9.718586443290711
2026-09-11T19:04:46.447,5.080021952000038,-365.56536865234375,-32900.88317871094,-131603.53271484375,-250.4122775268555,-0.09513656616210939,-0.02630305476486683,-0.01801759251393378,-0.040304206589866144,0.0,0.0,0.02444458194077015,200.25001525878906,8.800049498677254,0.0,0.0,0.0,1,1789167886.161338,38.99033896,-76.93988718666667,-3.2340000000000018,0,1,45.657048999999994,41.757444,263.34798400000005,1,1,1789167886.443162,-0.9969035641733034,0.06564798640869464,-0.04235275573307904,0.008936984998434915,-178.65566900750412,-4.776541037555297,-7.591262593191831,-0.0003097959422289935,0.00037751471720637346,-0.0032018065127835975,0.2731152070045471,-0.081787462348938,-9.71633091375351
2026-09-11T19:04:46.481,5.11343980800001,-365.5662536621094,-32900.962829589844,-131603.85131835938,-250.41288375854495,-0.0957427978515625,-0.02630305476486683,-0.01801759251393378,-0.040304206589866144,0.0,0.0,0.02444458194077015,200.25001525878906,8.800049498677254,0.0,0.0,0.0,1,1789167886.161338,38.99033896,-76.93988718666667,-3.2340000000000018,0,1,45.657048999999994,41.757444,263.34798400000005,1,1,1789167886.475162,-0.9968300110793863,0.06690573029819002,-0.04218209230235203,0.008615297657770228,-178.68785045514778,-4.7578029116463645,-7.734208470094442,-0.0007201228493728604,-0.0009468411192069238,-0.001577428577952475,0.3087133470916748,-0.06825428512573242,-9.715154115734101
2026-09-11T19:04:46.514,5.14685401600002,-365.5671081542969,-32901.03973388672,-131604.15893554688,-250.41346908569338,-0.09632812500000001,-0.02630305476486683,-0.01801759251393378,-0.040304206589866144,0.0,0.0,0.02444458194077015,200.25001525878906,8.800049498677254,0.0,0.0,0.0,1,1789167886.161338,38.99033896,-76.93988718666667,-3.2340000000000018,0,1,45.657048999999994,41.757444,263.34798400000005,1,1,1789167886.503162,-0.9967594875043974,0.06802294023889165,-0.04208316481025606,0.00850946007571166,-178.69543036977788,-4.745843428190436,-7.862152191993368,4.3982297150257105e-05,-0.004140095518655749,0.0025357888702225613,0.29998542844772336,-0.09649743759155273,-9.691912354850768
2026-09-11T19:04:46.547,5.180266112000027,-365.5679931640625,-32901.119384765625,-131604.4775390625,-250.41407531738284,-0.09693435668945313,-0.02630305476486683,-0.01801759251393378,-0.040304206589866144,0.0,0.0,0.02444458194077015,200.25001525878906,8.800049498677254,0.0,0.0,0.0,1,1789167886.161338,38.99033896,-76.93988718666667,-3.2340000000000018,0,1,45.657048999999994,41.757444,263.34798400000005,1,1,1789167886.5431619,-0.9966589368242559,0.06963349125170201,-0.041735834550152916,0.008958831332573101,-178.63909168027791,-4.7003798273205675,-8.049026814623433,-0.00016493361431346414,-0.010827499080597222,-0.001910437399232993,0.3067520170593262,-0.14602102090835573,-9.726333696918488
2026-09-11T19:04:46.581,5.213683840000044,-365.5688781738281,-32901.19903564453,-131604.79614257812,-250.4146815490723,-0.09754058837890625,-0.02630305476486683,-0.01801759251393378,-0.040304206589866144,0.0,0.0,0.02444458194077015,200.25001525878906,8.800049498677254,0.0,0.0,0.0,1,1789167886.161338,38.99033896,-76.93988718666667,-3.2340000000000018,0,1,45.657048999999994,41.757444,263.34798400000005,1,1,1789167886.575162,-0.9965695716748851,0.07093486803726867,-0.04165187155806682,0.009080468268847508,-178.6197049176665,-4.687997721812671,-8.19928712130735,0.0014432127584741111,-0.0079100067029635,-0.002574360646691636,0.2779204655838013,-0.09355544254302979,-9.71593864774704
2026-09-11T19:04:46.614,5.247103455999991,-365.56976318359375,-32901.27868652344,-131605.11474609375,-250.41528778076173,-0.09814682006835938,-0.02630305476486683,-0.01801759251393378,-0.040304206589866144,0.0,0.0,0.02444458194077015,200.25001525878906,8.800049498677254,0.0,0.0,0.0,1,1789167886.161338,38.99033896,-76.93988718666667,-3.2340000000000018,0,1,45.657048999999994,41.757444,263.34798400000005,1,1,1789167886.603162,-0.9965061748199276,0.07204694776933171,-0.0413219977379493,0.008784837267918885,-178.65112942169893,-4.65118781519025,-8.32530980576836,0.002673844414055313,-0.00039601520727751335,0.0005239478414486978,0.26389695585250855,-0.055701772918701174,-9.694854349899293
2026-09-11T19:04:46.648,5.2805188480000425,-365.5706481933594,-32901.358337402344,-131605.43334960938,-250.4158940124512,-0.0987530517578125,-0.02630305476486683,-0.01801759251393378,-0.040304206589866144,0.0,0.0,0.02444458194077015,200.25001525878906,8.800049498677254,0.0,0.0,0.0,1,1789167886.161338,38.99033896,-76.93988718666667,-3.2340000000000018,0,1,45.657048999999994,41.757444,263.34798400000005,1,1,1789167886.643162,-0.9963967927119716,0.07362872716336204,-0.041330099407293895,0.00800405475883374,-178.73311146545586,-4.656608097827508,-8.503891808310636,0.0012192870154432388,-0.0022488567411946933,-0.0027373743988279068,0.2971414999008179,-0.026477955436706543,-9.703091936035156
2026-09-11T19:04:46.681,5.31395040000001,-365.5715026855469,-32901.43524169922,-131605.74096679688,-250.41647933959962,-0.09933837890625001,-0.02630305476486683,-0.01801759251393378,-0.040304206589866144,0.0,0.0,0.02456665225327015,201.25001525878906,8.843994811177254,0.0,0.0,0.0,1,1789167886.161338,38.99033896,-76.93988718666667,-3.2340000000000018,0,1,45.657048999999994,41.757444,263.34798400000005,1,1,1789167886.675162,-0.996331102531822,0.07482491713512415,-0.04084453282577554,0.007569018542060857,-178.78160132917665,-4.603318390371663,-8.638726377903133,0.0004366813788489813,0.0022972023614749363,-0.0006164502918043971,0.23790933292388916,-0.04707192077636718,-9.703974534549713
2026-09-11T19:04:46.714,5.347390912000037,-365.5723876953125,-32901.514892578125,-131606.0595703125,-250.41708557128908,-0.09994461059570313,-0.02630305476486683,-0.01801759251393378,-0.040304206589866144,0.0,0.0,0.02456665225327015,201.25001525878906,8.843994811177254,0.0,0.0,0.0,1,1789167886.161338,38.99033896,-76.93988718666667,-3.2340000000000018,0,1,45.657048999999994,41.757444,263.34798400000005,1,1,1789167886.703162,-0.9962432668504011,0.07596969558849498,-0.04089364918393826,0.007461103393797243,-178.78822566650493,-4.608477653245849,-8.770195938527106,0.0006031857894892403,0.0029916688708434805,-0.00023527038316883562,0.3093998126029968,-0.0616838295173645,-9.710839189662934
2026-09-11T19:04:46.748,5.3808096000000205,-365.5724792480469,-32901.52313232422,-131606.09252929688,-250.41714828491212,-0.10000732421875001,0.0,0.0,0.0,0.539147213497512,0.0,0.024694444611668587,202.29689025878906,8.890000060200691,0.015258789993822575,5.493164397776127,164.37402921918596,1,1789167886.161338,38.99033896,-76.93988718666667,-3.2340000000000018,0,1,45.657048999999994,41.757444,263.34798400000005,1,1,1789167886.743162,-0.9961308621356327,0.07750318889475416,-0.04079677154236144,0.007223893948937274,-178.8091634696913,-4.597653198462463,-8.94558823074685,0.0012932889757277981,-0.0005761331860833282,-0.0016861625903517219,0.2591897637748718,-0.05501530740737916,-9.698580876960754
2026-09-11T19:04:46.781,5.414228352000009,-365.5724792480469,-32901.52313232422,-131606.09252929688,-250.41714828491212,-0.10000732421875001,0.0,0.0,0.0,0.0,0.0,0.02468872256577015,202.25001525878906,8.887940123677254,0.0,0.0,-164.37371442769583,1,1789167886.161338,38.99033896,-76.93988718666667,-3.2340000000000018,0,1,45.657048999999994,41.757444,263.34798400000005,1,1,1789167886.775162,-0.9960262771411791,0.07880219887287579,-0.040870155964228085,0.007176283755723513,-178.8079322465243,-4.604918107091713,-9.095178844469858,0.0015039502164435137,4.747295565424577e-05,-0.0010871655910672678,0.3103804776191711,-0.06501809057235718,-9.722607169857026
2026-09-11T19:04:46.814,5.447641152000017,-365.5724792480469,-32901.52313232422,-131606.09252929688,-250.41714828491212,-0.10000732421875001,0.0,0.0,0.0,0.0,0.0,0.02468872256577015,202.25001525878906,8.887940123677254,0.0,0.0,0.0,1,1789167886.161338,38.99033896,-76.93988718666667,-3.2340000000000018,0,1,45.657048999999994,41.757444,263.34798400000005,1,1,1789167886.8031619,-0.99595056057979,0.07984930244670004,-0.040690150917292375,0.0071331197877079824,-178.80970555445862,-4.583484978082051,-9.215287110212678,0.0002420771672516135,-0.001532224550325822,-0.0015655603390389136,0.2894923127746582,-0.06992141565322876,-9.704464867057801
2026-09-11T19:04:46.848,5.481060800000023,-365.5724792480469,-32901.52313232422,-131606.09252929688,-250.41714828491212,-0.10000732421875001,0.0,0.0,0.0,0.0,0.0,0.02498054690659046,204.64064025878906,8.992996886372566,0.03051757998764515,10.986328795552254,328.73861494741936,1,1789167886.161338,38.99033896,-76.93988718666667,-3.2340000000000018,0,1,45.657048999999994,41.757444,263.34798400000005,1,1,1789167886.843162,-0.9958353540104622,0.08142886501819813,-0.04039471332282518,0.007039515627664728,-178.81595146765065,-4.548706052813774,-9.396310643974125,0.00124651415177435,-0.001011418301530714,-0.0007726572598578896,0.28331412317276,-0.05589790592193604,-9.721822637844085
2026-09-11T19:04:46.882,5.514556255999992,-365.5724792480469,-32901.52313232422,-131606.09252929688,-250.41714828491212,-0.10000732421875001,0.0,0.0,0.0,0.0,0.0,0.02554321475327015,209.25001525878906,9.195557311177254,0.0,0.0,-327.99460307578767,1,1789167886.161338,38.99033896,-76.93988718666667,-3.2340000000000018,0,1,45.657048999999994,41.757444,263.34798400000005,1,1,1789167886.875162,-0.9957376975568248,0.08271350813915354,-0.04018221777809627,0.007092433290551701,-178.8060699074518,-4.522387335696989,-9.544183156699829,0.0016046557142835865,0.00019792033717615695,0.0012784536770858463,0.28027406162261964,-0.07149047967910767,-9.707210729103087
2026-09-11T19:04:46.915,5.547978144000012,-365.5724792480469,-32901.52313232422,-131606.09252929688,-250.41714828491212,-0.10000732421875001,0.0,0.0,0.0,0.0,0.0,0.026235582306981087,214.92189025878906,9.444809630513191,0.0305175818502903,10.986329466104507,328.71660230857333,1,1789167886.161338,38.99033896,-76.93988718666667,-3.2340000000000018,0,1,45.657048999999994,41.757444,263.34798400000005,1,1,1789167886.903162,-0.9956772028750572,0.08368251960980928,-0.03968800322162974,0.00700042762523365,-178.817022136397,-4.465641036901747,-9.654487638140807,-0.0013449507215868304,-0.0015179128504594684,-0.001189965484009734,0.2774301330757141,-0.06629295509338379,-9.716919312763213
2026-09-11T19:04:46.948,5.581396288000008,-365.5724792480469,-32901.52313232422,-131606.09252929688,-250.41714828491212,-0.10000732421875001,0.0,0.0,0.0,0.0,0.0,0.027303697541356087,223.67189025878906,9.829331114888191,0.0610351599752903,21.972657591104507,328.7533899249933,1,1789167886.161338,38.99033896,-76.93988718666667,-3.2340000000000018,0,1,45.657048999999994,41.757444,263.34798400000005,1,1,1789167886.942162,-0.9955573406937521,0.08517541738899757,-0.039536288553276344,0.006900112377804084,-178.82330304750167,-4.447514653442856,-9.825817540266002,0.00140656084418223,-0.0015598007525073323,0.0024148375530593544,0.2699770789527893,-0.06580262258529664,-9.727118228931428
2026-09-11T19:04:46.981,5.6148223360000316,-365.5724792480469,-32901.52313232422,-131606.09252929688,-250.41714828491212,-0.10000732421875001,0.0,0.0,0.0,0.0,0.0,0.02871895022690296,235.26564025878906,10.338822081685066,0.0457763709127903,16.479493528604507,-164.3378260719326,1,1789167886.161338,38.99033896,-76.93988718666667,-3.2340000000000018,0,1,45.657048999999994,41.757444,263.34798400000005,1,1,1789167886.975162,-0.9954507316306059,0.08650796595809984,-0.0392901098800861,0.007106334321876448,-178.79623100711297,-4.4157571132921865,-9.9798414677886,0.0013466960508388248,0.0011725121914897907,0.004509581721302948,0.264681487865448,-0.09443804105758667,-9.709662391643525
2026-09-11T19:04:47.015,5.648245312000029,-365.5724792480469,-32901.52313232422,-131606.09252929688,-250.41714828491212,-0.10000732421875001,0.0,0.0,0.0,0.0,0.0,0.03062629885971546,250.89064025878906,11.025467589497566,0.0915527418255806,32.958987057209015,493.05883260084124,1,1789167886.161338,38.99033896,-76.93988718666667,-3.2340000000000018,0,1,45.657048999999994,41.757444,263.34798400000005,1,1,1789167887.003162,-0.9953647354727491,0.08756909009524166,-0.0390772679989855,0.007325637370985067,-178.7686031693708,-4.387946331072266,-10.102696458315444,0.0004337143191205909,-0.00043929937272697275,0.0031763247057044804,0.2671331504058838,-0.09679163709640504,-9.725647231407166
2026-09-11T19:04:47.050,5.681661888000008,-365.5737609863281,-32901.63848876953,-131606.55395507812,-250.4180262756348,-0.10088531494140626,-0.02583135850727558,-0.017694480577483775,-0.03958142577282515,-0.5295120774041844,0.0,0.03397369757294655,278.3125305175781,12.230531126260757,0.0915527418255806,32.958987057209015,0.0,1,1789167886.161338,38.99033896,-76.93988718666667,-3.2340000000000018,0,1,45.657048999999994,41.757444,263.34798400000005,1,1,1789167887.0431619,-0.9952832987659382,0.08899239520115824,-0.03800898956023905,0.006842916524605471,-178.82861936641208,-4.26913232860352,-10.262591626163811,0.0019596556841392334,0.010287668742955376,0.0071715578964447,0.14513842239379884,-0.0007845320129394532,-9.674064251556397
2026-09-11T19:04:47.082,5.715078144000017,-365.5746154785156,-32901.715393066406,-131606.86157226562,-250.41861160278322,-0.10147064208984376,-0.02583135850727558,-0.017694480577483775,-0.03958142577282515,0.0,0.0,0.03763199225068092,308.2812805175781,13.547517210245132,0.0915527492761612,32.95898973941803,8.026659284905566e-05,1,1789167886.161338,38.99033896,-76.93988718666667,-3.2340000000000018,0,1,45.657048999999994,41.757444,263.34798400000005,1,1,1789167887.075162,-0.9951800550637943,0.09027116144100358,-0.03784314514543182,0.005972585773125057,-178.9243980667651,-4.25773859211438,-10.406029504576042,0.000652229541470281,0.004655316713844475,0.01031472134636129,0.30488875352859496,0.05511337390899658,-9.751340654830933
2026-09-11T19:04:47.115,5.748493088000032,-365.5754699707031,-32901.79229736328,-131607.16918945312,-250.41919692993167,-0.10205596923828125,-0.02583135850727558,-0.017694480577483775,-0.03958142577282515,0.0,0.0,0.0393371619284153,322.2500305175781,14.161378294229507,0.0,0.0,-986.3547800470225,1,1789167886.161338,38.99033896,-76.93988718666667,-3.2340000000000018,0,1,45.657048999999994,41.757444,263.34798400000005,1,1,1789167887.103162,-0.9950364123941521,0.09122269895366385,-0.039383840751842786,0.005465372175591964,-178.96196102036743,-4.437959633409626,-10.51643445501716,-0.00137584304934713,-0.002171713188256544,0.004141491782057345,0.5447594164848328,-0.024222425899505615,-9.636995113945007
2026-09-11T19:04:47.149,5.781911456000046,-365.5763244628906,-32901.869201660156,-131607.47680664062,-250.4197822570801,-0.10264129638671876,-0.02583135850727558,-0.017694480577483775,-0.03958142577282515,0.0,0.0,0.0395813025534153,324.2500305175781,14.249268919229507,0.0,0.0,0.0,1,1789167886.161338,38.99033896,-76.93988718666667,-3.2340000000000018,0,1,45.657048999999994,41.757444,263.34798400000005,1,1,1789167887.143162,-0.9948962738054671,0.0924539415517597,-0.03993116811572474,0.0062589833403429735,-178.859810099782,-4.490707237750542,-10.663001621607316,0.0011569787611470411,-0.02926201570601173,-0.004200309377849554,0.3343087040138245,-0.1487668829536438,-9.720645839824677
2026-09-11T19:04:47.184,5.815339040000026,-365.5771789550781,-32901.94610595703,-131607.78442382812,-250.42036758422853,-0.10322662353515626,-0.02583135850727558,-0.017694480577483775,-0.03958142577282515,0.0,0.0,0.0397033728659153,325.2500305175781,14.293214231729507,0.0,0.0,0.0,1,1789167887.1622636,38.990339425,-76.93988704333333,-3.381000000000004,0,1,45.630024999999996,41.744521000000006,263.38044099999996,1,1,1789167887.175162,-0.9948791128174188,0.09332593716130026,-0.03834685115832388,0.0059446899693803195,-178.90902775962633,-4.312218333302745,-10.759121563340887,0.006342351968822194,-0.06560745018124245,-0.004685510909903976,0.35421620384216307,0.06325289354324341,-9.688087761287688
