timestamp,time_s,drive_pos_turns,drive_encoder_count,drive_wheel_angle_deg,drive_distance_m,drive_distance_since_start_m,drive_velocity_turns_s,drive_velocity_mps,drive_velocity_mph,drive_acceleration_mps2,drive_iq_A,steer_pos_turns,steer_encoder_count,steer_angle_deg,steer_velocity_turns_s,steer_velocity_deg_s,steer_acceleration_deg_s2,gps_received,gps_ros_stamp_s,gps_latitude_deg,gps_longitude_deg,gps_altitude_m,gps_status,gps_service,gps_cov_x_m2,gps_cov_y_m2,gps_cov_z_m2,gps_covariance_type,imu_received,imu_ros_stamp_s,imu_qx,imu_qy,imu_qz,imu_qw,imu_roll_deg,imu_pitch_deg,imu_yaw_deg,imu_gyro_x_rad_s,imu_gyro_y_rad_s,imu_gyro_z_rad_s,imu_accel_x_mps2,imu_accel_y_mps2,imu_accel_z_mps2
2026-09-11T19:18:38.611,7.4560000484780176e-06,0.0,0.0,0.0,0.0,0.0,0.0,0.0,0.0,0.0,0.0,0.0008220672607421875,6.734375,0.2959442138671875,0.0,0.0,0.0,0,nan,nan,nan,nan,-999,-999,nan,nan,nan,-999,1,1789168718.6028507,-0.8484148490152246,0.5281156248179395,-0.020265701867623255,-0.029587702199459026,178.34608421334465,-3.763537785903741,-63.74798282169564,-0.0010197958819402868,0.000736528944341607,-0.0008632398480363954,0.6301753393936157,0.29331690633773805,-9.639250643482209
2026-09-11T19:18:38.644,0.033415551999951276,0.0,0.0,0.0,0.0,0.0,0.0,0.0,0.0,0.0,0.0,0.0008220672607421875,6.734375,0.2959442138671875,0.0,0.0,0.0,0,nan,nan,nan,nan,-999,-999,nan,nan,nan,-999,1,1789168718.6348507,-0.8484338916102487,0.5280824686020382,-0.020253503703331,-0.029641752816000407,178.3399298272653,-3.7655588140278837,-63.743369726253945,-0.0008820894039579342,0.002325476695357245,-7.592182246175333e-05,0.6567513613319397,0.2730171405029297,-9.66514019990921
2026-09-11T19:18:38.679,0.06683443199995054,0.0,0.0,0.0,0.0,0.0,0.0,0.0,0.0,0.0,0.0,0.0008220672607421875,6.734375,0.2959442138671875,0.0,0.0,0.0,0,nan,nan,nan,nan,-999,-999,nan,nan,nan,-999,1,1789168718.6748507,-0.8484151657341958,0.5281193762984911,-0.020379900134868623,-0.02943281503360688,178.36811450479075,-3.7652840379048373,-63.74902787665831,0.0010470230182713983,0.0011793189755725686,0.0009330530181161686,0.6381187260246277,0.26978094594955443,-9.630228525333406
2026-09-11T19:18:38.712,0.10025683200001367,0.0,0.0,0.0,0.0,0.0,0.0,0.0,0.0,0.0,0.0,0.0008220672607421875,6.734375,0.2959442138671875,0.0,0.0,0.0,0,nan,nan,nan,nan,-999,-999,nan,nan,nan,-999,1,1789168718.7028506,-0.8484287130131155,0.5280942704412076,-0.020429742465870253,-0.02945820912505161,178.36854675236472,-3.771627251753702,-63.74568680803948,-0.0011000810275320259,0.005172806837060793,0.0007513642429835589,0.6587126913642882,0.26948674644470216,-9.694364017391205
2026-09-11T19:18:38.746,0.13366886400012845,0.0,0.0,0.0,0.0,0.0,0.0,0.0,0.0,0.0,0.0,0.0008220672607421875,6.734375,0.2959442138671875,0.0,0.0,0.0,0,nan,nan,nan,nan,-999,-999,nan,nan,nan,-999,1,1789168718.7348506,-0.848433220623064,0.528082850059009,-0.020494471157956284,-0.02948813776224691,178.3694993041842,-3.7797210533181116,-63.744217996991644,-0.001175479251218181,0.004887270971434521,-0.00034662238944607385,0.660674021396637,0.2804701946258545,-9.666807330436706
2026-09-11T19:18:38.779,0.16708489600000576,0.0,0.0,0.0,0.0,0.0,0.0,0.0,0.0,0.0,0.0,0.0008220672607421875,6.734375,0.2959442138671875,0.0,0.0,0.0,1,1789168718.7515576,38.99021653166667,-76.93874393666667,-9.758000000000003,0,1,10.137856000000001,11.744329,118.24387600000001,1,1,1789168718.7748506,-0.8484437770706053,0.5280553283412072,-0.020595586202281368,-0.02960657341890979,178.36395638490305,-3.79668739828717,-63.7404736900933,0.0013439035240356337,0.005163032993249626,-0.0004576253298729132,0.6569474943351745,0.284000588684082,-9.648076628627777
2026-09-11T19:18:38.813,0.20050563200015858,0.0,0.0,0.0,0.0,0.0,0.0,0.0,0.0,0.0,0.0,0.0008220672607421875,6.734375,0.2959442138671875,0.0,0.0,0.0,1,1789168718.7515576,38.99021653166667,-76.93874393666667,-9.758000000000003,0,1,10.137856000000001,11.744329,118.24387600000001,1,1,1789168718.8028507,-0.8484481979039936,0.5280406384585165,-0.020613753888708956,-0.029728988553323503,178.35305839138198,-3.805841704127055,-63.73828274617262,-0.0013809045041779135,0.004545710036819231,-0.0007449065247511799,0.672049735584259,0.2923362413215637,-9.672495187530517
2026-09-11T19:18:38.846,0.23392351999996208,0.0,0.0,0.0,0.0,0.0,0.0,0.0,0.0,0.0,0.0,0.0008220672607421875,6.734375,0.2959442138671875,0.0,0.0,0.0,1,1789168718.7515576,38.99021653166667,-76.93874393666667,-9.758000000000003,0,1,10.137856000000001,11.744329,118.24387600000001,1,1,1789168718.8428507,-0.8484274553628,0.5280714189419491,-0.02065055357038497,-0.029748682667928808,178.35350583370536,-3.810677747220738,-63.742481362809926,0.002226516526769166,0.0016568410589182171,0.0015718435243460933,0.6546919647979736,0.2779204655838013,-9.666316997928618
2026-09-11T19:18:38.883,0.2673362560001351,0.0,0.0,0.0,0.0,0.0,0.0,0.0,0.0,0.0,0.0,0.0008220672607421875,6.734375,0.2959442138671875,0.0,0.0,0.0,1,1789168718.7515576,38.99021653166667,-76.93874393666667,-9.758000000000003,0,1,10.137856000000001,11.744329,118.24387600000001,1,1,1789168718.8738506,-0.8484085901627216,0.5281029379152029,-0.02078036678064014,-0.029636589883057556,178.37243663010415,-3.816590722690239,-63.74723863321057,0.0008829620685839313,0.0016880824525289156,0.0020347048419749893,0.6690096740341187,0.264681487865448,-9.692402687358856
2026-09-11T19:18:38.916,0.30076003199997103,0.0,0.0,0.0,0.0,0.0,0.0,0.0,0.0,0.0,0.0,0.0008220672607421875,6.734375,0.2959442138671875,0.0,0.0,0.0,1,1789168718.7515576,38.99021653166667,-76.93874393666667,-9.758000000000003,0,1,10.137856000000001,11.744329,118.24387600000001,1,1,1789168718.9148507,-0.8483994332889134,0.5281210482850948,-0.02083957270826075,-0.02953425405593183,178.3860793683648,-3.816192323119114,-63.75001676518608,0.00029146998508305304,-0.0032105331590435693,-0.00021956241990088665,0.6690096740341187,0.27772433258056645,-9.65906007680893
2026-09-11T19:18:38.949,0.33417347199997494,0.0,0.0,0.0,0.0,0.0,0.0,0.0,0.0,0.0,0.0,0.0008220672607421875,6.734375,0.2959442138671875,0.0,0.0,0.0,1,1789168718.7515576,38.99021653166667,-76.93874393666667,-9.758000000000003,0,1,10.137856000000001,11.744329,118.24387600000001,1,1,1789168718.9428506,-0.8484116820995109,0.5281050227478155,-0.02076879883212347,-0.029518801138913076,178.3832262945475,-3.808334100455159,-63.74773042531284,0.0012918927123262028,-0.0028832839242946325,0.00035185837720205684,0.624781681804657,0.27635140155792237,-9.647095963611603
2026-09-11T19:18:38.980,0.3675876160000371,0.0,0.0,0.0,0.0,0.0,0.0,0.0,0.0,0.0,0.0,0.0008220672607421875,6.734375,0.2959442138671875,0.0,0.0,0.0,1,1789168718.7515576,38.99021653166667,-76.93874393666667,-9.758000000000003,0,1,10.137856000000001,11.744329,118.24387600000001,1,1,1789168718.9748507,-0.8484073777616942,0.528117378791075,-0.02075681583828625,-0.02942974982268245,178.3912357054996,-3.8017970621013797,-63.74955229227086,0.0006970845032465353,-0.0014039428503042387,0.0005045746867515607,0.6842099817848205,0.2690944804382324,-9.677888845119476
2026-09-11T19:18:39.014,0.40101222399994185,0.0,0.0,0.0,0.0,0.0,0.0,0.0,0.0,0.0,0.0,0.0008220672607421875,6.734375,0.2959442138671875,0.0,0.0,0.0,1,1789168718.7515576,38.99021653166667,-76.93874393666667,-9.758000000000003,0,1,10.137856000000001,11.744329,118.24387600000001,1,1,1789168719.0028508,-0.8484028250417865,0.5281220322473552,-0.020719405791351717,-0.029503758060498254,178.38177692163003,-3.802645651723343,-63.74995518136116,-0.001396787000371062,-0.001433089848812544,0.001208989572856472,0.6616546864128113,0.2916497758102417,-9.65827554479599
2026-09-11T19:18:39.048,0.43443235200015806,0.0,0.0,0.0,0.0,0.0,0.0,0.0,0.0,0.0,0.0,0.0008220672607421875,6.734375,0.2959442138671875,0.0,0.0,0.0,1,1789168718.7515576,38.99021653166667,-76.93874393666667,-9.758000000000003,0,1,10.137856000000001,11.744329,118.24387600000001,1,1,1789168719.0428507,-0.8484219482899492,0.5280796638972796,-0.020720561564131355,-0.029710681016935185,178.36148744246967,-3.8152095582075423,-63.74381839747597,0.0016819738001469353,-0.0005171410573659199,0.0006021385919380437,0.6741091321182251,0.2813527931404114,-9.689558758811952
2026-09-11T19:18:39.081,0.46784796800011463,0.0,0.0,0.0,0.0,0.0,0.0,0.0,0.0,0.0,0.0,0.0008220672607421875,6.734375,0.2959442138671875,0.0,0.0,0.0,1,1789168718.7515576,38.99021653166667,-76.93874393666667,-9.758000000000003,0,1,10.137856000000001,11.744329,118.24387600000001,1,1,1789168719.0738506,-0.8484285492819859,0.5280791618847618,-0.020609070815605864,-0.029608474234072195,178.36469462837985,-3.7981615913520708,-63.743719968714025,1.64060949687467e-05,0.0016109388995907662,0.000963072681250471,0.6402761890602112,0.27684173406600954,-9.668376394462586
2026-09-11T19:18:39.114,0.501272672000141,0.0,0.0,0.0,0.0,0.0,0.0,0.0,0.0,0.0,0.0,0.0008220672607421875,6.734375,0.2959442138671875,0.0,0.0,0.0,1,1789168718.7515576,38.99021653166667,-76.93874393666667,-9.758000000000003,0,1,10.137856000000001,11.744329,118.24387600000001,1,1,1789168719.1028507,-0.8484224915186711,0.5280850660833609,-0.020723034960985612,-0.02959720741875267,178.37272218218504,-3.808588309071862,-63.744779781396,-0.0012164944886400477,0.0018514452705155847,0.0007719591281570919,0.6780317921829223,0.2702712784576416,-9.663963401889802
2026-09-11T19:18:39.147,0.534688640000013,0.0,0.0,0.0,0.0,0.0,0.0,0.0,0.0,0.0,0.0,0.0008220672607421875,6.734375,0.2959442138671875,0.0,0.0,0.0,1,1789168718.7515576,38.99021653166667,-76.93874393666667,-9.758000000000003,0,1,10.137856000000001,11.744329,118.24387600000001,1,1,1789168719.1428506,-0.8484438712469501,0.5280579148024902,-0.02064469519810413,-0.02952342321128002,178.37504732953477,-3.796438947633694,-63.74109098369247,0.0004939281783143953,0.002598620723294357,0.0007566002307395418,0.6505731717300415,0.2640930888557434,-9.661413672847749
2026-09-11T19:18:39.180,0.5681011520000538,0.0,0.0,0.0,0.0,0.0,0.0,0.0,0.0,0.0,0.0,0.0008220672607421875,6.734375,0.2959442138671875,0.0,0.0,0.0,1,1789168718.7515576,38.99021653166667,-76.93874393666667,-9.758000000000003,0,1,10.137856000000001,11.744329,118.24387600000001,1,1,1789168719.1748507,-0.8484390215407847,0.5280651627006295,-0.020686947306135378,-0.029503574021236108,178.3795737142192,-3.799365228112149,-63.742199031303656,0.00021956241990088665,0.002035053907825388,0.000508763476956347,0.6532209672737121,0.28301992366790774,-9.647292096614837
2026-09-11T19:18:39.214,0.6015317760000016,0.0,0.0,0.0,0.0,0.0,0.0,0.0,0.0,0.0,0.0,0.0008220672607421875,6.734375,0.2959442138671875,0.0,0.0,0.0,1,1789168718.7515576,38.99021653166667,-76.93874393666667,-9.758000000000003,0,1,10.137856000000001,11.744329,118.24387600000001,1,1,1789168719.2028506,-0.8484529848302886,0.52804151093945,-0.020549471332966165,-0.029621183050180126,178.35967748348054,-3.7930547587022287,-63.738480867188194,-0.001960353815840031,0.0007337364175384162,0.001064650843716541,0.655672629814148,0.28870778076171877,-9.666022798423766
2026-09-11T19:18:39.247,0.6349543040000754,0.0,0.0,0.0,0.0,0.0,0.0,0.0,0.0,0.0,0.0,0.0008220672607421875,6.734375,0.2959442138671875,0.0,0.0,0.0,1,1789168718.7515576,38.99021653166667,-76.93874393666667,-9.758000000000003,0,1,10.137856000000001,11.744329,118.24387600000001,1,1,1789168719.2428508,-0.8484487679281366,0.5280499080393886,-0.02051961138238526,-0.029612976370774473,178.3587065315406,-3.789666192925172,-63.7395702678156,-9.389871375729493e-05,0.0017542304311795006,0.00046181412007769964,0.6444930486297608,0.2780185320854187,-9.650332158164979
2026-09-11T19:18:39.281,0.6683771200000592,0.0,0.0,0.0,0.0,0.0,0.0,0.0,0.0,0.0,0.0,0.0008220672607421875,6.734375,0.2959442138671875,0.0,0.0,0.0,1,1789168718.7515576,38.99021653166667,-76.93874393666667,-9.758000000000003,0,1,10.137856000000001,11.744329,118.24387600000001,1,1,1789168719.2748506,-0.8484258169424861,0.5280913577633477,-0.020586449394553594,-0.02948472659639664,178.37544090312508,-3.7884874487558937,-63.7455664832396,0.00035028758087526197,0.0018517943363659836,0.0007904596182282318,0.6585165583610535,0.2704674114608765,-9.680928906669616
2026-09-11T19:18:39.314,0.7018001599999479,0.0,0.0,0.0,0.0,0.0,0.0,0.0,0.0,0.0,0.0,0.0008220672607421875,6.734375,0.2959442138671875,0.0,0.0,0.0,1,1789168718.7515576,38.99021653166667,-76.93874393666667,-9.758000000000003,0,1,10.137856000000001,11.744329,118.24387600000001,1,1,1789168719.3028507,-0.8484171852178926,0.5281062083187094,-0.02062473170806426,-0.0294403295524116,178.38215351569468,-3.7895547022981906,-63.74774214660573,-0.0007246607054280456,-0.0006888814557621619,0.0009332275510413679,0.662046952419281,0.2730171405029297,-9.660138808326721
2026-09-11T19:18:39.348,0.7352152640000895,0.0,0.0,0.0,0.0,0.0,0.0,0.0,0.0,0.0,0.0,0.001007080078125,8.25,0.362548828125,0.0,0.0,0.0,1,1789168718.7515576,38.99021653166667,-76.93874393666667,-9.758000000000003,0,1,10.137856000000001,11.744329,118.24387600000001,1,1,1789168719.3428507,-0.8484226372419978,0.5280957680079429,-0.020528527653737607,-0.02953756895555367,178.36680166919166,-3.7860560392771485,-63.74593739333515,0.00034313173094208517,0.0021580996200909882,0.00313653119875901,0.685877112312317,0.27772433258056645,-9.674358451061249
2026-09-11T19:18:39.381,0.7686282879999453,0.0,0.0,0.0,0.0,0.0,0.0,0.0,0.0,0.0,0.0,0.001129150390625,9.25,0.406494140625,0.0,0.0,0.0,1,1789168718.7515576,38.99021653166667,-76.93874393666667,-9.758000000000003,0,1,10.137856000000001,11.744329,118.24387600000001,1,1,1789168719.3748507,-0.8484388726243394,0.5280621282532759,-0.020537296614805817,-0.02966626994275663,178.35463758167063,-3.794639582300678,-63.74115333537171,-0.0005937610115284709,0.003837280893434733,5.3581608036225916e-05,0.6619488859176637,0.2807643941307068,-9.676319781093596
2026-09-11T19:18:39.414,0.8020498559999396,0.0,0.0,0.0,0.0,0.0,0.0,0.0,0.0,0.0,0.0,0.001251220703125,10.25,0.450439453125,0.0,0.0,0.0,1,1789168718.7515576,38.99021653166667,-76.93874393666667,-9.758000000000003,0,1,10.137856000000001,11.744329,118.24387600000001,1,1,1789168719.4028506,-0.8484273245264591,0.5280750273005784,-0.02061581327089366,-0.0297124347966904,178.35495110540896,-3.8051064308246803,-63.74296872824172,-0.0015639895427121185,0.001805543111188134,0.0022383847656827277,0.6701864720535278,0.28223539165496825,-9.67582944858551
2026-09-11T19:18:39.448,0.8354725440001403,0.0,0.0,0.0,0.0,0.0,0.0,0.0,0.0,0.0,0.0,0.001251220703125,10.25,0.450439453125,0.0,0.0,0.0,1,1789168718.7515576,38.99021653166667,-76.93874393666667,-9.758000000000003,0,1,10.137856000000001,11.744329,118.24387600000001,1,1,1789168719.4428506,-0.848422712693087,0.5280641014645364,-0.020829215582245996,-0.029888946270881882,178.35062186742786,-3.836556664483854,-63.74158747889412,0.00023631758072003222,0.0031110493916798924,0.0006110397711232147,0.6787182576942443,0.2774301330757141,-9.676810113601684
2026-09-11T19:18:39.481,0.8688931199999388,0.0,0.0,0.0,0.0,0.0,0.0,0.0,0.0,0.0,0.0,0.001251220703125,10.25,0.450439453125,0.0,0.0,0.0,1,1789168718.7515576,38.99021653166667,-76.93874393666667,-9.758000000000003,0,1,10.137856000000001,11.744329,118.24387600000001,1,1,1789168719.4748507,-0.8484384989366033,0.5280430767671417,-0.020824655075451812,-0.02981537089291734,178.35742245792986,-3.8316158924513175,-63.73888290654006,-6.579891280018622e-05,0.0021734585175085387,0.00037995817815916554,0.6582223588562012,0.273997805519104,-9.660138808326721
2026-09-11T19:18:39.517,0.9023189439999442,0.0,0.0,0.0,0.0,0.0,0.0,0.0,0.0,0.0,0.0,0.001251220703125,10.25,0.450439453125,0.0,0.0,0.0,1,1789168718.7515576,38.99021653166667,-76.93874393666667,-9.758000000000003,0,1,10.137856000000001,11.744329,118.24387600000001,1,1,1789168719.5148506,-0.8484745466345811,0.5279781995541448,-0.02076978661556769,-0.02997633187615599,178.3381154586037,-3.8358935122437354,-63.72967474086224,0.0011758283170685798,-0.0030195941388753895,-0.0004815363406252355,0.6672444770050049,0.2996912289428711,-9.679163709640504
2026-09-11T19:18:39.551,0.9357404480001605,0.0,0.0,0.0,0.0,0.0,0.0,0.0,0.0,0.0,0.0,0.001251220703125,10.25,0.450439453125,0.0,0.0,0.0,1,1789168718.7515576,38.99021653166667,-76.93874393666667,-9.758000000000003,0,1,10.137856000000001,11.744329,118.24387600000001,1,1,1789168719.5428507,-0.8484685794820014,0.5279927005615979,-0.02067281730292837,-0.02995684246086957,178.33420857003313,-3.825298204982965,-63.73147136979044,-0.0005661848093469604,0.0015439182563141839,-0.0008313003227248991,0.6486118416976929,0.28841358125686645,-9.661217539844513
2026-09-11T19:18:39.583,0.9691594880000594,0.0,0.0,0.0,0.0,0.0,0.0,0.0,0.0,0.0,0.0,0.001251220703125,10.25,0.450439453125,0.0,0.0,0.0,1,1789168718.7515576,38.99021653166667,-76.93874393666667,-9.758000000000003,0,1,10.137856000000001,11.744329,118.24387600000001,1,1,1789168719.5738506,-0.8484864120009614,0.527971801085724,-0.02062537664092616,-0.029852633827709526,178.34139996908445,-3.8143269681623573,-63.72875551413862,-0.001503601150593115,-0.0004565781323217166,-0.0014037683173790392,0.6522403022575378,0.2695848129463196,-9.669945458488465
2026-09-11T19:18:39.615,1.0025842239999747,0.0,0.0,0.0,0.0,0.0,0.0,0.0,0.0,0.0,0.0,0.001251220703125,10.25,0.450439453125,0.0,0.0,0.0,1,1789168718.7515576,38.99021653166667,-76.93874393666667,-9.758000000000003,0,1,10.137856000000001,11.744329,118.24387600000001,1,1,1789168719.6028507,-0.8485016399474615,0.5279505545974046,-0.020678556639558372,-0.029758632395756237,178.3536882231749,-3.813772839625822,-63.72618172754474,-0.0007747516549602829,-0.0018746581495671095,-0.0014028956527530419,0.6675386765098572,0.26791768241882324,-9.659452342815399
2026-09-11T19:18:39.649,1.03600467199999,0.0,0.0,0.0,0.0,0.0,0.0,0.0,0.0,0.0,0.0,0.001251220703125,10.25,0.450439453125,0.0,0.0,0.0,1,1789168718.7515576,38.99021653166667,-76.93874393666667,-9.758000000000003,0,1,10.137856000000001,11.744329,118.24387600000001,1,1,1789168719.6428506,-0.8485323479683531,0.527908815797552,-0.020692454953169626,-0.02961349291372832,178.3684909912556,-3.806258008339597,-63.72085792611825,-0.00043895030687657387,0.00392751441576284,-0.00016441001553786584,0.6392955240440369,0.269682879447937,-9.662198204860687
2026-09-11T19:18:39.683,1.0694198080000206,0.0,0.0,0.0,0.0,0.0,0.0,0.0,0.0,0.0,0.0,0.001251220703125,10.25,0.450439453125,0.0,0.0,0.0,1,1789168718.7515576,38.99021653166667,-76.93874393666667,-9.758000000000003,0,1,10.137856000000001,11.744329,118.24387600000001,1,1,1789168719.6748507,-0.8485425711549913,0.5278974949762638,-0.020657645991892435,-0.029546597055084223,178.37285387992884,-3.7987960234420513,-63.719387547880494,-0.0013788101090755204,0.002918539575184918,0.00032724923474893676,0.6638121494483947,0.27282100749969485,-9.654156751728058
2026-09-11T19:18:39.715,1.1028407680000782,0.0,0.0,0.0,0.0,0.0,0.0,0.0,0.0,0.0,0.0,0.001251220703125,10.25,0.450439453125,0.0,0.0,0.0,1,1789168718.7515576,38.99021653166667,-76.93874393666667,-9.758000000000003,0,1,10.137856000000001,11.744329,118.24387600000001,1,1,1789168719.7028506,-0.8485396620477195,0.5278928362392129,-0.020803986323302246,-0.02961063208243273,178.37545128740567,-3.8169164504515427,-63.71893913239223,0.00034766958699727045,-0.0008028514559173916,-0.0007339109504636155,0.6764627281570434,0.2792933966064453,-9.663865335388184
2026-09-11T19:18:39.749,1.136258687999998,0.0,0.0,0.0,0.0,0.0,0.0,0.0,0.0,0.0,0.0,0.001251220703125,10.25,0.450439453125,0.0,0.0,0.0,1,1789168718.7515576,38.99021653166667,-76.93874393666667,-9.758000000000003,0,1,10.137856000000001,11.744329,118.24387600000001,1,1,1789168719.7428508,-0.8485370946772063,0.5278921432187155,-0.020866828508315616,-0.02965231108567083,178.37519011408847,-3.8255589093537052,-63.718895775698826,-0.001198866663194905,-0.0011496483782886648,7.435102613495844e-05,0.6748936641311646,0.27811659858703613,-9.67582944858551
2026-09-11T19:18:39.783,1.1696804480000083,0.0,0.0,0.0,0.0,0.0,0.0,0.0,0.0,0.0,0.0,0.001251220703125,10.25,0.450439453125,0.0,0.0,0.0,1,1789168719.7489066,38.99021665,-76.93874400833333,-9.697000000000003,0,1,13.184160999999998,9.388096,69.82273599999999,1,1,1789168719.7748506,-0.8485474995912615,0.527878384543877,-0.02075986177596604,-0.02967457173756257,178.36648121634477,-3.8164623156513153,-63.71676486688164,-0.0012768828807590516,-0.00285012266850674,-0.0018090337696921226,0.6498867062187195,0.28910004676818846,-9.655529682750702
2026-09-11T19:18:39.816,1.2031020800000078,0.0,0.0,0.0,0.0,0.0,0.0,0.0,0.0,0.0,0.0,0.001251220703125,10.25,0.450439453125,0.0,0.0,0.0,1,1789168719.7489066,38.99021665,-76.93874400833333,-9.697000000000003,0,1,13.184160999999998,9.388096,69.82273599999999,1,1,1789168719.8028507,-0.8485683214353632,0.5278432255988066,-0.020702818762721942,-0.02974434973394856,178.35606664720052,-3.815063016451081,-63.711753510955276,-0.0001382300767579509,-0.0027646015351590184,0.0009035569537574643,0.6745994646263123,0.2813527931404114,-9.681026973171234
2026-09-11T19:18:39.849,1.236518751999938,0.0,0.0,0.0,0.0,0.0,0.0,0.0,0.0,0.0,0.0,0.001251220703125,10.25,0.450439453125,0.0,0.0,0.0,1,1789168719.7489066,38.99021665,-76.93874400833333,-9.697000000000003,0,1,13.184160999999998,9.388096,69.82273599999999,1,1,1789168719.8418508,-0.8485684500504757,0.5278544649169828,-0.020629981838778205,-0.02959143956401306,178.36661451669636,-3.798733846534883,-63.71342444645793,-0.0007033676885537149,0.0011915362803365287,-0.00072640603468004,0.6579281593513489,0.2785088645935059,-9.670043524990081
2026-09-11T19:18:39.883,1.2699333440000373,0.0,0.0,0.0,0.0,0.0,0.0,0.0,0.0,0.0,0.0,0.001251220703125,10.25,0.450439453125,0.0,0.0,0.0,1,1789168719.7489066,38.99021665,-76.93874400833333,-9.697000000000003,0,1,13.184160999999998,9.388096,69.82273599999999,1,1,1789168719.8748507,-0.8485745199218145,0.5278427380078274,-0.02067713191972993,-0.02959365282346906,178.36920078539592,-3.803437498908031,-63.71193378436709,-0.0013116149328737386,0.0018619172460275508,-0.0008253662032681184,0.6585165583610535,0.2749784705352783,-9.663865335388184
2026-09-11T19:18:39.916,1.303351168000063,0.0,0.0,0.0,0.0,0.0,0.0,0.0,0.0,0.0,0.0,0.001251220703125,10.25,0.450439453125,0.0,0.0,0.0,1,1789168719.7489066,38.99021665,-76.93874400833333,-9.697000000000003,0,1,13.184160999999998,9.388096,69.82273599999999,1,1,1789168719.9028506,-0.8485740882004796,0.5278491637323985,-0.020720025512763356,-0.02946112225429201,178.38474680564718,-3.799604396976639,-63.71315595764657,0.001124341104134747,0.0009002408281786752,-0.0006030112565640408,0.6449833811378478,0.2671331504058838,-9.680634707164764
2026-09-11T19:18:39.949,1.3367694400001255,0.0,0.0,0.0,0.0,0.0,0.0,0.0,0.0,0.0,0.0,0.001251220703125,10.25,0.450439453125,0.0,0.0,0.0,1,1789168719.7489066,38.99021665,-76.93874400833333,-9.697000000000003,0,1,13.184160999999998,9.388096,69.82273599999999,1,1,1789168719.9428506,-0.8485826552137821,0.5278319440907567,-0.02076850591845742,-0.029488730552788615,178.38491323987586,-3.805964753271419,-63.710876256260825,-0.0013400637996812462,0.005399001508119259,0.0006017895260876447,0.6535151667785645,0.2794895296096802,-9.637877712459565
2026-09-11T19:18:39.982,1.3701818240001558,0.0,0.0,0.0,0.0,0.0,0.0,0.0,0.0,0.0,0.0,0.001251220703125,10.25,0.450439453125,0.0,0.0,0.0,1,1789168719.7489066,38.99021665,-76.93874400833333,-9.697000000000003,0,1,13.184160999999998,9.388096,69.82273599999999,1,1,1789168719.9748507,-0.8485822299767032,0.5278221051020098,-0.02094060413831341,-0.029555294479519052,178.38879897381088,-3.826737499835801,-63.70978072649369,-0.0010971139678036354,0.004462108765648703,-0.0011623892818282235,0.6629295509338379,0.281941192150116,-9.66857252746582
2026-09-11T19:18:40.017,1.4036025279999649,0.0,0.0,0.0,0.0,0.0,0.0,0.0,0.0,0.0,0.0,0.001251220703125,10.25,0.450439453125,0.0,0.0,0.0,1,1789168719.7489066,38.99021665,-76.93874400833333,-9.697000000000003,0,1,13.184160999999998,9.388096,69.82273599999999,1,1,1789168720.0148506,-0.8485718150973,0.5278380580463853,-0.020918282040738832,-0.029585208749617828,178.38460313129158,-3.8264046011529347,-63.71182929628634,0.0006726498937186146,0.005489235030447366,0.001342856326484437,0.6480234426879883,0.2839025221824646,-9.63385698589325
2026-09-11T19:18:40.050,1.4370853440000246,0.0,0.0,0.0,0.0,0.0,0.0,0.0,0.0,0.0,0.0,0.001251220703125,10.25,0.450439453125,0.0,0.0,0.0,1,1789168719.7489066,38.99021665,-76.93874400833333,-9.697000000000003,0,1,13.184160999999998,9.388096,69.82273599999999,1,1,1789168720.0428507,-0.8485730901849801,0.527823818419726,-0.02105878595982735,-0.029702775234511668,178.38158365968604,-3.8471793587017356,-63.70997095057966,-0.00076026542216873,0.0033545228223331018,-0.0010250318696962697,0.6844061147880555,0.28037212812423706,-9.675339116077422
2026-09-11T19:18:40.083,1.4705010560001028,0.0,0.0,0.0,0.0,0.0,0.0,0.0,0.0,0.0,0.0,0.001251220703125,10.25,0.450439453125,0.0,0.0,0.0,1,1789168719.7489066,38.99021665,-76.93874400833333,-9.697000000000003,0,1,13.184160999999998,9.388096,69.82273599999999,1,1,1789168720.0738506,-0.8485892797400908,0.5277952020866267,-0.020992974880370115,-0.029795200455829198,178.3684584697959,-3.846309477833904,-63.70577560172367,-0.0015133749944042831,0.0012662363723218862,0.0005237733085234983,0.6679309425163269,0.2804701946258545,-9.657098746776581
2026-09-11T19:18:40.116,1.50392326400015,0.0,0.0,0.0,0.0,0.0,0.0,0.0,0.0,0.0,0.0,0.001251220703125,10.25,0.450439453125,0.0,0.0,0.0,1,1789168719.7489066,38.99021665,-76.93874400833333,-9.697000000000003,0,1,13.184160999999998,9.388096,69.82273599999999,1,1,1789168720.1148508,-0.848579330993776,0.5278075953347453,-0.021129994178099968,-0.029762134720859378,178.38003393806204,-3.857677408946695,-63.707812711255045,0.0013632766787327708,0.0008210028801381326,-0.001217367153266045,0.6662638119888306,0.2780185320854187,-9.661805938854219
2026-09-11T19:18:40.150,1.5373438080000597,0.0,0.0,0.0,0.0,0.0,0.0,0.0,0.0,0.0,0.0,0.001251220703125,10.25,0.450439453125,0.0,0.0,0.0,1,1789168719.7489066,38.99021665,-76.93874400833333,-9.697000000000003,0,1,13.184160999999998,9.388096,69.82273599999999,1,1,1789168720.1428506,-0.8486015352704867,0.5277738082634824,-0.02105449235580587,-0.0297817057817955,178.37340124161284,-3.851443475839973,-63.703043299170126,-0.0011100294042683937,-0.0021561797579137945,-0.001406037245406632,0.6635179499435424,0.273997805519104,-9.646409498100281
2026-09-11T19:18:40.183,1.5707581440001377,0.0,0.0,0.0,0.0,0.0,0.0,0.0,0.0,0.0,0.0,0.001251220703125,10.25,0.450439453125,0.0,0.0,0.0,1,1789168719.7489066,38.99021665,-76.93874400833333,-9.697000000000003,0,1,13.184160999999998,9.388096,69.82273599999999,1,1,1789168720.1748507,-0.8486246023589753,0.5277395351410008,-0.02097388924299935,-0.029788643645755595,178.36768985064288,-3.843946562360912,-63.69822398704609,-0.0006394886379307224,-0.003248057737961447,-0.00102799892942466,0.6609682209014893,0.27772433258056645,-9.657098746776581
2026-09-11T19:18:40.217,1.6041794879999998,0.0,0.0,0.0,0.0,0.0,0.0,0.0,0.0,0.0,0.0,0.001251220703125,10.25,0.450439453125,0.0,0.0,0.0,1,1789168719.7489066,38.99021665,-76.93874400833333,-9.697000000000003,0,1,13.184160999999998,9.388096,69.82273599999999,1,1,1789168720.2138507,-0.8486387537679997,0.5277168241332042,-0.021014100609862797,-0.02975948093330528,178.37286431420867,-3.8460546986652084,-63.69529928461305,-0.00029635690698863714,-6.806784082777885e-06,0.0006351253148007365,0.6593991568756103,0.278312731590271,-9.687597428779602
2026-09-11T19:18:40.250,1.637602144000084,0.0,0.0,0.0,0.0,0.0,0.0,0.0,0.0,0.0,0.0,0.001251220703125,10.25,0.450439453125,0.0,0.0,0.0,1,1789168719.7489066,38.99021665,-76.93874400833333,-9.697000000000003,0,1,13.184160999999998,9.388096,69.82273599999999,1,1,1789168720.2418506,-0.8486469209629856,0.527708993167871,-0.020942692010774543,-0.02971574870565867,178.37277036447935,-3.8364371961577963,-63.69417577601592,-0.0009728465250616392,-0.0005878268920716902,-0.000684518132632176,0.6651850804710389,0.281254726638794,-9.67053385749817
2026-09-11T19:18:40.283,1.671024799999941,0.0,0.0,0.0,0.0,0.0,0.0,0.0,0.0,0.0,0.0,0.001251220703125,10.25,0.450439453125,0.0,0.0,0.0,1,1789168719.7489066,38.99021665,-76.93874400833333,-9.697000000000003,0,1,13.184160999999998,9.388096,69.82273599999999,1,1,1789168720.2748506,-0.8486476412596696,0.5277052364734575,-0.02103837804242905,-0.029694292923646778,178.3806372221776,-3.8444519483779773,-63.69391647857016,-0.00026092672317315225,-0.0003899065548955332,-4.852015320544236e-05,0.6744033316230774,0.2750765370368957,-9.693579485378265
2026-09-11T19:18:40.317,1.7044477440001629,0.0,0.0,0.0,0.0,0.0,0.0,0.0,0.0,0.0,0.0,0.001251220703125,10.25,0.450439453125,0.0,0.0,0.0,1,1789168719.7489066,38.99021665,-76.93874400833333,-9.697000000000003,0,1,13.184160999999998,9.388096,69.82273599999999,1,1,1789168720.3148506,-0.8486797867981516,0.5276529318456428,-0.02098108498134412,-0.029745538622571885,178.37193566493175,-3.841872377800776,-63.68662137624184,-0.00022794000031045944,0.001905550477327409,-0.00043319072034499255,0.6781298586845398,0.2779204655838013,-9.673377786045075
2026-09-11T19:18:40.350,1.7378603839999869,0.0,0.0,0.0,0.0,0.0,0.0,0.0,0.0,0.0,0.0,0.001251220703125,10.25,0.450439453125,0.0,0.0,0.0,1,1789168719.7489066,38.99021665,-76.93874400833333,-9.697000000000003,0,1,13.184160999999998,9.388096,69.82273599999999,1,1,1789168720.3428507,-0.8487018410226004,0.5276223591501354,-0.020907668921921425,-0.029710276840606394,178.37079227330253,-3.832528269313922,-63.6824035842728,-0.000738099740668402,-0.0012849113953182255,-8.168140899333462e-05,0.6492983072090149,0.27684173406600954,-9.658569744300843
2026-09-11T19:18:40.384,1.7712744640000437,0.0,0.0,0.0,0.0,0.0,0.0,0.0,0.0,0.0,0.0,0.001251220703125,10.25,0.450439453125,0.0,0.0,0.0,1,1789168719.7489066,38.99021665,-76.93874400833333,-9.697000000000003,0,1,13.184160999999998,9.388096,69.82273599999999,1,1,1789168720.3748507,-0.8486952399829815,0.5276354579769781,-0.020939339565164795,-0.02964383872288587,178.3792463637589,-3.8316180704052587,-63.684374612430574,-0.0018209020086056842,-0.002855358656262723,-3.508111796508603e-05,0.6617527529144287,0.27174227598190304,-9.65141088968277
2026-09-11T19:18:40.417,1.8046981120000964,0.0,0.0,0.0,0.0,0.0,0.0,0.0,0.0,0.0,0.0,0.001251220703125,10.25,0.450439453125,0.0,0.0,0.0,1,1789168719.7489066,38.99021665,-76.93874400833333,-9.697000000000003,0,1,13.184160999999998,9.388096,69.82273599999999,1,1,1789168720.4148507,-0.8487275368193696,0.5275860385227745,-0.020820899740643033,-0.029682155150208278,178.36811938531022,-3.8223043123261737,-63.67736727592882,-0.0004944517770899936,0.00041835542170304084,-0.0007155849933176752,0.6519461027526855,0.28527545320510866,-9.656510347766876
2026-09-11T19:18:40.450,1.838115296000069,0.0,0.0,0.0,0.0,0.0,0.0,0.0,0.0,0.0,0.0,0.001251220703125,10.25,0.450439453125,0.0,0.0,0.0,1,1789168719.7489066,38.99021665,-76.93874400833333,-9.697000000000003,0,1,13.184160999999998,9.388096,69.82273599999999,1,1,1789168720.4418507,-0.8487287396309198,0.5275850025726829,-0.020797916255717547,-0.029682288731036004,178.366710860764,-3.820071462283544,-63.67717842911823,-0.00042097341558103226,-0.002473480615926364,0.0008424704299376628,0.6631256839370727,0.28223539165496825,-9.669062859973907
2026-09-11T19:18:40.488,1.8715397440000743,0.0,0.0,0.0,0.0,0.0,0.0,0.0,0.0,0.0,0.0,0.001251220703125,10.25,0.450439453125,0.0,0.0,0.0,1,1789168719.7489066,38.99021665,-76.93874400833333,-9.697000000000003,0,1,13.184160999999998,9.388096,69.82273599999999,1,1,1789168720.4828508,-0.8487456093222286,0.5275632073829034,-0.020701804280218276,-0.029654479790515983,178.36350847738137,-3.8089840393255945,-63.67408639247871,0.00037245326237558997,-0.0005803219762881147,-0.0008841837990603273,0.6564571618270874,0.2835102561759949,-9.643075237045288
2026-09-11T19:18:40.518,1.904951360000041,0.0,0.0,0.0,0.0,0.0,0.0,0.0,0.0,0.0,0.0,0.001251220703125,10.25,0.450439453125,0.0,0.0,0.0,1,1789168719.7489066,38.99021665,-76.93874400833333,-9.697000000000003,0,1,13.184160999999998,9.388096,69.82273599999999,1,1,1789168720.5148506,-0.8487428337483773,0.5275641202343633,-0.02076488239710382,-0.029673571762612816,178.36546783792522,-3.8162858103852058,-63.674304198387915,-0.0011461577197846764,-0.001958783019513236,-0.000221307749152881,0.657732026348114,0.28007792861938474,-9.644840434074402
2026-09-11T19:18:40.551,1.93836886400004,0.0,0.0,0.0,0.0,0.0,0.0,0.0,0.0,0.0,0.0,0.001251220703125,10.25,0.450439453125,0.0,0.0,0.0,1,1789168719.7489066,38.99021665,-76.93874400833333,-9.697000000000003,0,1,13.184160999999998,9.388096,69.82273599999999,1,1,1789168720.5428507,-0.8487743560857558,0.5275201756367357,-0.02060129011576712,-0.0296672141085767,178.35599177660035,-3.799879476894842,-63.668036329421234,-0.0007195992505972621,-0.0041481240332149226,-0.0010838494654884787,0.6502789722251892,0.27752819957733155,-9.6425849045372
2026-09-11T19:18:40.584,1.971780736000028,0.0,0.0,0.0,0.0,0.0,0.0,0.0,0.0,0.0,0.0,0.001251220703125,10.25,0.450439453125,0.0,0.0,0.0,1,1789168719.7489066,38.99021665,-76.93874400833333,-9.697000000000003,0,1,13.184160999999998,9.388096,69.82273599999999,1,1,1789168720.5748506,-0.8487616044501417,0.5275439529776904,-0.02066996028998767,-0.029561279226448085,178.37058324062923,-3.800205864622891,-63.67160330637833,0.0008733627576979626,-0.002856929452589518,0.00041870448755343967,0.6514557702445984,0.2764494680595398,-9.66357113588333
2026-09-11T19:18:40.618,2.005196384000101,0.0,0.0,0.0,0.0,0.0,0.0,0.0,0.0,0.0,0.0,0.001251220703125,10.25,0.450439453125,0.0,0.0,0.0,1,1789168719.7489066,38.99021665,-76.93874400833333,-9.697000000000003,0,1,13.184160999999998,9.388096,69.82273599999999,1,1,1789168720.6148508,-0.8487981181860689,0.5274825403967699,-0.020657821923802663,-0.02961719996425207,178.36412047974855,-3.8022883914174246,-63.663168050762955,-0.00024923301718479023,0.0006161012259539983,-0.0008665559736151846,0.6737168661117553,0.2784107980918884,-9.674848783569336
2026-09-11T19:18:40.651,2.0386137919999783,0.0,0.0,0.0,0.0,0.0,0.0,0.0,0.0,0.0,0.0,0.001251220703125,10.25,0.450439453125,0.0,0.0,0.0,1,1789168719.7489066,38.99021665,-76.93874400833333,-9.697000000000003,0,1,13.184160999999998,9.388096,69.82273599999999,1,1,1789168720.6418507,-0.8488013024513223,0.5274838056140309,-0.020581729839852056,-0.029556321974789194,178.36545903661758,-3.791194962129862,-63.6633014109934,0.001080009741134091,-0.002473655148851563,0.0009269443657341883,0.6424336520957946,0.2874329162406921,-9.664551800899506
2026-09-11T19:18:40.684,2.0720231039999817,0.0,0.0,0.0,0.0,0.0,0.0,0.0,0.0,0.0,0.0,0.001251220703125,10.25,0.450439453125,0.0,0.0,0.0,1,1789168719.7489066,38.99021665,-76.93874400833333,-9.697000000000003,0,1,13.184160999999998,9.388096,69.82273599999999,1,1,1789168720.6748507,-0.8487754038344093,0.5275258295763965,-0.02070022431787278,-0.02946716288786277,178.38151062858742,-3.7974252695000374,-63.669404938632134,0.0005651376117957639,-0.0011922344120373265,-0.00010506882097005864,0.668617408027649,0.2757630025482178,-9.693089152870177
2026-09-11T19:18:40.718,2.1054660160000367,0.0,0.0,0.0,0.0,0.0,0.0,0.0,0.0,0.0,0.0,0.001251220703125,10.25,0.450439453125,0.0,0.0,0.0,1,1789168719.7489066,38.99021665,-76.93874400833333,-9.697000000000003,0,1,13.184160999999998,9.388096,69.82273599999999,1,1,1789168720.7148507,-0.8487876488587606,0.527505271560136,-0.02069270503604091,-0.02948775304047332,178.3789557985329,-3.797899209941888,-63.66657021986275,-0.0010608111193621535,0.000769166601353901,-0.000249931148885588,0.652730634765625,0.27958759611129763,-9.655823882255556
2026-09-11T19:18:40.751,2.138883968000073,0.0,0.0,0.0,0.0,0.0,0.0,0.0,0.0,0.0,0.0,0.001251220703125,10.25,0.450439453125,0.0,0.0,0.0,1,1789168719.7489066,38.99021665,-76.93874400833333,-9.697000000000003,0,1,13.184160999999998,9.388096,69.82273599999999,1,1,1789168720.7428508,-0.8487867600120442,0.5275055730778446,-0.02073012659760937,-0.02948165957537337,178.38181552434008,-3.8011767525174824,-63.66670187940262,-0.000221307749152881,-0.002127381825255888,-0.00011623892818282234,0.656162962322235,0.2804701946258545,-9.674358451061249
2026-09-11T19:18:40.786,2.1722958400000607,0.0,0.0,0.0,0.0,0.0,0.0,0.0,0.0,0.0,0.0,0.001251220703125,10.25,0.450439453125,0.0,0.0,0.0,1,1789168720.7584302,38.990216706666665,-76.93874419166667,-9.620000000000001,0,1,13.184160999999998,9.388096,69.806025,1,1,1789168720.7748506,-0.8488102095890163,0.5274687332236828,-0.02062901788741263,-0.02953653990998901,178.3701815912059,-3.7945761723412486,-63.661402575317986,0.0005698500007761486,-0.0009550441666912971,0.00013892820845874863,0.6611643539047241,0.2804701946258545,-9.667787995452882
2026-09-11T19:18:40.818,2.205716032000055,0.0,0.0,0.0,0.0,0.0,0.0,0.0,0.0,0.0,0.0,0.001251220703125,10.25,0.450439453125,0.0,0.0,0.0,1,1789168720.7584302,38.990216706666665,-76.93874419166667,-9.620000000000001,0,1,13.184160999999998,9.388096,69.806025,1,1,1789168720.8148506,-0.848803355181476,0.5274734004355062,-0.02074704030249629,-0.02956748863802596,178.37432490887343,-3.8079553979153604,-63.66221922478753,-0.0013800318395519164,0.0004928809807631986,-0.0016536994662646272,0.6564571618270874,0.2784107980918884,-9.663080803375244
2026-09-11T19:18:40.851,2.23913939199997,0.0,0.0,0.0,0.0,0.0,0.0,0.0,0.0,0.0,0.0,0.001251220703125,10.25,0.450439453125,0.0,0.0,0.0,1,1789168720.7584302,38.990216706666665,-76.93874419166667,-9.620000000000001,0,1,13.184160999999998,9.388096,69.806025,1,1,1789168720.8428507,-0.8487736927282863,0.5275178836062995,-0.020895343165372185,-0.029520935654558877,178.3880376037908,-3.8196717326802037,-63.66863776720465,0.000632507320922745,-0.001269377964975476,0.0004190535534038385,0.6636160164451599,0.28419672168731686,-9.676810113601684
2026-09-11T19:18:40.886,2.2725500799999736,0.0,0.0,0.0,0.0,0.0,0.0,0.0,0.0,0.0,0.0,0.001251220703125,10.25,0.450439453125,0.0,0.0,0.0,1,1789168720.7584302,38.990216706666665,-76.93874419166667,-9.620000000000001,0,1,13.184160999999998,9.388096,69.806025,1,1,1789168720.8738506,-0.8487747062839954,0.5275192008078923,-0.020817132383612456,-0.02952351183113025,178.38305996316336,-3.8122108328496385,-63.66864408703575,0.0005129522671611335,-7.67944870877505e-06,-0.0010079276430267254,0.6388051915359497,0.2835102561759949,-9.622089005699157
2026-09-11T19:18:40.918,2.3059687039999517,0.0,0.0,0.0,0.0,0.0,0.0,0.0,0.0,0.0,0.0,0.001251220703125,10.25,0.450439453125,0.0,0.0,0.0,1,1789168720.7584302,38.990216706666665,-76.93874419166667,-9.620000000000001,0,1,13.184160999999998,9.388096,69.806025,1,1,1789168720.9148507,-0.8487466182888371,0.5275578307199132,-0.02097649161576051,-0.02952795266956877,178.39244389290556,-3.8280773904554777,-63.674195883481964,-0.00029042278753185644,0.00048432886742842647,0.00026982790235832336,0.6764627281570434,0.2774301330757141,-9.677594645614624
2026-09-11T19:18:40.952,2.339389120000078,0.0,0.0,0.0,0.0,0.0,0.0,0.0,0.0,0.0,0.0,0.001251220703125,10.25,0.450439453125,0.0,0.0,0.0,1,1789168720.7584302,38.990216706666665,-76.93874419166667,-9.620000000000001,0,1,13.184160999999998,9.388096,69.806025,1,1,1789168720.9428506,-0.8487546304905546,0.5275480971595531,-0.020914713459352217,-0.029515371674603035,178.38988840113117,-3.821279470469842,-63.67277317211024,0.0012510520078295353,-0.0024029693141457927,-0.000560774288665778,0.6469447111701966,0.2814508596420288,-9.652587687702178
2026-09-11T19:18:40.985,2.3727979520001554,0.0,0.0,0.0,0.0,0.0,0.0,0.0,0.0,0.0,0.0,0.001251220703125,10.25,0.450439453125,0.0,0.0,0.0,1,1789168720.7584302,38.990216706666665,-76.93874419166667,-9.620000000000001,0,1,13.184160999999998,9.388096,69.806025,1,1,1789168720.9748507,-0.8487556796618853,0.5275457754969861,-0.020912219979140688,-0.029528461736410223,178.38845062495005,-3.821824151499981,-63.672427920959414,0.0014755013496360063,-0.0010669197717441336,0.00072640603468004,0.6644005484580994,0.27939146310806273,-9.699267342472076
2026-09-11T19:18:41.019,2.4062143999999535,0.0,0.0,0.0,0.0,0.0,0.0,0.0,0.0,0.0,0.0,0.001251220703125,10.25,0.450439453125,0.0,0.0,0.0,1,1789168720.7584302,38.990216706666665,-76.93874419166667,-9.620000000000001,0,1,13.184160999999998,9.388096,69.806025,1,1,1789168721.0148506,-0.8487807472195625,0.5275056727409072,-0.020847450447617735,-0.02957012318875829,178.3802883009896,-3.8179585914204393,-63.66678734703466,-0.0018779742751458986,-0.00038467056713955026,-0.0014458307523521024,0.673422666606903,0.27635140155792237,-9.672887453536987
2026-09-11T19:18:41.053,2.4396371840000484,0.0,0.0,0.0,0.0,0.0,0.0,0.0,0.0,0.0,0.0,0.001251220703125,10.25,0.450439453125,0.0,0.0,0.0,1,1789168720.7584302,38.990216706666665,-76.93874419166667,-9.620000000000001,0,1,13.184160999999998,9.388096,69.806025,1,1,1789168721.0428507,-0.8487764750271616,0.5275158331014131,-0.020832497838746657,-0.02952199691055184,178.3841222643668,-3.8136096641808632,-63.66822466089061,0.0008077383778229757,-0.001620189144626336,0.0013550736312483976,0.6402761890602112,0.28282379066467284,-9.642781037540436
2026-09-11T19:18:41.085,2.4730462080001416,0.0,0.0,0.0,0.0,0.0,0.0,0.0,0.0,0.0,0.0,0.001251220703125,10.25,0.450439453125,0.0,0.0,0.0,1,1789168720.7584302,38.990216706666665,-76.93874419166667,-9.620000000000001,0,1,13.184160999999998,9.388096,69.806025,1,1,1789168721.0748506,-0.8487331811526495,0.5275860015867211,-0.020950700274785117,-0.02942900437045368,178.40065854848245,-3.8196310953586528,-63.67814533751793,0.0021402972617206462,0.0003618067539384245,0.0014667747033760346,0.6644005484580994,0.2805682611274719,-9.690049091320038
2026-09-11T19:18:41.120,2.5064622720001353,0.0,0.0,0.0,0.0,0.0,0.0,0.0,0.0,0.0,0.0,0.001251220703125,10.25,0.450439453125,0.0,0.0,0.0,1,1789168720.7584302,38.990216706666665,-76.93874419166667,-9.620000000000001,0,1,13.184160999999998,9.388096,69.806025,1,1,1789168721.1138506,-0.8487376619172058,0.5275731377436145,-0.02097151019210137,-0.02951544231304512,178.3934314338722,-3.826864146273111,-63.67627878244237,-0.0011952014717657169,-0.0006236061417375739,-0.0009471901850573226,0.6531229007720948,0.2879232487487793,-9.656510347766876
2026-09-11T19:18:41.152,2.539882239999997,0.0,0.0,0.0,0.0,0.0,0.0,0.0,0.0,0.0,0.0,0.001251220703125,10.25,0.450439453125,0.0,0.0,0.0,1,1789168720.7584302,38.990216706666665,-76.93874419166667,-9.620000000000001,0,1,13.184160999999998,9.388096,69.806025,1,1,1789168721.1428506,-0.8487257196880245,0.5275894110754029,-0.02103542020509471,-0.029522485632985,178.39668578795872,-3.8335469175357555,-63.678601628566405,0.0013374458058032549,-0.001509709802975095,0.0009615018849236761,0.661360486907959,0.27968566261291505,-9.707308795604707
2026-09-11T19:18:41.185,2.5732923840000694,0.0,0.0,0.0,0.0,0.0,0.0,0.0,0.0,0.0,0.0,0.001251220703125,10.25,0.450439453125,0.0,0.0,0.0,1,1789168720.7584302,38.990216706666665,-76.93874419166667,-9.620000000000001,0,1,13.184160999999998,9.388096,69.806025,1,1,1789168721.1748507,-0.8487386997942192,0.5275746680667145,-0.020889665275853654,-0.029516283142986228,178.38840349990863,-3.818944931470133,-63.67630848546111,0.00034941491624926476,0.0003338814859065153,0.0007698647330546989,0.6505731717300415,0.27409587202072144,-9.644350101566316
2026-09-11T19:18:41.221,2.606707968000137,0.0,0.0,0.0,0.0,0.0,0.0,0.0,0.0,0.0,0.0,0.001251220703125,10.25,0.450439453125,0.0,0.0,0.0,1,1789168720.7584302,38.990216706666665,-76.93874419166667,-9.620000000000001,0,1,13.184160999999998,9.388096,69.806025,1,1,1789168721.2148507,-0.8487238094457974,0.5275980622528776,-0.02093335841931748,-0.02949533000511485,178.3931961690621,-3.821977808793909,-63.679605364429115,-0.001561720614684526,-0.0005420992656694388,0.0007618362184955248,0.6492983072090149,0.278312731590271,-9.646801764106751
2026-09-11T19:18:41.252,2.640130336000084,0.0,0.0,0.0,0.0,0.0,0.0,0.0,0.0,0.0,0.0,0.001251220703125,10.25,0.450439453125,0.0,0.0,0.0,1,1789168720.7584302,38.990216706666665,-76.93874419166667,-9.620000000000001,0,1,13.184160999999998,9.388096,69.806025,1,1,1789168721.2428508,-0.8487483614928752,0.5275594331104865,-0.020820291596276973,-0.02955975062729346,178.37989838753828,-3.8147878440336545,-63.67401518603368,0.0001562069680534925,0.0006642723133090417,0.0008841837990603273,0.6601836888885498,0.2784107980918884,-9.659550409317017
2026-09-11T19:18:41.286,2.673543840000093,0.0,0.0,0.0,0.0,0.0,0.0,0.0,0.0,0.0,0.0,0.001251220703125,10.25,0.450439453125,0.0,0.0,0.0,1,1789168720.7584302,38.990216706666665,-76.93874419166667,-9.620000000000001,0,1,13.184160999999998,9.388096,69.806025,1,1,1789168721.2748506,-0.8487426595984959,0.5275676601842891,-0.020889358736854,-0.029527891846679463,178.38722142403483,-3.8196041598271315,-63.67533760636732,0.001454557398612074,0.0022092377671744223,-0.00025743606466916357,0.6519461027526855,0.2791953301048279,-9.667591862449646
2026-09-11T19:18:41.319,2.7069587519999914,0.0,0.0,0.0,0.0,0.0,0.0,0.0,0.0,0.0,0.0,0.001251220703125,10.25,0.450439453125,0.0,0.0,0.0,1,1789168720.7584302,38.990216706666665,-76.93874419166667,-9.620000000000001,0,1,13.184160999999998,9.388096,69.806025,1,1,1789168721.3148506,-0.848737511821985,0.5275712022034088,-0.020947652234592305,-0.029571244440065744,178.3865376831345,-3.827912726014775,-63.675854239823366,-0.0013461724520632266,0.00043563418129778463,0.0012562879955855184,0.6758743291473388,0.27635140155792237,-9.703288069038392
2026-09-11T19:18:41.353,2.7403768640001545,0.0,0.0,0.0,0.0,0.0,0.0,0.0,0.0,0.0,0.0,0.001251220703125,10.25,0.450439453125,0.0,0.0,0.0,1,1789168720.7584302,38.990216706666665,-76.93874419166667,-9.620000000000001,0,1,13.184160999999998,9.388096,69.806025,1,1,1789168721.3428507,-0.8487661655707418,0.5275231909768873,-0.020849056243642833,-0.029674838123441058,178.3702532409772,-3.82448379242659,-63.66894859777948,0.0010171778880622953,-0.0006599089901790561,0.0004921828490624009,0.6532209672737121,0.2832160566711426,-9.647292096614837
2026-09-11T19:18:41.387,2.7737835519999408,0.0,0.0,0.0,0.0,0.0,0.0,0.0,0.0,0.0,0.0,0.001251220703125,10.25,0.450439453125,0.0,0.0,0.0,1,1789168720.7584302,38.990216706666665,-76.93874419166667,-9.620000000000001,0,1,13.184160999999998,9.388096,69.806025,1,1,1789168721.3828506,-0.8487565787891794,0.5275391015158518,-0.020896739898975763,-0.029632627212749413,178.37732643542913,-3.826605734486507,-63.67128451774234,-0.0008922123136195012,-0.0022403046278599214,-0.0017577210896834892,0.655672629814148,0.27880306409835814,-9.681026973171234
2026-09-11T19:18:41.420,2.807201664000104,0.0,0.0,0.0,0.0,0.0,0.0,0.0,0.0,0.0,0.0,0.001251220703125,10.25,0.450439453125,0.0,0.0,0.0,1,1789168720.7584302,38.990216706666665,-76.93874419166667,-9.620000000000001,0,1,13.184160999999998,9.388096,69.806025,1,1,1789168721.4148507,-0.8487619769625366,0.5275307363782974,-0.02086472652707675,-0.029649482723445184,178.37370795081512,-3.824490817401972,-63.67005224099845,-1.361356816555577e-05,-0.003177371903255677,0.0005475097863506212,0.6674406100082397,0.28164699264526366,-9.655333549747466
2026-09-11T19:18:41.453,2.8406186879999495,0.0,0.0,0.0,0.0,0.0,0.0,0.0,0.0,0.0,0.0,0.001251220703125,10.25,0.450439453125,0.0,0.0,0.0,1,1789168720.7584302,38.990216706666665,-76.93874419166667,-9.620000000000001,0,1,13.184160999999998,9.388096,69.806025,1,1,1789168721.4428506,-0.8487510735753964,0.5275490087308127,-0.020875941238892606,-0.02962859377593095,178.37650590700258,-3.8243544735186696,-63.672587118230474,0.0010156070917355002,-0.002528633020289385,0.0015392058673337993,0.6598894893836975,0.2799798621177673,-9.672102921524049
2026-09-11T19:18:41.487,2.874026112000138,0.0,0.0,0.0,0.0,0.0,0.0,0.0,0.0,0.0,0.0,0.001251220703125,10.25,0.450439453125,0.0,0.0,0.0,1,1789168720.7584302,38.990216706666665,-76.93874419166667,-9.620000000000001,0,1,13.184160999999998,9.388096,69.806025,1,1,1789168721.4828508,-0.8487774643547802,0.5275058983730481,-0.02081651046713883,-0.029681914983450852,178.36751594251476,-3.8217080954594573,-63.66652875265309,-0.0016304865872131028,-0.0032906437717101092,-0.00041364303272265607,0.6651850804710389,0.27880306409835814,-9.670337724494933
2026-09-11T19:18:41.520,2.9074437440001475,0.0,0.0,0.0,0.0,0.0,0.0,0.0,0.0,0.0,0.0,0.001251220703125,10.25,0.450439453125,0.0,0.0,0.0,1,1789168720.7584302,38.990216706666665,-76.93874419166667,-9.620000000000001,0,1,13.184160999999998,9.388096,69.806025,1,1,1789168721.5138507,-0.8487685612959065,0.5275232224447686,-0.02084688847010318,-0.02960720145976914,178.3767177070359,-3.8201805929465538,-63.66908355595744,-0.0005234242426730994,-0.003230080846665906,0.00021956241990088665,0.6594972233772278,0.27625333505630495,-9.666611197433472
2026-09-11T19:18:41.554,2.9408641600000465,0.0,0.0,0.0,0.0,0.0,0.0,0.0,0.0,0.0,0.0,0.001251220703125,10.25,0.450439453125,0.0,0.0,0.0,1,1789168720.7584302,38.990216706666665,-76.93874419166667,-9.620000000000001,0,1,13.184160999999998,9.388096,69.806025,1,1,1789168721.5428507,-0.8487805226767797,0.5275108036599951,-0.020756983979315507,-0.02954867108012058,178.3769295044692,-3.807857291101298,-63.667331910275365,0.0015119787310026876,-0.0015732397877476886,0.0007194247176720626,0.6480234426879883,0.27439007152557376,-9.652391554698944
2026-09-11T19:18:41.587,2.9742731840001397,0.0,0.0,0.0,0.0,0.0,0.0,0.0,0.0,0.0,0.0,0.001251220703125,10.25,0.450439453125,0.0,0.0,0.0,1,1789168720.7584302,38.990216706666665,-76.93874419166667,-9.620000000000001,0,1,13.184160999999998,9.388096,69.806025,1,1,1789168721.5818508,-0.8488034695833226,0.5274766520499277,-0.020676093345757728,-0.029555891620289106,178.37117803195997,-3.800348245066096,-63.6625326073218,-0.00030997047515419297,-0.0007438593271999832,7.801621756414653e-05,0.6504751052284241,0.27762626607894897,-9.663080803375244
2026-09-11T19:18:41.620,3.0076896319999378,0.0,0.0,0.0,0.0,0.0,0.0,0.0,0.0,0.0,0.0,0.001251220703125,10.25,0.450439453125,0.0,0.0,0.0,1,1789168720.7584302,38.990216706666665,-76.93874419166667,-9.620000000000001,0,1,13.184160999999998,9.388096,69.806025,1,1,1789168721.6148508,-0.8488114748838927,0.5274592449985877,-0.020721407466453606,-0.029604868578661375,178.36906538030865,-3.8076922727662437,-63.66017803011913,0.0001619665545850738,-0.0018421950254800148,0.0007843509658462517,0.6758743291473388,0.2752726700401306,-9.692893019866943
2026-09-11T19:18:41.657,3.0411103999999796,0.0,0.0,0.0,0.0,0.0,0.0,0.0,0.0,0.0,0.0,0.001251220703125,10.25,0.450439453125,0.0,0.0,0.0,1,1789168720.7584302,38.990216706666665,-76.93874419166667,-9.620000000000001,0,1,13.184160999999998,9.388096,69.806025,1,1,1789168721.6548507,-0.8488278032441297,0.5274315128336594,-0.02070537009686081,-0.029641986419511913,178.36435094301444,-3.808321795486877,-63.65632313195782,-0.000631285590446349,0.00023003439541285263,-0.0011117747335203881,0.6537112997817993,0.28409865518569943,-9.66474793390274
2026-09-11T19:18:41.689,3.0745195520000834,0.0,0.0,0.0,0.0,0.0,0.0,0.0,0.0,0.0,0.0,0.001251220703125,10.25,0.450439453125,0.0,0.0,0.0,1,1789168720.7584302,38.990216706666665,-76.93874419166667,-9.620000000000001,0,1,13.184160999999998,9.388096,69.806025,1,1,1789168721.6828506,-0.8488302579121187,0.5274292154629646,-0.020693526639659683,-0.029620835305262102,178.365686800174,-3.8058840871207553,-63.656030054199476,0.00017941984710501707,-0.0031302480134518303,-0.0008747590210995579,0.6585165583610535,0.2817450591468811,-9.64533076658249
2026-09-11T19:18:41.721,3.1079408959999455,0.0,0.0,0.0,0.0,0.0,0.0,0.0,0.0,0.0,0.0,0.001251220703125,10.25,0.450439453125,0.0,0.0,0.0,1,1789168720.7584302,38.990216706666665,-76.93874419166667,-9.620000000000001,0,1,13.184160999999998,9.388096,69.806025,1,1,1789168721.7148507,-0.8488190181410992,0.5274510932323913,-0.020687151620022465,-0.02955774767782323,178.371551481646,-3.801488822563071,-63.65909848863368,0.0002642428487519415,-0.004944692303825135,-0.00041835542170304084,0.656162962322235,0.28458898769378665,-9.661511739349365
2026-09-11T19:18:41.754,3.1413554880000447,0.0,0.0,0.0,0.0,0.0,0.0,0.0,0.0,0.0,0.0,0.001251220703125,10.25,0.450439453125,0.0,0.0,0.0,1,1789168721.752148,38.990216741666664,-76.938744345,-9.529000000000003,0,1,13.184160999999998,9.388096,69.806025,1,1,1789168721.7428508,-0.8488102266599773,0.5274718416325207,-0.020678273246142104,-0.029445957579825852,178.38200861760603,-3.7939010072570345,-63.66210568383923,0.0002912954521578536,-0.003044726880104108,-0.0008300785922485031,0.6425317185974121,0.27821466508865356,-9.650136025161743
2026-09-11T19:18:41.787,3.174765920000027,0.0,0.0,0.0,0.0,0.0,0.0,0.0,0.0,0.0,0.0,0.001251220703125,10.25,0.450439453125,0.0,0.0,0.0,1,1789168721.752148,38.990216741666664,-76.938744345,-9.529000000000003,0,1,13.184160999999998,9.388096,69.806025,1,1,1789168721.7828507,-0.8488426850739099,0.5274165324751594,-0.02064251698683311,-0.029525984502514115,178.3717939546086,-3.795152642762216,-63.65439833295332,-0.0002881538595042638,-0.0034339353032988434,-0.0007686430025783028,0.6679309425163269,0.2787049975967407,-9.693285285873413
2026-09-11T19:18:41.821,3.208187616000032,0.0,0.0,0.0,0.0,0.0,0.0,0.0,0.0,0.0,0.0,0.001251220703125,10.25,0.450439453125,0.0,0.0,0.0,1,1789168721.752148,38.990216741666664,-76.938744345,-9.529000000000003,0,1,13.184160999999998,9.388096,69.806025,1,1,1789168721.8148506,-0.8488483443994417,0.5274169050638189,-0.020566625073408097,-0.029409358991984828,178.37857783666485,-3.780705099699119,-63.65452160966191,0.0011377801393751034,-0.0043343506644027184,0.00039793506945470715,0.6490041077041626,0.2752726700401306,-9.674358451061249
2026-09-11T19:18:41.854,3.2416117120001218,0.0,0.0,0.0,0.0,0.0,0.0,0.0,0.0,0.0,0.0,0.001251220703125,10.25,0.450439453125,0.0,0.0,0.0,1,1789168721.752148,38.990216741666664,-76.938744345,-9.529000000000003,0,1,13.184160999999998,9.388096,69.806025,1,1,1789168721.8418508,-0.8488326501514428,0.5274433003881824,-0.020638385362420898,-0.029338608728637774,178.3899360836101,-3.7834669517511443,-63.65837826052504,0.00026162485487395,-0.0009541715020653,0.00031468286413457764,0.6502789722251892,0.2751746035385132,-9.652097355194092
2026-09-11T19:18:41.889,3.2750266880000254,0.0,0.0,0.0,0.0,0.0,0.0,0.0,0.0,0.0,0.0,0.001251220703125,10.25,0.450439453125,0.0,0.0,0.0,1,1789168721.752148,38.990216741666664,-76.938744345,-9.529000000000003,0,1,13.184160999999998,9.388096,69.806025,1,1,1789168721.8828506,-0.8488561018118244,0.527414036238521,-0.02049549557740991,-0.029286301515590297,178.38626250922306,-3.766326401798255,-63.65422916043294,-0.00026459191460234037,-0.0019186404467173665,-0.0006384414403795258,0.6482195756912232,0.27762626607894897,-9.670043524990081
2026-09-11T19:18:41.921,3.308450080000057,0.0,0.0,0.0,0.0,0.0,0.0,0.0,0.0,0.0,0.0,0.001251220703125,10.25,0.450439453125,0.0,0.0,0.0,1,1789168721.752148,38.990216741666664,-76.938744345,-9.529000000000003,0,1,13.184160999999998,9.388096,69.806025,1,1,1789168721.9148507,-0.8488771966763898,0.5273826836252095,-0.02035137587825457,-0.029339929702849474,178.37217595403558,-3.755469167522779,-63.64959015630146,0.00022113321622768158,0.00048101274184963723,0.0012098622374824694,0.6372361275100707,0.2870406502342224,-9.63954484298706
2026-09-11T19:18:41.954,3.34186892799994,0.0,0.0,0.0,0.0,0.0,0.0,0.0,0.0,0.0,0.0,0.001251220703125,10.25,0.450439453125,0.0,0.0,0.0,1,1789168721.752148,38.990216741666664,-76.938744345,-9.529000000000003,0,1,13.184160999999998,9.388096,69.806025,1,1,1789168721.9428506,-0.8488831161098443,0.5273691021990079,-0.02036860871689084,-0.029400765438858313,178.3672254196005,-3.7608015262579912,-63.64767075600237,0.00048537606497962306,0.0038323939715291487,-0.00045221480919173076,0.6674406100082397,0.2786069310951233,-9.680830840168
2026-09-11T19:18:41.988,3.3752881279999656,0.0,0.0,0.0,0.0,0.0,0.0,0.0,0.0,0.0,0.0,0.001251220703125,10.25,0.450439453125,0.0,0.0,0.0,1,1789168721.752148,38.990216741666664,-76.938744345,-9.529000000000003,0,1,13.184160999999998,9.388096,69.806025,1,1,1789168721.9828508,-0.848867603525786,0.5273968181848285,-0.020419127146360364,-0.029316328206115298,178.3786383481001,-3.760669511161542,-63.65168557333327,0.0005113814708343385,-0.00047193702973926673,0.00023317598806644243,0.6419433195877076,0.27880306409835814,-9.660825273838043
2026-09-11T19:18:42.021,3.4087111359999653,0.0,0.0,0.0,0.0,0.0,0.0,0.0,0.0,0.0,0.0,0.001251220703125,10.25,0.450439453125,0.0,0.0,0.0,1,1789168721.752148,38.990216741666664,-76.938744345,-9.529000000000003,0,1,13.184160999999998,9.388096,69.806025,1,1,1789168722.0148506,-0.848862494425182,0.5273969345771078,-0.02054949246692948,-0.029371028519262217,178.3811903939988,-3.7766793520562527,-63.65186344789926,0.001442340093848114,0.0010880382556932651,0.0008215264789137309,0.684308048286438,0.27762626607894897,-9.703778401546478
2026-09-11T19:18:42.054,3.4421207679999952,0.0,0.0,0.0,0.0,0.0,0.0,0.0,0.0,0.0,0.0,0.001251220703125,10.25,0.450439453125,0.0,0.0,0.0,1,1789168721.752148,38.990216741666664,-76.938744345,-9.529000000000003,0,1,13.184160999999998,9.388096,69.806025,1,1,1789168722.0428507,-0.8488639097168531,0.5273966457250369,-0.02051383168801156,-0.029360237868146243,178.38008425752093,-3.7725518055804987,-63.65177161074647,-0.00046111598837690187,0.002264215638612244,0.0005133013330115323,0.6328231349372864,0.27762626607894897,-9.642094572029114
2026-09-11T19:18:42.088,3.475533472000052,0.0,0.0,0.0,0.0,0.0,0.0,0.0,0.0,0.0,0.0,0.001251220703125,10.25,0.450439453125,0.0,0.0,0.0,1,1789168721.752148,38.990216741666664,-76.938744345,-9.529000000000003,0,1,13.184160999999998,9.388096,69.806025,1,1,1789168722.0828507,-0.8488464940253365,0.5274176151524037,-0.020639817067472883,-0.0293987543829063,178.38404280194996,-3.78719579675774,-63.65479151544044,0.0012257447336756176,-0.0017142623913088304,0.001374621318870734,0.6639102159500122,0.2810585936355591,-9.684263167724609
2026-09-11T19:18:42.121,3.5089582400000836,0.0,0.0,0.0,0.0,0.0,0.0,0.0,0.0,0.0,0.0,0.001251220703125,10.25,0.450439453125,0.0,0.0,0.0,1,1789168721.752148,38.990216741666664,-76.938744345,-9.529000000000003,0,1,13.184160999999998,9.388096,69.806025,1,1,1789168722.1148508,-0.8488659754333462,0.527388914238895,-0.02054866087940832,-0.029414986411287317,178.37681759997872,-3.779241798096456,-63.65069110125648,0.0018880971848074656,-0.0025160666496750255,-0.0008482300164692441,0.6522403022575378,0.2827257241630554,-9.652783820705414
2026-09-11T19:18:42.155,3.5423699519999445,0.0,0.0,0.0,0.0,0.0,0.0,0.0,0.0,0.0,0.0,0.001251220703125,10.25,0.450439453125,0.0,0.0,0.0,1,1789168721.752148,38.990216741666664,-76.938744345,-9.529000000000003,0,1,13.184160999999998,9.388096,69.806025,1,1,1789168722.1428506,-0.8488811075584791,0.5273635972620201,-0.02051039302963849,-0.029458874569838183,178.3701100170996,-3.778119386994253,-63.64710423253702,0.0003209660494417572,0.00012845623294678265,4.485496177625427e-05,0.6544958317947387,0.28154892614364624,-9.662590470867157
2026-09-11T19:18:42.188,3.5757842560001336,0.0,0.0,0.0,0.0,0.0,0.0,0.0,0.0,0.0,0.0,0.001251220703125,10.25,0.450439453125,0.0,0.0,0.0,1,1789168721.752148,38.990216741666664,-76.938744345,-9.529000000000003,0,1,13.184160999999998,9.388096,69.806025,1,1,1789168722.1828506,-0.8488714262866534,0.5273835558956176,-0.0204788510850874,-0.029402436347887643,178.3737948949731,-3.7716710516723637,-63.64984718357948,0.0017912314113217804,-0.002107136005932754,0.0008210028801381326,0.6592030238723755,0.27478233753204345,-9.668082194957734
2026-09-11T19:18:42.224,3.6092112960000122,0.0,0.0,0.0,0.0,0.0,0.0,0.0,0.0,0.0,0.0,0.001251220703125,10.25,0.450439453125,0.0,0.0,0.0,1,1789168721.752148,38.990216741666664,-76.938744345,-9.529000000000003,0,1,13.184160999999998,9.388096,69.806025,1,1,1789168722.2138507,-0.8488472180630487,0.5274260111620247,-0.020552500048693637,-0.02928818666437324,178.38958030931448,-3.77201683524325,-63.65596211587058,0.001449146877930892,-0.00102189027704268,-0.0004328416544945937,0.6440027161216736,0.27566493604660036,-9.66357113588333
2026-09-11T19:18:42.256,3.6426473280000664,0.0,0.0,0.0,0.0,0.0,0.0,0.0,0.0,0.0,0.0,0.001251220703125,10.25,0.450439453125,0.0,0.0,0.0,1,1789168721.752148,38.990216741666664,-76.938744345,-9.529000000000003,0,1,13.184160999999998,9.388096,69.806025,1,1,1789168722.2428508,-0.8488509719508665,0.5274195416108658,-0.020594668020357625,-0.029266263755130927,178.39424029926272,-3.7747867223313643,-63.65521946061855,-0.0004071853144902771,0.0019453439842728798,-0.0012201596800692357,0.6646947479629517,0.2734094065093994,-9.683576702213287
2026-09-11T19:18:42.288,3.6760587840001335,0.0,0.0,0.0,0.0,0.0,0.0,0.0,0.0,0.0,0.0,0.001251220703125,10.25,0.450439453125,0.0,0.0,0.0,1,1789168721.752148,38.990216741666664,-76.938744345,-9.529000000000003,0,1,13.184160999999998,9.388096,69.806025,1,1,1789168722.2828507,-0.8488591283329178,0.5274102757739069,-0.020534336703312582,-0.029239053851409846,178.3932028627392,-3.7672455370462896,-63.65389509305983,0.0006201154832335853,-0.0007726572598578896,0.0009073966781118519,0.6425317185974121,0.2770378670692444,-9.650332158164979
2026-09-11T19:18:42.322,3.709479328000043,0.0,0.0,0.0,0.0,0.0,0.0,0.0,0.0,0.0,0.0,0.001251220703125,10.25,0.450439453125,0.0,0.0,0.0,1,1789168721.752148,38.990216741666664,-76.938744345,-9.529000000000003,0,1,13.184160999999998,9.388096,69.806025,1,1,1789168722.3148506,-0.8488482565710227,0.5274243653253807,-0.020626178451973814,-0.029235884455955288,178.39913048495168,-3.776028156041289,-63.65599740798104,0.0013777629115243237,0.0016002923911536007,-0.0005721189288037412,0.6666560779953002,0.27684173406600954,-9.683086369705201
2026-09-11T19:18:42.356,3.742896127999984,0.0,0.0,0.0,0.0,0.0,0.0,0.0,0.0,0.0,0.0,0.001251220703125,10.25,0.450439453125,0.0,0.0,0.0,1,1789168721.752148,38.990216741666664,-76.938744345,-9.529000000000003,0,1,13.184160999999998,9.388096,69.806025,1,1,1789168722.3428507,-0.8488634805870817,0.5274048671992164,-0.020467323318090987,-0.02925723938369246,178.38735167156554,-3.761806418502911,-63.65298911036332,-0.0005438445949214331,0.0024984388242298827,0.0009763371835656278,0.629979206390381,0.28419672168731686,-9.638269978466035
2026-09-11T19:18:42.390,3.776309119999951,0.0,0.0,0.0,0.0,0.0,0.0,0.0,0.0,0.0,0.0,0.001251220703125,10.25,0.450439453125,0.0,0.0,0.0,1,1789168721.752148,38.990216741666664,-76.938744345,-9.529000000000003,0,1,13.184160999999998,9.388096,69.806025,1,1,1789168722.3828506,-0.8488478995788924,0.5274281493688998,-0.02055803413697713,-0.029225979303060885,178.395990821384,-3.76879721393865,-63.65638537620525,0.0029021334802161714,0.001333955147299266,0.0007342600163140145,0.6572416938400268,0.2711538769721985,-9.681419239177705
2026-09-11T19:18:42.422,3.80972662399995,0.0,0.0,0.0,0.0,0.0,0.0,0.0,0.0,0.0,0.0,0.001251220703125,10.25,0.450439453125,0.0,0.0,0.0,1,1789168721.752148,38.990216741666664,-76.938744345,-9.529000000000003,0,1,13.184160999999998,9.388096,69.806025,1,1,1789168722.4148507,-0.8488774466909572,0.5273763325855787,-0.020565615782692864,-0.029297436329906227,178.38925065621333,-3.7737598817607636,-63.64925894343855,0.00193295214658372,0.004290193834327261,0.0010173524209874947,0.660674021396637,0.278312731590271,-9.688283894290924
2026-09-11T19:18:42.455,3.843148767999992,0.0,0.0,0.0,0.0,0.0,0.0,0.0,0.0,0.0,0.0,0.001251220703125,10.25,0.450439453125,0.0,0.0,0.0,1,1789168721.752148,38.990216741666664,-76.938744345,-9.529000000000003,0,1,13.184160999999998,9.388096,69.806025,1,1,1789168722.4428506,-0.8489061893135506,0.5273312149397815,-0.0204459691276804,-0.029360412832758146,178.3756716100256,-3.765825579608477,-63.64279046442731,-0.0006110397711232147,0.005525886944739247,0.0003612831551628262,0.6404723220634461,0.281941192150116,-9.66210013835907
2026-09-11T19:18:42.489,3.8765641280001546,0.0,0.0,0.0,0.0,0.0,0.0,0.0,0.0,0.0,0.0,0.001251220703125,10.25,0.450439453125,0.0,0.0,0.0,1,1789168721.752148,38.990216741666664,-76.938744345,-9.529000000000003,0,1,13.184160999999998,9.388096,69.806025,1,1,1789168722.4828508,-0.8488837448572519,0.527360775262758,-0.02060848390383204,-0.029364788822262056,178.385206076363,-3.78198053567637,-63.64711331728006,0.0015055210127703088,0.006980269810426122,-0.00010489428804485921,0.6646947479629517,0.2734094065093994,-9.675339116077422
2026-09-11T19:18:42.522,3.9099735679999412,0.0,0.0,0.0,0.0,0.0,0.0,0.0,0.0,0.0,0.0,0.001251220703125,10.25,0.450439453125,0.0,0.0,0.0,1,1789168721.752148,38.990216741666664,-76.938744345,-9.529000000000003,0,1,13.184160999999998,9.388096,69.806025,1,1,1789168722.5151043,-0.8488769258891554,0.5273604534549209,-0.020799182841992968,-0.029433158476501662,178.39007210196792,-3.8046948365960294,-63.64733578228411,0.0010491174133737914,0.008829620685839314,0.0001619665545850738,0.6574378268432618,0.2772340000724792,-9.666807330436706
2026-09-11T19:18:42.556,3.943391904000009,0.0,0.0,0.0,0.0,0.0,0.0,0.0,0.0,0.0,0.0,0.001251220703125,10.25,0.450439453125,0.0,0.0,0.0,1,1789168721.752148,38.990216741666664,-76.938744345,-9.529000000000003,0,1,13.184160999999998,9.388096,69.806025,1,1,1789168722.5431042,-0.8488672995872611,0.5273636438494728,-0.021008071627051997,-0.02950518198130727,178.39569822174624,-3.8294092050792776,-63.648069511643065,-0.0012164944886400477,0.0049439941721243375,0.00015760323145508795,0.7053923461341858,0.2715461429786682,-9.685636098747253
2026-09-11T19:18:42.589,3.9768004800000654,0.0,0.0,0.0,0.0,0.0,0.0,0.0,0.0,0.0,0.0,0.001251220703125,10.25,0.450439453125,0.0,0.0,0.0,1,1789168721.752148,38.990216741666664,-76.938744345,-9.529000000000003,0,1,13.184160999999998,9.388096,69.806025,1,1,1789168722.5831041,-0.8488815515443877,0.52733467286921,-0.021032883644487622,-0.029595135463684218,178.38829533129814,-3.8372123184898337,-63.64402789660987,0.001358913355602785,0.0016800539379697415,-0.00013316862192716734,0.6369419280052184,0.28860971426010135,-9.66670926393509
2026-09-11T19:18:42.623,4.010209184000132,0.0,0.0,0.0,0.0,0.0,0.0,0.0,0.0,0.0,0.0,0.001251220703125,10.25,0.450439453125,0.0,0.0,0.0,1,1789168721.752148,38.990216741666664,-76.938744345,-9.529000000000003,0,1,13.184160999999998,9.388096,69.806025,1,1,1789168722.6141043,-0.8488755060296385,0.5273520499974874,-0.020747556531499213,-0.029660234731791163,178.36476610309055,-3.813382644042108,-63.64563837700833,7.661995416255106e-05,0.002453932928304027,0.0016966345658636878,0.7500126043701173,0.30694815006256104,-9.631111123847962
2026-09-11T19:18:42.656,4.043631072000153,0.0,0.0,0.0,0.0,0.0,0.0,0.0,0.0,0.0,0.0,0.001251220703125,10.25,0.450439453125,0.0,0.0,0.0,1,1789168721.752148,38.990216741666664,-76.938744345,-9.529000000000003,0,1,13.184160999999998,9.388096,69.806025,1,1,1789168722.6541042,-0.8488813691306739,0.5273089181515141,-0.020993058724863612,-0.030083508207766528,178.33813844352878,-3.8628183646495837,-63.63947799094764,0.0006656685767106373,-0.004333128933926322,-0.0015926129424448257,0.5871241451835633,0.29459177085876465,-9.667886061954498
2026-09-11T19:18:42.689,4.077039968000008,0.0,0.0,0.0,0.0,0.0,0.0,0.0,0.0,0.0,0.0,0.001251220703125,10.25,0.450439453125,0.0,0.0,0.0,1,1789168721.752148,38.990216741666664,-76.938744345,-9.529000000000003,0,1,13.184160999999998,9.388096,69.806025,1,1,1789168722.6831043,-0.8488691872745459,0.5273252276698828,-0.02100387526345705,-0.03013377478305141,178.33396436702816,-3.8669442861019108,-63.64160287013232,0.0011550588989698474,-0.004335223329028715,-0.0006963863715457374,0.7149047967910768,0.2992008964347839,-9.603750569896699
2026-09-11T19:18:42.723,4.110449728000049,0.0,0.0,0.0,0.0,0.0,0.0,0.0,0.0,0.0,0.0,0.0010662078857421875,8.734375,0.3838348388671875,0.0,0.0,0.0,1,1789168721.752148,38.990216741666664,-76.938744345,-9.529000000000003,0,1,13.184160999999998,9.388096,69.806025,1,1,1789168722.715104,-0.8488898222760023,0.5273001747007869,-0.021058764476697647,-0.029952025565092424,178.35489659974684,-3.8612518411195063,-63.63870261776747,0.00014486232791552936,-0.007826405431792973,-0.002624102530373475,0.6171324946784973,0.25369803968429566,-9.692991086368561
2026-09-11T19:18:42.756,4.143866976000027,0.0,0.0,0.0,0.0,0.0,0.0,0.0,0.0,0.0,0.0,0.0010662078857421875,8.734375,0.3838348388671875,0.0,0.0,0.0,1,1789168722.7427917,38.990216765,-76.93874449166667,-9.443000000000001,0,1,13.191424000000001,9.388096,69.78931599999999,1,1,1789168722.7551043,-0.8489146073218393,0.5272983923078336,-0.020827486683834846,-0.029438253066645156,178.3910086668392,-3.8076430193966266,-63.63900055933946,0.000748222650329969,-0.012321849986154767,-0.000454309204294124,0.6903881713867188,0.26526988687515257,-9.635720249423981
2026-09-11T19:18:42.790,4.177275968000004,0.0,0.0,0.0,0.0,0.0,0.0,0.0,0.0,0.0,0.0,0.0010662078857421875,8.734375,0.3838348388671875,0.0,0.0,0.0,1,1789168722.7427917,38.990216765,-76.93874449166667,-9.443000000000001,0,1,13.191424000000001,9.388096,69.78931599999999,1,1,1789168722.7831042,-0.8489387541706434,0.5272793894398837,-0.020586514405089445,-0.029251197646395586,178.39459268113106,-3.772816074967433,-63.63629631195903,0.0012269664641520136,-0.005131442533788528,-0.001670454627083773,0.597519194355011,0.2736055395126343,-9.674554584064484
2026-09-11T19:18:42.825,4.210693952000156,0.0,0.0,0.0,0.0,0.0,0.0,0.0,0.0,0.0,0.0,0.0010662078857421875,8.734375,0.3838348388671875,0.0,0.0,0.0,1,1789168722.7427917,38.990216765,-76.93874449166667,-9.443000000000001,0,1,13.191424000000001,9.388096,69.78931599999999,1,1,1789168722.8151042,-0.8489513352323591,0.5272753768792036,-0.020475801624776118,-0.029035304233146556,178.40893440361617,-3.7489659465360563,-63.63594831025927,0.0002419026343264141,0.0009829694347232064,-0.0008407251006856685,0.663419883441925,0.2616414263153076,-9.634543451404571
2026-09-11T19:18:42.857,4.244109728000012,0.0,0.0,0.0,0.0,0.0,0.0,0.0,0.0,0.0,0.0,0.0010662078857421875,8.734375,0.3838348388671875,0.0,0.0,0.0,1,1789168722.7427917,38.990216765,-76.93874449166667,-9.443000000000001,0,1,13.191424000000001,9.388096,69.78931599999999,1,1,1789168722.8541043,-0.848962193991403,0.5272603303825032,-0.02032003205894094,-0.029100403353917354,178.39309893344083,-3.73769671037439,-63.63346561868817,9.634217471008698e-05,0.006607292949274934,0.001950230906178464,0.5936946007919311,0.29733763290405274,-9.654156751728058
2026-09-11T19:18:42.891,4.277529407999964,0.0,0.0,0.0,0.0,0.0,0.0,0.0,0.0,0.0,0.0,0.0010662078857421875,8.734375,0.3838348388671875,0.0,0.0,0.0,1,1789168722.7427917,38.990216765,-76.93874449166667,-9.443000000000001,0,1,13.191424000000001,9.388096,69.78931599999999,1,1,1789168722.8831043,-0.8489278147723539,0.5273049627189499,-0.020500940027265258,-0.02916767141547739,178.39767669205574,-3.7594754594094875,-63.6397374590148,-0.0004246386070102204,0.011448836294307204,0.002280098134805392,0.685680979309082,0.2682118819236755,-9.69112782283783
2026-09-11T19:18:42.923,4.310939264000126,0.0,0.0,0.0,0.0,0.0,0.0,0.0,0.0,0.0,0.0,0.0010662078857421875,8.734375,0.3838348388671875,0.0,0.0,0.0,1,1789168722.7427917,38.990216765,-76.93874449166667,-9.443000000000001,0,1,13.191424000000001,9.388096,69.78931599999999,1,1,1789168722.9151042,-0.8489230904265671,0.5272979075247032,-0.020775037451738077,-0.02923869148157649,178.40729687716686,-3.7904633609790825,-63.639220678852,0.00014381513036433276,0.013129762896902942,0.00031014500807939236,0.6452775806427001,0.2730171405029297,-9.677594645614624
2026-09-11T19:18:42.957,4.344357376000062,0.0,0.0,0.0,0.0,0.0,0.0,0.0,0.0,0.0,0.0,0.0010662078857421875,8.734375,0.3838348388671875,0.0,0.0,0.0,1,1789168722.7427917,38.990216765,-76.93874449166667,-9.443000000000001,0,1,13.191424000000001,9.388096,69.78931599999999,1,1,1789168722.955104,-0.8488890252063682,0.5273337387227306,-0.02106554889855925,-0.029373347417194773,178.41189722063228,-3.8269796074272078,-63.64441745894199,0.0010519099401769825,0.004578522226756725,0.0003885102914939377,0.687936508846283,0.27478233753204345,-9.676613980598448
2026-09-11T19:18:42.990,4.377775616000008,0.0,0.0,0.0,0.0,0.0,0.0,0.0,0.0,0.0,0.0,0.0010662078857421875,8.734375,0.3838348388671875,0.0,0.0,0.0,1,1789168722.7427917,38.990216765,-76.93874449166667,-9.443000000000001,0,1,13.191424000000001,9.388096,69.78931599999999,1,1,1789168722.9821043,-0.8489066183330721,0.5273029777788942,-0.021055503564117346,-0.029424288359795044,178.40618261821734,-3.8290239918824143,-63.64013731922921,0.0004180063558526419,0.002505245608312661,-0.0011704177963873972,0.649984772720337,0.28115666013717655,-9.63081692434311
2026-09-11T19:18:43.023,4.411189088000128,0.0,0.0,0.0,0.0,0.0,0.0,0.0,0.0,0.0,0.0,0.0010662078857421875,8.734375,0.3838348388671875,0.0,0.0,0.0,1,1789168722.7427917,38.990216765,-76.93874449166667,-9.443000000000001,0,1,13.191424000000001,9.388096,69.78931599999999,1,1,1789168723.0151043,-0.8489067015724919,0.5272829292389455,-0.02114480487331717,-0.029715682482132928,178.38307330451096,-3.8553093500610625,-63.63703546996035,0.0005679301385989548,-0.0019254472308001445,-0.0019973547959823107,0.6914669029045105,0.30910561309814455,-9.664061468391418
2026-09-11T19:18:43.057,4.444601408000153,0.0,0.0,0.0,0.0,0.0,0.0,0.0,0.0,0.0,0.0,0.0010662078857421875,8.734375,0.3838348388671875,0.0,0.0,0.0,1,1789168722.7427917,38.990216765,-76.93874449166667,-9.443000000000001,0,1,13.191424000000001,9.388096,69.78931599999999,1,1,1789168723.0551043,-0.8489526186502939,0.5272191458532427,-0.02073441997121082,-0.029824609989796545,178.3473416334398,-3.8217856556468996,-63.627325667066636,0.0003464478565208744,-0.00850446584619277,0.00040840704496667313,0.6591049573707581,0.29115944330215454,-9.652979953708648
2026-09-11T19:18:43.090,4.478021376000015,0.0,0.0,0.0,0.0,0.0,0.0,0.0,0.0,0.0,0.0,0.0010662078857421875,8.734375,0.3838348388671875,0.0,0.0,0.0,1,1789168722.7427917,38.990216765,-76.93874449166667,-9.443000000000001,0,1,13.191424000000001,9.388096,69.78931599999999,1,1,1789168723.0831041,-0.8489525992839774,0.5272211696910571,-0.020717793270396533,-0.029800930196511363,178.348654958607,-3.8187376446036865,-63.62761178556663,0.0006609561877302527,-0.007757290393413998,-0.0008951793733478916,0.6532209672737121,0.28860971426010135,-9.648468894634247
2026-09-11T19:18:43.124,4.5114318079999975,0.0,0.0,0.0,0.0,0.0,0.0,0.0,0.0,0.0,0.0,0.0010662078857421875,8.734375,0.3838348388671875,0.0,0.0,0.0,1,1789168722.7427917,38.990216765,-76.93874449166667,-9.443000000000001,0,1,13.191424000000001,9.388096,69.78931599999999,1,1,1789168723.1151042,-0.8489778080802723,0.5272003706447934,-0.020413234893845365,-0.02966058698639702,178.34383414240904,-3.7805348042480005,-63.624452800769376,-0.0011423179954302887,-0.005092870757319454,0.0013992304613238541,0.6337057334518432,0.27752819957733155,-9.66435566789627
2026-09-11T19:18:43.157,4.544845760000044,0.0,0.0,0.0,0.0,0.0,0.0,0.0,0.0,0.0,0.0,0.0010662078857421875,8.734375,0.3838348388671875,0.0,0.0,0.0,1,1789168722.7427917,38.990216765,-76.93874449166667,-9.443000000000001,0,1,13.191424000000001,9.388096,69.78931599999999,1,1,1789168723.1551042,-0.8490010197380742,0.527187698540076,-0.020301449237377603,-0.029295906720739468,178.37258744549212,-3.7475686801828743,-63.62323218817141,0.0009435249936281345,-0.0039044760696365145,-7.714355293814937e-05,0.6282140093612671,0.2557574362182617,-9.632582121372222
2026-09-11T19:18:43.191,4.5782716480000545,0.0,0.0,0.0,0.0,0.0,0.0,0.0,0.0,0.0,0.0,0.0010662078857421875,8.734375,0.3838348388671875,0.0,0.0,0.0,1,1789168722.7427917,38.990216765,-76.93874449166667,-9.443000000000001,0,1,13.191424000000001,9.388096,69.78931599999999,1,1,1789168723.1831043,-0.8490076489227081,0.5271842786709531,-0.020329475224193812,-0.029145511318754255,178.38893530766555,-3.741200133156111,-63.62312263876469,0.00039112828537192924,0.003436902363027234,-0.00041364303272265607,0.6455717801475525,0.26732928340911866,-9.668670593967438
2026-09-11T19:18:43.224,4.611684544000127,0.0,0.0,0.0,0.0,0.0,0.0,0.0,0.0,0.0,0.0,0.0010662078857421875,8.734375,0.3838348388671875,0.0,0.0,0.0,1,1789168722.7427917,38.990216765,-76.93874449166667,-9.443000000000001,0,1,13.191424000000001,9.388096,69.78931599999999,1,1,1789168723.215104,-0.8490129717162149,0.5271732490699479,-0.020430381542802425,-0.029119389290502805,178.39753561578797,-3.749432404114792,-63.621891946208464,-0.0006721262949430164,0.007803716151517047,-0.0013147565255273283,0.6358631964874267,0.2661524853897095,-9.652979953708648
2026-09-11T19:18:43.257,4.64509635200011,0.0,0.0,0.0,0.0,0.0,0.0,0.0,0.0,0.0,0.0,0.0010662078857421875,8.734375,0.3838348388671875,0.0,0.0,0.0,1,1789168722.7427917,38.990216765,-76.93874449166667,-9.443000000000001,0,1,13.191424000000001,9.388096,69.78931599999999,1,1,1789168723.2551043,-0.8490336400493174,0.5271294384130137,-0.02049256268344204,-0.029265817905055877,178.38681926168013,-3.7642611609378007,-63.61581421577723,0.0011531390367926536,0.0070760883863606105,-0.00025603980126756814,0.6595952898788452,0.2873348497390747,-9.671220323009491
2026-09-11T19:18:43.291,4.678518496000152,0.0,0.0,0.0,0.0,0.0,0.0,0.0,0.0,0.0,0.0,0.0010662078857421875,8.734375,0.3838348388671875,0.0,0.0,0.0,1,1789168722.7427917,38.990216765,-76.93874449166667,-9.443000000000001,0,1,13.191424000000001,9.388096,69.78931599999999,1,1,1789168723.2831042,-0.8490457865599386,0.5271006112603518,-0.020487109899415205,-0.029435968843372396,178.36976515275327,-3.7739608031871206,-63.61157263635628,-0.00034086280291449253,0.008919156076466622,-7.452555906015788e-05,0.6531229007720948,0.29017877828598027,-9.661217539844513
2026-09-11T19:18:43.324,4.711934464000024,0.0,0.0,0.0,0.0,0.0,0.0,0.0,0.0,0.0,0.0,0.0010662078857421875,8.734375,0.3838348388671875,0.0,0.0,0.0,1,1789168722.7427917,38.990216765,-76.93874449166667,-9.443000000000001,0,1,13.191424000000001,9.388096,69.78931599999999,1,1,1789168723.3151042,-0.8490357727277209,0.5271024168203802,-0.020661803164095268,-0.029570064267164128,178.3672546942121,-3.799094128561264,-63.61191291389556,-0.0008089601082993718,0.00583254129431465,-0.0005534439058074019,0.6744033316230774,0.28252959115982057,-9.665336332912444
2026-09-11T19:18:43.358,4.745348255999943,0.0,0.0,0.0,0.0,0.0,0.0,0.0,0.0,0.0,0.0,0.0010662078857421875,8.734375,0.3838348388671875,0.0,0.0,0.0,1,1789168722.7427917,38.990216765,-76.93874449166667,-9.443000000000001,0,1,13.191424000000001,9.388096,69.78931599999999,1,1,1789168723.3551042,-0.8489853329771827,0.5271702658222742,-0.020889591176802863,-0.029648612159102288,178.3736706954606,-3.826170263993608,-63.62140148297577,0.0017832028967626065,-0.001206895177754079,0.0009208357133522083,0.6741091321182251,0.2902768447875977,-9.654745150737762
2026-09-11T19:18:43.391,4.778767488000085,0.0,0.0,0.0,0.0,0.0,0.0,0.0,0.0,0.0,0.0,0.0010662078857421875,8.734375,0.3838348388671875,0.0,0.0,0.0,1,1789168722.7427917,38.990216765,-76.93874449166667,-9.443000000000001,0,1,13.191424000000001,9.388096,69.78931599999999,1,1,1789168723.3831043,-0.8489736716395402,0.5271888398912021,-0.0209023828065976,-0.029643251340781284,178.3750508829595,-3.8271281720699353,-63.623948761973764,-0.0012878784550466157,-0.0024076817031261776,-0.0007962192047598132,0.6661657454872132,0.28419672168731686,-9.66474793390274
2026-09-11T19:18:43.426,4.8121842240000205,0.0,0.0,0.0,0.0,0.0,0.0,0.0,0.0,0.0,0.0,0.0010662078857421875,8.734375,0.3838348388671875,0.0,0.0,0.0,1,1789168722.7427917,38.990216765,-76.93874449166667,-9.443000000000001,0,1,13.191424000000001,9.388096,69.78931599999999,1,1,1789168723.4151042,-0.8489903749308321,0.5271646035082205,-0.02084405419072253,-0.029636961512948597,178.37202808241895,-3.821017664362619,-63.620563320018796,-0.0008581783932056119,-0.00599276251964773,-0.0011744320536669845,0.6656754129791259,0.28223539165496825,-9.66553246591568
2026-09-11T19:18:43.458,4.845598079999945,0.0,0.0,0.0,0.0,0.0,0.0,0.0,0.0,0.0,0.0,0.0010662078857421875,8.734375,0.3838348388671875,0.0,0.0,0.0,1,1789168722.7427917,38.990216765,-76.93874449166667,-9.443000000000001,0,1,13.191424000000001,9.388096,69.78931599999999,1,1,1789168723.455104,-0.8489936238795555,0.5271767303225403,-0.020724435816529222,-0.029411211780243248,178.38686867835003,-3.7957358657435365,-63.622399573971556,0.0020116664958486643,-0.007633546549447599,-0.0002836160034490786,0.6341960659599305,0.28115666013717655,-9.658079411792755
2026-09-11T19:18:43.491,4.8790245120001146,0.0,0.0,0.0,0.0,0.0,0.0,0.0,0.0,0.0,0.0,0.0010662078857421875,8.734375,0.3838348388671875,0.0,0.0,0.0,1,1789168722.7427917,38.990216765,-76.93874449166667,-9.443000000000001,0,1,13.191424000000001,9.388096,69.78931599999999,1,1,1789168723.4831042,-0.8490088827461945,0.5271495951726205,-0.02073432447195437,-0.02945011232733496,178.38355085755975,-3.7989997371305364,-63.61867719724862,-0.0004790928796724434,-0.005379977419272521,-0.002392497338633827,0.7241230479431152,0.27880306409835814,-9.684067034721375
2026-09-11T19:18:43.525,4.91244358400013,0.0,0.0,0.0,0.0,0.0,0.0,0.0,0.0,0.0,0.0,0.0010662078857421875,8.734375,0.3838348388671875,0.0,0.0,0.0,1,1789168722.7427917,38.990216765,-76.93874449166667,-9.443000000000001,0,1,13.191424000000001,9.388096,69.78931599999999,1,1,1789168723.5151043,-0.8490366231162483,0.5271497121613027,-0.02016962717465586,-0.029037556977971824,178.38964755432968,-3.7190320297843935,-63.61833805032171,-0.0012913691135506044,0.004420395396526038,-2.4609142453120048e-05,0.5945771993064881,0.2681138154220581,-9.659648475818635
2026-09-11T19:18:43.558,4.945855424000001,0.0,0.0,0.0,0.0,0.0,0.0,0.0,0.0,0.0,0.0,0.0010662078857421875,8.734375,0.3838348388671875,0.0,0.0,0.0,1,1789168722.7427917,38.990216765,-76.93874449166667,-9.443000000000001,0,1,13.191424000000001,9.388096,69.78931599999999,1,1,1789168723.5551043,-0.8490042271328357,0.5271946408114175,-0.02045824506519016,-0.02896710581244694,178.4141673216835,-3.7429805749351237,-63.62513857203465,-3.787364476827695e-05,0.012968669006943866,-0.00032637657012293966,0.6555745633125306,0.26546601987838747,-9.669160926475525
2026-09-11T19:18:43.592,4.9792754239999795,0.0,0.0,0.0,0.0,0.0,0.0,0.0,0.0,0.0,0.0,0.0010662078857421875,8.734375,0.3838348388671875,0.0,0.0,0.0,1,1789168722.7427917,38.990216765,-76.93874449166667,-9.443000000000001,0,1,13.191424000000001,9.388096,69.78931599999999,1,1,1789168723.5831041,-0.8489854207597942,0.5272173686942165,-0.02070046917103138,-0.02893254327847148,178.43228627476327,-3.76453523877353,-63.62878703077599,-0.0001720894642466409,0.016414298016231073,0.002478716603682347,0.6443949821281434,0.2519328426551819,-9.688087761287688
2026-09-11T19:18:43.626,5.01269827200008,0.0,0.0,0.0,0.0,0.0,0.0,0.0,0.0,0.0,0.0,0.0010662078857421875,8.734375,0.3838348388671875,0.0,0.0,0.0,1,1789168722.7427917,38.990216765,-76.93874449166667,-9.443000000000001,0,1,13.191424000000001,9.388096,69.78931599999999,1,1,1789168723.6151042,-0.8489497220168549,0.5272466456856176,-0.0211766478127267,-0.029101437905803537,178.4447431206823,-3.8211998513090992,-63.63343793323827,-0.0009044296183834615,0.013139885806564508,0.0027857200191081493,0.6722458685874939,0.26801574892044067,-9.6723971210289
2026-09-11T19:18:43.659,5.046113888000036,0.0,0.0,0.0,0.0,0.0,0.0,0.0,0.0,0.0,0.0,0.0010662078857421875,8.734375,0.3838348388671875,0.0,0.0,0.0,1,1789168722.7427917,38.990216765,-76.93874449166667,-9.443000000000001,0,1,13.191424000000001,9.388096,69.78931599999999,1,1,1789168723.6551042,-0.8488805050831151,0.5273357763204111,-0.021395899084835926,-0.029344209049424995,178.4347315625639,-3.857408173301133,-63.645478344328176,0.00038152897448596047,0.009066985464110541,0.003121346834266659,0.6550842308044433,0.2888058472633362,-9.670239657993317
2026-09-11T19:18:43.692,5.079527456000051,0.0,0.0,0.0,0.0,0.0,0.0,0.0,0.0,0.0,0.0,0.0010662078857421875,8.734375,0.3838348388671875,0.0,0.0,0.0,1,1789168722.7427917,38.990216765,-76.93874449166667,-9.443000000000001,0,1,13.191424000000001,9.388096,69.78931599999999,1,1,1789168723.6831043,-0.8488927986711406,0.527320708763005,-0.021152543768619542,-0.02943563089313516,178.41102625145987,-3.8391982722802265,-63.6427212444465,-0.0021884683490756896,0.007158642459979943,0.002356543556042744,0.6402761890602112,0.2807643941307068,-9.655823882255556
2026-09-11T19:18:43.726,5.11294524799996,0.0,0.0,0.0,0.0,0.0,0.0,0.0,0.0,0.0,0.0,0.0010662078857421875,8.734375,0.3838348388671875,0.0,0.0,0.0,1,1789168722.7427917,38.990216765,-76.93874449166667,-9.443000000000001,0,1,13.191424000000001,9.388096,69.78931599999999,1,1,1789168723.715104,-0.8488548265084296,0.5273822504068042,-0.0210459289583497,-0.02950448005776136,178.39814084827228,-3.83309033771481,-63.65066671825895,-8.464846872172499e-05,0.005191481860057133,0.0058491219222085965,0.6493963737106323,0.2947879038619995,-9.654156751728058
2026-09-11T19:18:43.759,5.1463576959999955,0.0,0.0,0.0,0.0,0.0,0.0,0.0,0.0,0.0,0.0,0.001373291015625,11.25,0.494384765625,0.0,0.0,0.0,1,1789168722.7427917,38.990216765,-76.93874449166667,-9.443000000000001,0,1,13.191424000000001,9.388096,69.78931599999999,1,1,1789168723.7551043,-0.8488035198867984,0.5274519542603414,-0.021097141079958682,-0.029697326697536917,178.3827481570911,-3.8498771167650454,-63.65980825067687,-0.00033283428835531863,0.008007396075224785,0.004924970083277599,0.6945069644546508,0.2711538769721985,-9.669651258983611
2026-09-11T19:18:43.792,5.179771904000063,0.0,0.0,0.0,0.0,0.0,0.0,0.0,0.0,0.0,0.0,0.001987457275390625,16.28125,0.715484619140625,0.015258789993822575,5.493164397776127,164.39606761785402,1,1789168723.7598553,38.99021683666667,-76.93874461666667,-9.373000000000001,0,1,13.344409,12.988816,146.458404,1,1,1789168723.7831042,-0.8487794940001719,0.5274770675995658,-0.02134240465541836,-0.02976265251787556,178.39133165799504,-3.877771542762039,-63.66360476299657,-0.0014346606451393388,0.008629780486485963,0.0031192524391642656,0.6653812134742736,0.26801574892044067,-9.638662244472505
2026-09-11T19:18:43.826,5.213191296000105,0.0,0.0,0.0,0.0,0.0,0.0,0.0,0.0,0.0,0.0,0.0038242340087890625,31.328125,1.3767242431640625,0.0915527418255806,32.958987057209015,821.8528529603016,1,1789168723.7598553,38.99021683666667,-76.93874461666667,-9.373000000000001,0,1,13.344409,12.988816,146.458404,1,1,1789168723.8151042,-0.8487674645421345,0.527508923085496,-0.021160253062489486,-0.02967104464335655,178.38938861343618,-3.854544035791348,-63.66769641924527,-0.0013531537690712038,0.00614670055967363,0.005142438108076092,0.6273314108467102,0.2684080149269104,-9.675633315582274
2026-09-11T19:18:43.859,5.2466117120000035,0.0,0.0,0.0,0.0,0.0,0.0,0.0,0.0,0.0,0.0,0.00737762451171875,60.4375,2.65594482421875,0.1220703274011612,43.94531786441803,328.7311207389586,1,1789168723.7598553,38.99021683666667,-76.93874461666667,-9.373000000000001,0,1,13.344409,12.988816,146.458404,1,1,1789168723.8541043,-0.848717977392776,0.5276168899269765,-0.020913990025908442,-0.029339688738912028,178.4072847167464,-3.810708635162215,-63.68241890187427,-0.0003342305517569141,0.005240002013262576,0.009176941206986186,0.6486118416976929,0.26262209133148195,-9.657491012783051
2026-09-11T19:18:43.892,5.280023583999991,0.0,0.0,0.0,0.0,0.0,0.0,0.0,0.0,0.0,0.0,0.012279510498046875,100.59375,4.420623779296875,0.1525879055261612,54.93164598941803,328.8151027576065,1,1789168723.7598553,38.99021683666667,-76.93874461666667,-9.373000000000001,0,1,13.344409,12.988816,146.458404,1,1,1789168723.8831043,-0.8486687537033331,0.5276787698705149,-0.021109480454026414,-0.02951020417639727,178.40277011617206,-3.840186537519116,-63.69086337494049,-0.0011442378576074824,0.005834461156491844,0.008595921098997273,0.6982334915161132,0.2702712784576416,-9.645919165592193
2026-09-11T19:18:43.926,5.313463392000131,0.0,0.0,0.0,0.0,0.0,0.0,0.0,0.0,0.0,0.0,0.017976760864257812,147.265625,6.4716339111328125,0.1831054836511612,65.91797411441803,328.5404068394847,1,1789168723.7598553,38.99021683666667,-76.93874461666667,-9.373000000000001,0,1,13.344409,12.988816,146.458404,1,1,1789168723.9231043,-0.8485954149643935,0.5277859750949178,-0.021414147710723544,-0.029482545214732744,178.42439798126972,-3.8683890540987744,-63.706080360487604,0.0005314527572322734,0.004530002073551282,0.007742804160622445,0.6662638119888306,0.23967452995300292,-9.66317886987686
2026-09-11T19:18:43.959,5.346876159999965,0.0,0.0,0.0,0.0,0.0,0.0,0.0,0.0,0.0,0.0,0.026117324829101562,213.953125,9.402236938476562,0.3051758110523224,109.86329197883606,1315.2253014367307,1,1789168723.7598553,38.99021683666667,-76.93874461666667,-9.373000000000001,0,1,13.344409,12.988816,146.458404,1,1,1789168723.955104,-0.8485113605111649,0.5279194558830714,-0.021569094490229552,-0.029398866414969697,178.44254856287756,-3.8786608816677677,-63.72464121208711,0.0005286602304290824,-0.004474849669188262,0.008013853793457164,0.6982334915161132,0.27625333505630495,-9.65141088968277
2026-09-11T19:18:43.993,5.380289599999969,0.0,0.0,0.0,0.0,0.0,0.0,0.0,0.0,0.0,0.0,0.03673744201660156,300.953125,13.225479125976562,0.1525879204273224,54.93165135383606,-1643.998361886522,1,1789168723.7598553,38.99021683666667,-76.93874461666667,-9.373000000000001,0,1,13.344409,12.988816,146.458404,1,1,1789168723.9831042,-0.848445312293651,0.5280118500119644,-0.02150785485222564,-0.029689231608907084,178.41095703745302,-3.890450729831979,-63.73640426928652,-0.0020116664958486643,-0.014611547431846129,0.0071804590756298714,0.6999986885452271,0.32764018190383914,-9.66592473192215
2026-09-11T19:18:44.026,5.413698336000152,0.0,0.0,0.0,0.0,0.0,0.0,0.0,0.0,0.0,0.0,0.03893852233886719,318.984375,14.017868041992188,0.1678466945886612,60.42481005191803,164.4228233612867,1,1789168723.7598553,38.99021683666667,-76.93874461666667,-9.373000000000001,0,1,13.344409,12.988816,146.458404,1,1,1789168724.0231042,-0.8484017808789477,0.5280668792745458,-0.021066667425628918,-0.030265239768595457,178.3283362975035,-3.882475626430688,-63.74170899312151,0.00046844637123527805,-0.012646830292876112,0.0073771576823296325,0.7303012375450134,0.3250904528617859,-9.648959227142335
2026-09-11T19:18:44.060,5.447117632000072,0.0,0.0,0.0,0.0,0.0,0.0,0.0,0.0,0.0,0.0,0.04429435729980469,362.859375,15.945968627929688,0.0915527492761612,32.95898973941803,-821.8551435842859,1,1789168723.7598553,38.99021683666667,-76.93874461666667,-9.373000000000001,0,1,13.344409,12.988816,146.458404,1,1,1789168724.0551043,-0.8483720249000143,0.5281256210681584,-0.020819813121997776,-0.030245183417968294,178.3156070034905,-3.857338161039687,-63.74916903788678,-0.0012683307674242793,-0.01349087151914057,0.00673470198467052,0.6405703885650635,0.26654475139617917,-9.670926123504639
2026-09-11T19:18:44.093,5.480527616000018,0.0,0.0,0.0,0.0,0.0,0.0,0.0,0.0,0.0,0.0,0.04887962341308594,400.421875,17.596664428710938,0.1068115383386612,38.45215380191803,164.41684205861904,1,1789168723.7598553,38.99021683666667,-76.93874461666667,-9.373000000000001,0,1,13.344409,12.988816,146.458404,1,1,1789168724.0821042,-0.8483283501900994,0.5282026051664792,-0.020769024866850547,-0.030160665860833078,178.32111837518588,-3.8474255476421546,-63.75964095521015,-0.000734085483388815,-0.0127422998029602,0.0052117276793802675,0.6857790458106995,0.278999197101593,-9.632385988368988
2026-09-11T19:18:44.127,5.51394067199999,0.0,0.0,0.0,0.0,0.0,0.0,0.0,0.0,0.0,0.0,0.05404853820800781,442.765625,19.457473754882812,0.2136230617761612,76.90430223941803,1150.812078893115,1,1789168723.7598553,38.99021683666667,-76.93874461666667,-9.373000000000001,0,1,13.344409,12.988816,146.458404,1,1,1789168724.123104,-0.8482412871755991,0.5283479856949465,-0.02113822419471219,-0.029804365798807974,178.3788772098168,-3.8620686693679462,-63.78080227586821,8.429940287132612e-05,-0.00559866717454741,0.006161012259539983,0.6452775806427001,0.23624220239639282,-9.682694103698731
2026-09-11T19:18:44.160,5.547359072000063,0.0,0.0,0.0,0.0,0.0,0.0,0.0,0.0,0.0,0.0,0.06808853149414062,557.78125,24.511871337890625,0.5798340439796448,208.74025583267212,3945.010939870406,1,1789168723.7598553,38.99021683666667,-76.93874461666667,-9.373000000000001,0,1,13.344409,12.988816,146.458404,1,1,1789168724.1551042,-0.8482038653570669,0.5284468875148847,-0.02078799636904013,-0.029358969261912716,178.40150136564682,-3.8011673446335266,-63.79431046174687,0.00015550883635269476,-0.005505117526640514,0.00695007561436662,0.6417471865844726,0.27478233753204345,-9.651901222190856
2026-09-11T19:18:44.194,5.580768576000082,0.0,0.0,0.0,0.0,0.0,0.0,0.0,0.0,0.0,0.0,0.07122993469238281,583.515625,25.642776489257812,-0.01525880303233862,-5.493169091641903,-6412.349759044321,1,1789168723.7598553,38.99021683666667,-76.93874461666667,-9.373000000000001,0,1,13.344409,12.988816,146.458404,1,1,1789168724.1831043,-0.8481649284081207,0.5285218642468685,-0.02037510863006558,-0.029423599028245387,178.37051059258704,-3.7650327342009557,-63.803454096880415,-0.00019600047499896322,-0.007337364175384161,0.008632922079139552,0.6033051179504394,0.3484302802467346,-9.650724424171447
2026-09-11T19:18:44.227,5.614178464000133,0.0,0.0,0.0,0.0,0.0,0.0,0.0,0.0,0.0,0.0,0.07279396057128906,596.328125,26.205825805664062,0.015258789993822575,5.493164397776127,328.8347895509628,1,1789168723.7598553,38.99021683666667,-76.93874461666667,-9.373000000000001,0,1,13.344409,12.988816,146.458404,1,1,1789168724.2221043,-0.84812639809978,0.5285799380809244,-0.02026629283920014,-0.02956584649921924,178.35031193706442,-3.7631750130530595,-63.81080499439018,6.213372137099813e-05,0.003998549316319009,0.008240048464515629,0.619093824710846,0.24477398803710937,-9.62316773721695
2026-09-11T19:18:44.260,5.6475973760000215,0.0,0.0,0.0,0.0,0.0,0.0,0.0,0.0,0.0,0.0,0.07571601867675781,620.265625,27.257766723632812,0.1525879055261612,54.93164598941803,1479.356407288402,1,1789168723.7598553,38.99021683666667,-76.93874461666667,-9.373000000000001,0,1,13.344409,12.988816,146.458404,1,1,1789168724.2551043,-0.8480483184741957,0.5287110424735855,-0.020582597162562076,-0.02924106348317909,178.4017172811856,-3.77452335707479,-63.829829180737256,-0.0005291838292046807,0.007526557866300347,0.007151312077121566,0.615465364151001,0.25977816278457644,-9.631993722362518
2026-09-11T19:18:44.295,5.68100662400002,0.0,0.0,0.0,0.0,0.0,0.0,0.0,0.0,0.0,0.0,0.07913017272949219,648.234375,28.486862182617188,0.0762939602136612,27.46582567691803,-822.1023206658692,1,1789168723.7598553,38.99021683666667,-76.93874461666667,-9.373000000000001,0,1,13.344409,12.988816,146.458404,1,1,1789168724.2831042,-0.8479917343584914,0.5287864781270532,-0.020936385034658393,-0.02926682065660086,178.42100286194363,-3.810661070746122,-63.84073907986548,-0.0010803588069844899,0.00741468226124751,0.007632324818971204,0.7248095134544373,0.2578168327522278,-9.667787995452882
2026-09-11T19:18:44.327,5.714431264000041,0.0,0.0,0.0,0.0,0.0,0.0,0.0,0.0,0.0,0.0,0.081512451171875,667.75,29.344482421875,0.0762939602136612,27.46582567691803,0.0,1,1789168723.7598553,38.99021683666667,-76.93874461666667,-9.373000000000001,0,1,13.344409,12.988816,146.458404,1,1,1789168724.3231041,-0.8479440501971275,0.5288361679116407,-0.02168615484210184,-0.029204553274906973,178.47277812162616,-3.8799489471301896,-63.84926525224147,-0.0003686135380212024,0.012027412941343322,0.0030319859765645493,0.664106348953247,0.22261095867156983,-9.681026973171234
2026-09-11T19:18:44.360,5.7478558719999455,0.0,0.0,0.0,0.0,0.0,0.0,0.0,0.0,0.0,0.0,0.08400726318359375,688.1875,30.24261474609375,0.061035171151161194,21.97266161441803,-164.34490607984546,1,1789168723.7598553,38.99021683666667,-76.93874461666667,-9.373000000000001,0,1,13.344409,12.988816,146.458404,1,1,1789168724.3541043,-0.8479749426498034,0.5287779949213777,-0.02177193307607395,-0.02929695641395243,178.46871304622866,-3.8937970541606575,-63.841407659531704,-0.0002659881780039358,0.010304423903774522,0.0021766001101621284,0.6987238240242004,0.2634066233444214,-9.678771443634032
2026-09-11T19:18:44.394,5.781262976000107,0.0,0.0,0.0,0.0,0.0,0.0,0.0,0.0,0.0,0.0,0.08539581298828125,699.5625,30.74249267578125,0.045776382088661194,16.47949755191803,-164.43101630340055,1,1789168723.7598553,38.99021683666667,-76.93874461666667,-9.373000000000001,0,1,13.344409,12.988816,146.458404,1,1,1789168724.3831043,-0.8479916733525841,0.5287347121944594,-0.021790062546500306,-0.029579033445095562,178.4421313739288,-3.9125893997990784,-63.83502151772009,0.0005829399701661061,0.0035971235883603134,0.00252095357158061,0.6971547599983215,0.28625611822128294,-9.656314214763642
2026-09-11T19:18:44.427,5.8146879040000385,0.0,0.0,0.0,0.0,0.0,0.0,0.0,0.0,0.0,0.0,0.08658599853515625,709.3125,31.17095947265625,0.01525880303233862,5.493169091641903,-328.68667541479005,1,1789168723.7598553,38.99021683666667,-76.93874461666667,-9.373000000000001,0,1,13.344409,12.988816,146.458404,1,1,1789168724.4231043,-0.8480660691223242,0.5286057705835048,-0.02142657102676594,-0.03001305987837799,178.37720166055894,-3.9032825403387363,-63.815874998078996,-0.0001879719604397893,-0.001403244718603441,-4.066617157146788e-05,0.662243085422516,0.30135835947036743,-9.676417847595216
2026-09-11T19:18:44.460,5.8481111680000595,0.0,0.0,0.0,0.0,0.0,0.0,0.0,0.0,0.0,0.0,0.08817100524902344,722.296875,31.741561889648438,0.030517593026161194,10.98633348941803,164.35152466774898,1,1789168723.7598553,38.99021683666667,-76.93874461666667,-9.373000000000001,0,1,13.344409,12.988816,146.458404,1,1,1789168724.455104,-0.848101654150027,0.5285568519686705,-0.020918544938637706,-0.030226692551569023,178.32535780211708,-3.866684241957772,-63.80772464751713,-0.00011763519158441781,-0.0073261940681713985,0.0012353440445615864,0.6635179499435424,0.3347009700202942,-9.661119473342897
2026-09-11T19:18:44.494,5.881522560000121,0.0,0.0,0.0,0.0,0.0,0.0,0.0,0.0,0.0,0.0,0.09014511108398438,738.46875,32.452239990234375,0.061035171151161194,21.97266161441803,328.819826632176,1,1789168723.7598553,38.99021683666667,-76.93874461666667,-9.373000000000001,0,1,13.344409,12.988816,146.458404,1,1,1789168724.4831042,-0.8481011853242236,0.5285599691235777,-0.02055641442222702,-0.03043307933533765,178.2833071428961,-3.8439492662125323,-63.806977663707,-6.719517620178169e-05,-0.014593046941774988,0.002624277063298674,0.6583204253578185,0.3307783099555969,-9.671612589015961
2026-09-11T19:18:44.527,5.914944416000026,0.0,0.0,0.0,0.0,0.0,0.0,0.0,0.0,0.0,0.0,0.09337234497070312,764.90625,33.614044189453125,0.1220703274011612,43.94531786441803,657.4337538305122,1,1789168723.7598553,38.99021683666667,-76.93874461666667,-9.373000000000001,0,1,13.344409,12.988816,146.458404,1,1,1789168724.5231042,-0.8481013250509895,0.5285853971624925,-0.019967492688533265,-0.030379591653927968,178.2529334848625,-3.783429923116605,-63.809348004399475,-0.0011423179954302887,-0.01677854823112229,0.0014805628044667898,0.6420413860893249,0.3106746771240234,-9.655333549747466
2026-09-11T19:18:44.561,5.948370336000153,0.0,0.0,0.0,0.0,0.0,0.0,0.0,0.0,0.0,0.0,0.09821510314941406,804.578125,35.35743713378906,0.1831054836511612,65.91797411441803,657.3538215228335,1,1789168723.7598553,38.99021683666667,-76.93874461666667,-9.373000000000001,0,1,13.344409,12.988816,146.458404,1,1,1789168724.5551043,-0.8480885977629382,0.528629365457396,-0.01950202199173311,-0.030272024359756153,178.2353935931621,-3.731690384267223,-63.81461680366807,-0.00038554323176554736,-0.01820238783489926,0.0028820621938182365,0.608208443031311,0.32920924592971806,-9.641604239521026
2026-09-11T19:18:44.594,5.981783200000109,0.0,0.0,0.0,0.0,0.0,0.0,0.0,0.0,0.0,0.0,0.10636138916015625,871.3125,38.29010009765625,0.2593994438648224,93.38379979133606,822.0135118304734,1,1789168723.7598553,38.99021683666667,-76.93874461666667,-9.373000000000001,0,1,13.344409,12.988816,146.458404,1,1,1789168724.5831041,-0.8480487252988473,0.528716785385042,-0.019160427138963265,-0.03007986707018631,178.23378994354684,-3.6869727937865355,-63.82617972777019,-9.58185759344887e-05,-0.015670613221956287,0.004863883559457797,0.6186034922027588,0.3031235564994812,-9.64533076658249
2026-09-11T19:18:44.628,6.015205696000066,0.0,0.0,0.0,0.0,0.0,0.0,0.0,0.0,0.0,0.0,0.10996055603027344,900.796875,39.58580017089844,0.015258817933499813,5.493174456059933,-2629.6846691338724,1,1789168723.7598553,38.99021683666667,-76.93874461666667,-9.373000000000001,0,1,13.344409,12.988816,146.458404,1,1,1789168724.623104,-0.8479444127099707,0.5289116850237745,-0.019337772068997956,-0.029474615699993153,178.30435104411006,-3.6679248961698834,-63.85402542384939,-0.0018750072154175082,-0.0006939429105929454,0.005378581155870925,0.6504751052284241,0.24114552747726442,-9.67886951013565
2026-09-11T19:18:44.661,6.048629728000151,0.0,0.0,0.0,0.0,0.0,0.0,0.0,0.0,0.0,0.0,0.11190032958984375,916.6875,40.28411865234375,0.030517607927322388,10.98633885383606,164.34774828369729,1,1789168723.7598553,38.99021683666667,-76.93874461666667,-9.373000000000001,0,1,13.344409,12.988816,146.458404,1,1,1789168724.6551042,-0.8478659807138328,0.5290182068738817,-0.020383081318814552,-0.029112635402247424,178.40348892434525,-3.7478951236663893,-63.87120809112274,-0.0017126915949820356,0.011990761027051442,0.003603406773667493,0.6975470260047912,0.16220199367523191,-9.6701415914917
2026-09-11T19:18:44.694,6.082042047999948,0.0,0.0,0.0,0.0,0.0,0.0,0.0,0.0,0.0,0.0,0.11211395263671875,918.4375,40.36102294921875,0.0,0.0,-328.8110150358499,1,1789168723.7598553,38.99021683666667,-76.93874461666667,-9.373000000000001,0,1,13.344409,12.988816,146.458404,1,1,1789168724.6831043,-0.8478539117335591,0.5290438727007305,-0.02099016049820665,-0.028561132298543002,178.49415786054885,-3.773555440908805,-63.87706692647627,0.0019451694513476802,0.013886537660567683,0.0008639379797371931,0.6625372849273681,0.17651970291137695,-9.64944955965042
2026-09-11T19:18:44.728,6.115463104000128,0.0,0.0,0.0,0.0,0.0,0.0,0.0,0.0,0.0,0.0,0.112213134765625,919.25,40.396728515625,0.0,0.0,0.0,1,1789168723.7598553,38.99021683666667,-76.93874461666667,-9.373000000000001,0,1,13.344409,12.988816,146.458404,1,1,1789168724.7231042,-0.8478848026079174,0.5289605498263109,-0.021552245251325007,-0.028768019719934982,178.5077435736035,-3.840657883423128,-63.866658862663385,0.0002811725424962865,0.015051544936273899,-0.00016720254234105678,0.6981354250144959,0.25409030569076535,-9.650332158164979
2026-09-11T19:18:44.761,6.148882687999958,0.0,0.0,0.0,0.0,0.0,0.0,0.0,0.0,0.0,0.0,0.112213134765625,919.25,40.396728515625,0.0,0.0,0.0,1,1789168724.7527015,38.99021704,-76.93874463333333,-9.343000000000004,0,1,13.329800999999998,12.6736,75.58563600000001,1,1,1789168724.7551043,-0.8479642511263679,0.5288272851781202,-0.02116828262188321,-0.0291587906758341,178.4457778978755,-3.8267545808279597,-63.846982852421476,0.00021048670779051613,0.007579266809710575,-0.0005754350543825304,0.6283120758628845,0.31145920913696284,-9.633268586883545
2026-09-11T19:18:44.795,6.1822931839999455,0.0,0.0,0.0,0.0,0.0,0.0,0.0,0.0,0.0,0.0,0.112213134765625,919.25,40.396728515625,0.0,0.0,0.0,1,1789168724.7527015,38.99021704,-76.93874463333333,-9.343000000000004,0,1,13.329800999999998,12.6736,75.58563600000001,1,1,1789168724.7831042,-0.8479953810848284,0.5287659887408551,-0.020875761198110084,-0.02957305199167058,178.3873997346342,-3.82329332349266,-63.837228159933176,0.0014950490372583427,0.00044418629463255686,-4.084070449666731e-05,0.6724420015907289,0.3319551079750061,-9.683380569210053
2026-09-11T19:18:44.828,6.215713056000141,0.0,0.0,0.0,0.0,0.0,0.0,0.0,0.0,0.0,0.0,0.112213134765625,919.25,40.396728515625,0.0,0.0,0.0,1,1789168724.7527015,38.99021704,-76.93874463333333,-9.343000000000004,0,1,13.329800999999998,12.6736,75.58563600000001,1,1,1789168724.8231041,-0.8479909071335534,0.5287560194850671,-0.02060853434667596,-0.03006296041980222,178.32341795711034,-3.8269739383859287,-63.83433971225912,-0.0013486159130160185,-0.006812194603459067,0.0005663593422721599,0.6695000065422058,0.3307783099555969,-9.703582268543244
2026-09-11T19:18:44.862,6.249135071999945,0.0,0.0,0.0,0.0,0.0,0.0,0.0,0.0,0.0,0.0,0.112213134765625,919.25,40.396728515625,0.0,0.0,0.0,1,1789168724.7527015,38.99021704,-76.93874463333333,-9.343000000000004,0,1,13.329800999999998,12.6736,75.58563600000001,1,1,1789168724.8541043,-0.8479963487962598,0.5287559768596521,-0.020197571999071504,-0.030188862991989973,178.28622930829232,-3.7946091053435227,-63.83324730522325,-0.0011733848561157878,-0.011187385972358452,0.00026563911215353697,0.6468466446685791,0.3270517828941345,-9.675927515087128
2026-09-11T19:18:44.895,6.282541152000022,0.0,0.0,0.0,0.0,0.0,0.0,0.0,0.0,0.0,0.0,0.112213134765625,919.25,40.396728515625,0.0,0.0,0.0,1,1789168724.7527015,38.99021704,-76.93874463333333,-9.343000000000004,0,1,13.329800999999998,12.6736,75.58563600000001,1,1,1789168724.8831043,-0.8479670533067896,0.528810401107034,-0.020119456030652117,-0.030110524343633826,178.28936759066028,-3.7823651989496883,-63.84060720496982,0.0012835151319166298,-0.00909875045649684,-0.00023631758072003222,0.6405703885650635,0.2997892954444885,-9.648370828132629
2026-09-11T19:18:44.928,6.315961504000143,0.0,0.0,0.0,0.0,0.0,0.0,0.0,0.0,0.0,0.0,0.112213134765625,919.25,40.396728515625,0.0,0.0,0.0,1,1789168724.7527015,38.99021704,-76.93874463333333,-9.343000000000004,0,1,13.329800999999998,12.6736,75.58563600000001,1,1,1789168724.9231043,-0.8479209270378869,0.5289081328460272,-0.020159833356669533,-0.02966259630529192,178.33588748237716,-3.7593212206759,-63.854786317322315,-0.0016083209057127746,-0.0004591961261997081,-6.859143960337716e-05,0.6419433195877076,0.2566400347328186,-9.641800372524262
2026-09-11T19:18:44.962,6.349382368000079,0.0,0.0,0.0,0.0,0.0,0.0,0.0,0.0,0.0,0.0,0.11211585998535156,918.453125,40.36170959472656,-0.0457763709127903,-16.479493528604507,-493.089990989941,1,1789168724.7527015,38.99021704,-76.93874463333333,-9.343000000000004,0,1,13.329800999999998,12.6736,75.58563600000001,1,1,1789168724.9541042,-0.8479396168839947,0.5288832132715082,-0.020438569142754166,-0.02938056721075451,178.3801580581843,-3.769292519620979,-63.852539745423584,-0.0022036527135680405,0.004540299516138048,-0.0021439624531498346,0.655672629814148,0.21751150058746335,-9.657392946281433
2026-09-11T19:18:44.995,6.382792767999945,0.0,0.0,0.0,0.0,0.0,0.0,0.0,0.0,0.0,0.0,0.11178398132324219,915.734375,40.24223327636719,-0.015258789993822575,-5.493164397776127,328.82961984509086,1,1789168724.7527015,38.99021704,-76.93874463333333,-9.343000000000004,0,1,13.329800999999998,12.6736,75.58563600000001,1,1,1789168724.9831042,-0.8479796548375527,0.5288210380988182,-0.020682099708529696,-0.0291730251657197,178.41487095379614,-3.780288280546358,-63.845051192147395,0.0009960594041131638,0.005544736500660785,-0.0006049311187412347,0.6683232085227967,0.23114274431228637,-9.665238266410828
2026-09-11T19:18:45.029,6.41621276800015,0.0,0.0,0.0,0.0,0.0,0.0,0.0,0.0,0.0,0.0,0.111419677734375,912.75,40.111083984375,-0.03051757998764515,-10.986328795552254,-164.36757623406135,1,1789168724.7527015,38.99021704,-76.93874463333333,-9.343000000000004,0,1,13.329800999999998,12.6736,75.58563600000001,1,1,1789168725.0231042,-0.8480059981327042,0.5287541251582445,-0.021081629841153044,-0.029333720226661003,178.42314929415477,-3.828794632879419,-63.836547327715444,-0.00036756634047000576,-0.002106263341306757,-0.003354697355258301,0.6792085902023316,0.2786069310951233,-9.669553192481995
2026-09-11T19:18:45.062,6.449632256000086,0.0,0.0,0.0,0.0,0.0,0.0,0.0,0.0,0.0,0.0,0.11105155944824219,909.734375,39.97856140136719,0.0,0.0,328.7401888255539,1,1789168724.7527015,38.99021704,-76.93874463333333,-9.343000000000004,0,1,13.329800999999998,12.6736,75.58563600000001,1,1,1789168725.0551043,-0.8480647818133674,0.5286793984567097,-0.02062413587331216,-0.029306390340268575,178.39773061564492,-3.782467845088733,-63.82550876969153,-0.00031991885189056057,-0.007742106028921646,-0.0032347932356462904,0.6203686892318725,0.29361110584259037,-9.656902613773346
2026-09-11T19:18:45.097,6.483043648000148,0.0,0.0,0.0,0.0,0.0,0.0,0.0,0.0,0.0,0.0,0.11051750183105469,905.359375,39.78630065917969,-0.0915527418255806,-32.958987057209015,-986.4595601748059,1,1789168724.7527015,38.99021704,-76.93874463333333,-9.343000000000004,0,1,13.329800999999998,12.6736,75.58563600000001,1,1,1789168725.0951042,-0.8481078193233589,0.5285577923956614,-0.020665384623464202,-0.030211401469741706,178.31150445285382,-3.841114664698829,-63.807351734754995,0.00015341444125030156,-0.004361752333659029,-0.007654490500471531,0.7314780355644226,0.3655919180297852,-9.647390163116455
2026-09-11T19:18:45.129,6.516469152000127,0.0,0.0,0.0,0.0,0.0,0.0,0.0,0.0,0.0,0.0,0.10569953918457031,865.890625,38.05183410644531,-0.1831054836511612,-65.91797411441803,-986.0430842637353,1,1789168724.7527015,38.99021704,-76.93874463333333,-9.343000000000004,0,1,13.329800999999998,12.6736,75.58563600000001,1,1,1789168725.123104,-0.8481770372780988,0.5284589185156832,-0.020280328773396392,-0.030258769641612927,178.28310222326925,-3.806302165291308,-63.793101336730516,-0.0020050342446910857,-0.01118511704433086,-0.008290313946973065,0.624095216293335,0.2978279654121399,-9.666905396938324
2026-09-11T19:18:45.162,6.549889696000037,0.0,0.0,0.0,0.0,0.0,0.0,0.0,0.0,0.0,0.0,0.09716796875,796.0,34.98046875,-0.3967285454273224,-142.82227635383606,-2301.108630656225,1,1789168724.7527015,38.99021704,-76.93874463333333,-9.343000000000004,0,1,13.329800999999998,12.6736,75.58563600000001,1,1,1789168725.1551042,-0.8482319968051458,0.5283387388324455,-0.020848707503717864,-0.030430051599040723,178.30031072819438,-3.871776593170115,-63.77767184734799,0.000642979296434711,-0.010184345251237313,-0.011805930659265242,0.7912986015510559,0.2863541847229004,-9.661805938854219
2026-09-11T19:18:45.196,6.583302784000125,0.0,0.0,0.0,0.0,0.0,0.0,0.0,0.0,0.0,0.0,0.07615089416503906,623.828125,27.414321899414062,-0.7019043564796448,-252.68556833267212,-3288.0316832297926,1,1789168724.7527015,38.99021704,-76.93874463333333,-9.343000000000004,0,1,13.329800999999998,12.6736,75.58563600000001,1,1,1789168725.1831043,-0.8483478267623024,0.5281504594437416,-0.02086286617233817,-0.03045977399979214,178.29741098033918,-3.8745784454902417,-63.75218410109803,0.0016870352549777188,-0.0072696454004067814,-0.015314042455773846,0.6380206595230103,0.29586663537979124,-9.693873684883117
2026-09-11T19:18:45.229,6.616730112000141,0.0,0.0,0.0,0.0,0.0,0.0,0.0,0.0,0.0,0.0,0.073272705078125,600.25,26.378173828125,0.030517585575580597,10.986330807209015,7887.914317882479,1,1789168724.7527015,38.99021704,-76.93874463333333,-9.343000000000004,0,1,13.329800999999998,12.6736,75.58563600000001,1,1,1789168725.2231042,-0.8485321089725967,0.5278950973832588,-0.020490861508133253,-0.03000251315959545,178.31829895048742,-3.810150359825339,-63.71781142094037,-0.0013980087308474581,-0.0006119124357492119,-0.017186431677313364,0.6197802902221681,0.20956811395645142,-9.652979953708648
2026-09-11T19:18:45.262,6.650151648000019,0.0,0.0,0.0,0.0,0.0,0.0,0.0,0.0,0.0,0.0,0.06982421875,572.0,25.13671875,-0.061035171151161194,-21.97266161441803,-986.1603135698908,1,1789168724.7527015,38.99021704,-76.93874463333333,-9.343000000000004,0,1,13.329800999999998,12.6736,75.58563600000001,1,1,1789168725.2551043,-0.8486519301721359,0.5277757207505088,-0.019796638485937747,-0.029168186540234144,178.3570819083215,-3.6917967484888337,-63.701920489434244,0.00012409290981679684,-0.01108947300132157,-0.011291931194552914,0.48758664604187013,0.2681138154220581,-9.615420483589173
2026-09-11T19:18:45.296,6.683564191999949,0.0,0.0,0.0,0.0,0.0,0.0,0.0,0.0,0.0,0.0,0.06591033935546875,539.9375,23.72772216796875,-0.0915527492761612,-32.95898973941803,-328.8084895607797,1,1789168724.7527015,38.99021704,-76.93874463333333,-9.343000000000004,0,1,13.329800999999998,12.6736,75.58563600000001,1,1,1789168725.2831042,-0.8486982601921353,0.5277210581354783,-0.019257865836234827,-0.029169891166182616,178.32407221493838,-3.6393172532508085,-63.69349694915815,0.0005955063407804652,-0.007865849872888044,-0.005427101309076368,0.6001669898986817,0.3313667089653015,-9.631895655860902
2026-09-11T19:18:45.329,6.7169853440000225,0.0,0.0,0.0,0.0,0.0,0.0,0.0,0.0,0.0,0.0,0.06161308288574219,504.734375,22.180709838867188,-0.1220703274011612,-43.94531786441803,-328.7238011716598,1,1789168724.7527015,38.99021704,-76.93874463333333,-9.343000000000004,0,1,13.329800999999998,12.6736,75.58563600000001,1,1,1789168725.3231041,-0.8487347178512689,0.5276833907142636,-0.01922174508185055,-0.028812191763787506,178.35659713566884,-3.614078839847019,-63.68901772616783,-0.0008365363104808821,-0.000337023078560105,-0.0057370717842305605,0.6203686892318725,0.2581110322570801,-9.676025581588744
2026-09-11T19:18:45.363,6.750404864000075,0.0,0.0,0.0,0.0,0.0,0.0,0.0,0.0,0.0,0.0,0.0570831298828125,467.625,20.5499267578125,-0.1373291164636612,-49.43848192691803,-164.36992699151327,1,1789168724.7527015,38.99021704,-76.93874463333333,-9.343000000000004,0,1,13.329800999999998,12.6736,75.58563600000001,1,1,1789168725.3551042,-0.8487905417423401,0.5275910976648844,-0.01936817448458535,-0.02875975887662234,178.37017507129474,-3.6249912325978126,-63.67692417962388,-0.0015964526667992132,0.007439989535401428,-0.004578871292607124,0.6574378268432618,0.25291350767135623,-9.670828057003021
2026-09-11T19:18:45.396,6.783821568000121,0.0,0.0,0.0,0.0,0.0,0.0,0.0,0.0,0.0,0.0,0.04982185363769531,408.140625,17.935867309570312,-0.3051758110523224,-109.86329197883606,-1808.2217220415807,1,1789168724.7527015,38.99021704,-76.93874463333333,-9.343000000000004,0,1,13.329800999999998,12.6736,75.58563600000001,1,1,1789168725.3951042,-0.8488207240403511,0.5275428335405704,-0.02021609834972837,-0.0281646336229357,178.47929456756006,-3.671492505642977,-63.673233142227325,-0.0015320500174006225,0.013726665501085002,-0.0065505697485851175,0.6820525187492371,0.16514398872375488,-9.693285285873413
2026-09-11T19:18:45.430,6.817244223999978,0.0,0.0,0.0,0.0,0.0,0.0,0.0,0.0,0.0,0.0,0.04025077819824219,329.734375,14.490280151367188,-0.04577639698982239,-16.47950291633606,2794.026574755151,1,1789168724.7527015,38.99021704,-76.93874463333333,-9.343000000000004,0,1,13.329800999999998,12.6736,75.58563600000001,1,1,1789168725.4231043,-0.8488575772074121,0.5274639102800299,-0.021109870576267536,-0.027874905092507694,178.56128035720107,-3.7408952091594383,-63.66507241547717,-0.0002796017461694916,0.007832688617100153,-0.00757472895365539,0.7167680603218078,0.1661246537399292,-9.649057293643951
2026-09-11T19:18:45.463,6.85066265599994,0.0,0.0,0.0,0.0,0.0,0.0,0.0,0.0,0.0,0.0,0.039012908935546875,319.59375,14.044647216796875,-0.1525879055261612,-54.93164598941803,-1150.6267880289977,1,1789168724.7527015,38.99021704,-76.93874463333333,-9.343000000000004,0,1,13.329800999999998,12.6736,75.58563600000001,1,1,1789168725.4541042,-0.8489797549355944,0.5272753965093219,-0.020999358533885633,-0.027803936530659507,178.56068472974502,-3.7255166915947986,-63.63949308744447,0.001108982206717197,0.0031107003258294937,-0.006744824894332087,0.6072277780151367,0.24349912351608277,-9.679850175151826
2026-09-11T19:18:45.496,6.88407571200014,0.0,0.0,0.0,0.0,0.0,0.0,0.0,0.0,0.0,0.0,0.03412055969238281,279.515625,12.283401489257812,-0.0915527492761612,-32.95898973941803,657.6069022201623,1,1789168724.7527015,38.99021704,-76.93874463333333,-9.343000000000004,0,1,13.329800999999998,12.6736,75.58563600000001,1,1,1789168725.4951043,-0.8491312406675934,0.526990896047895,-0.020621440239591882,-0.02883553029502566,178.43596715572633,-3.7505519626432835,-63.598217739444266,-0.0010911798483468549,0.00152978108937303,-0.009891479002752664,0.655476496810913,0.378732829246521,-9.653764485721588
2026-09-11T19:18:45.530,6.917501728000161,0.0,0.0,0.0,0.0,0.0,0.0,0.0,0.0,0.0,0.0,0.0300445556640625,246.125,10.8160400390625,-0.1068115383386612,-38.45215380191803,-164.33798339881443,1,1789168724.7527015,38.99021704,-76.93874463333333,-9.343000000000004,0,1,13.329800999999998,12.6736,75.58563600000001,1,1,1789168725.5231042,-0.849214067163473,0.5268645158427252,-0.01979035417560733,-0.029284671059909426,178.3413732765927,-3.696457137404238,-63.578583156777924,0.001359786020228782,-0.0031517155632513603,-0.008494168403606003,0.5593713252258301,0.3906969424438477,-9.688087761287688
2026-09-11T19:18:45.563,6.950925439999992,0.0,0.0,0.0,0.0,0.0,0.0,0.0,0.0,0.0,0.0,0.026227951049804688,214.859375,9.442062377929688,-0.1220703274011612,-43.94531786441803,-164.3493117259937,1,1789168724.7527015,38.99021704,-76.93874463333333,-9.343000000000004,0,1,13.329800999999998,12.6736,75.58563600000001,1,1,1789168725.5551043,-0.8492572541314215,0.5267872997694574,-0.019353767306743146,-0.02971007906079362,178.27316011460115,-3.6794530237194096,-63.56650385416109,0.0006661921754862356,-0.0072980942672142895,-0.006382494541618064,0.6569474943351745,0.35509880235672,-9.638662244472505
2026-09-11T19:18:45.597,6.9843370240000695,0.0,0.0,0.0,0.0,0.0,0.0,0.0,0.0,0.0,0.0,0.019428253173828125,159.15625,6.994171142578125,-0.3356933891773224,-120.84962010383606,-2301.7257200149256,1,1789168724.7527015,38.99021704,-76.93874463333333,-9.343000000000004,0,1,13.329800999999998,12.6736,75.58563600000001,1,1,1789168725.5951042,-0.8492559889534418,0.5267796914368328,-0.019591767164067766,-0.02972515056001582,178.28603350164664,-3.703545653946854,-63.56589179391137,-0.0021738075833589374,-0.0007733553915586875,-0.007250446778634844,0.6405703885650635,0.2688983474349976,-9.648665027637483
2026-09-11T19:18:45.630,7.017761567999969,0.0,0.0,0.0,0.0,0.0,0.0,0.0,0.0,0.0,0.0,0.002521514892578125,20.65625,0.907745361328125,-0.22888189554214478,-82.39748239517212,1150.4162243404007,1,1789168724.7527015,38.99021704,-76.93874463333333,-9.343000000000004,0,1,13.329800999999998,12.6736,75.58563600000001,1,1,1789168725.623104,-0.8492427916569423,0.5267747979191164,-0.02065606109834704,-0.02946727398146646,178.375469302166,-3.7916942989432068,-63.56785369285817,0.00021781709064889231,0.0035423202498476914,-0.010194991759674478,0.7638399810981751,0.18887608211517334,-9.656118081760408
2026-09-11T19:18:45.663,7.051181312000153,0.0,0.0,0.0,0.0,0.0,0.0,0.0,0.0,0.0,0.0,0.0023059844970703125,18.890625,0.8301544189453125,-0.0610351599752903,-21.972657591104507,1808.0576800269369,1,1789168724.7527015,38.99021704,-76.93874463333333,-9.343000000000004,0,1,13.329800999999998,12.6736,75.58563600000001,1,1,1789168725.6551042,-0.8493318751277356,0.5266475691032502,-0.021349993134561984,-0.02866847820858625,178.49476169006363,-3.8108486804482844,-63.55376950186444,0.001558928087881335,0.0026616271092913526,-0.013361542621567789,0.5399541579055785,0.13131104566574098,-9.666120864925386
2026-09-11T19:18:45.698,7.084594240000115,0.0,0.0,0.0,0.0,0.0,0.0,0.0,0.0,0.0,0.0,0.0005245208740234375,4.296875,0.1888275146484375,-0.1525879055261612,-54.93164598941803,-986.4142525417545,1,1789168724.7527015,38.99021704,-76.93874463333333,-9.343000000000004,0,1,13.329800999999998,12.6736,75.58563600000001,1,1,1789168725.6951041,-0.849482183240258,0.5264213240612728,-0.021232267548029524,-0.028456998185149174,178.50727345008244,-3.7862019947523646,-63.52337715454058,-1.0471975511965977e-05,0.0005373868766890541,-0.011658275804546522,0.7638399810981751,0.2982202314186096,-9.721136172332765
2026-09-11T19:18:45.730,7.118065504000015,0.0,0.0,0.0,0.0,0.0,0.0,0.0,0.0,0.0,0.0,-0.00324249267578125,-26.5625,-1.16729736328125,-0.0915527492761612,-32.95898973941803,656.4632949047223,1,1789168724.7527015,38.99021704,-76.93874463333333,-9.343000000000004,0,1,13.329800999999998,12.6736,75.58563600000001,1,1,1789168725.7231042,-0.84956712073829,0.5262868476456423,-0.02070259107131481,-0.028796945647027995,178.4415198831796,-3.754838093805599,-63.50339338199913,0.001077915346031698,-0.0023221605697784555,-0.010211223321718026,0.5611365222549438,0.34539021869659425,-9.645526899585725
2026-09-11T19:18:45.764,7.151488832000041,0.0,0.0,0.0,0.0,0.0,0.0,0.0,0.0,0.0,0.0,-0.00583648681640625,-47.8125,-2.10113525390625,-0.061035171151161194,-21.97266161441803,328.7023998624966,1,1789168725.7573586,38.99021708666667,-76.938744735,-9.345000000000002,0,1,9.150625,11.703240999999998,73.462041,1,1,1789168725.7551043,-0.8496051743081686,0.5262734003638737,-0.01964408604075094,-0.02866122366291813,178.39081495066452,-3.6434134298725547,-63.49968894157087,0.0009592329568960836,-0.003353999223557503,-0.0034840262528310806,0.5822208201026916,0.3253846523666382,-9.649155360145569
