timestamp,time_s,drive_pos_turns,drive_encoder_count,drive_wheel_angle_deg,drive_distance_m,drive_distance_since_start_m,drive_velocity_turns_s,drive_velocity_mps,drive_velocity_mph,drive_acceleration_mps2,drive_iq_A,steer_pos_turns,steer_encoder_count,steer_angle_deg,steer_velocity_turns_s,steer_velocity_deg_s,steer_acceleration_deg_s2,gps_received,gps_ros_stamp_s,gps_latitude_deg,gps_longitude_deg,gps_altitude_m,gps_status,gps_service,gps_cov_x_m2,gps_cov_y_m2,gps_cov_z_m2,gps_covariance_type,imu_received,imu_ros_stamp_s,imu_qx,imu_qy,imu_qz,imu_qw,imu_roll_deg,imu_pitch_deg,imu_yaw_deg,imu_gyro_x_rad_s,imu_gyro_y_rad_s,imu_gyro_z_rad_s,imu_accel_x_mps2,imu_accel_y_mps2,imu_accel_z_mps2
2026-09-11T19:03:52.405,5.2480000078958255e-06,-205.53143310546875,-18497.828979492188,-73991.31591796875,-140.7890316772461,0.0,0.0,0.0,0.0,0.0,0.0,0.05929376184940338,485.7344970703125,21.345754265785217,0.0,0.0,0.0,1,1789167832.1626716,38.99031248,-76.939599715,-11.977,0,1,10.240000000000002,19.289664000000002,61.199329000000006,1,1,1789167832.395306,0.9536524839396944,0.2818463269138566,0.10498905154714697,0.009321316218710523,175.49958476696284,-11.244243526785537,33.372713119015295,-0.0006373942428283291,0.0013219123754605053,-0.0006274458660919615,0.006766588611602783,0.51278973695755,-9.707504928607941
2026-09-11T19:03:52.439,0.03341439999999807,-205.53143310546875,-18497.828979492188,-73991.31591796875,-140.7890316772461,0.0,0.0,0.0,0.0,0.0,0.0,0.05929376184940338,485.7344970703125,21.345754265785217,0.0,0.0,0.0,1,1789167832.1626716,38.99031248,-76.939599715,-11.977,0,1,10.240000000000002,19.289664000000002,61.199329000000006,1,1,1789167832.4343061,0.9547018085622618,0.2783962090269802,0.10465495959308774,0.009345959550593655,175.54936240408674,-11.22280623211812,32.95144080205997,-0.0009286896949861828,0.006469761004217781,0.0007566002307395418,0.0013729310226440429,0.5072980128669738,-9.699561541976928
2026-09-11T19:03:52.472,0.0668357119999996,-205.53143310546875,-18497.828979492188,-73991.31591796875,-140.7890316772461,0.0,0.0,0.0,0.0,0.0,0.0,0.05929376184940338,485.7344970703125,21.345754265785217,0.0,0.0,0.0,1,1789167832.1626716,38.99031248,-76.939599715,-11.977,0,1,10.240000000000002,19.289664000000002,61.199329000000006,1,1,1789167832.4633062,0.9554618606057688,0.27585548823188333,0.10444829117517491,0.009324001860661011,175.58898303999925,-11.212511989596651,32.64157088144247,-0.0003949680097263168,0.005769883974168054,-0.0009611528190732772,0.004511059074401856,0.5115148724365234,-9.70024800748825
2026-09-11T19:03:52.506,0.10024598399999718,-205.53143310546875,-18497.828979492188,-73991.31591796875,-140.7890316772461,0.0,0.0,0.0,0.0,0.0,0.0,0.05929376184940338,485.7344970703125,21.345754265785217,0.0,0.0,0.0,1,1789167832.1626716,38.99031248,-76.939599715,-11.977,0,1,10.240000000000002,19.289664000000002,61.199329000000006,1,1,1789167832.4953063,0.9562977886703193,0.2730098645523367,0.10427499360465571,0.009320887839738041,175.62887629389436,-11.206550649194936,32.29568179237686,-0.00044977134823893873,0.00878424212528746,0.001334304213149665,0.012552512207031252,0.5049444168281555,-9.700836406497956
2026-09-11T19:03:52.539,0.13365283199999567,-205.53143310546875,-18497.828979492188,-73991.31591796875,-140.7890316772461,0.0,0.0,0.0,0.0,0.0,0.0,0.05929376184940338,485.7344970703125,21.345754265785217,0.0,0.0,0.0,1,1789167832.1626716,38.99031248,-76.939599715,-11.977,0,1,10.240000000000002,19.289664000000002,61.199329000000006,1,1,1789167832.534306,0.957303023979987,0.26951597700560975,0.10414495251204971,0.00926753924979966,175.680502981199,-11.209737091250375,31.871823168716254,9.005898940290739e-05,0.009931272509698134,-0.0003145083312093782,0.026281822433471682,0.5068076803588867,-9.708093327617645
2026-09-11T19:03:52.573,0.16706288000000313,-205.53143310546875,-18497.828979492188,-73991.31591796875,-140.7890316772461,0.0,0.0,0.0,0.0,0.0,0.0,0.05929376184940338,485.7344970703125,21.345754265785217,0.0,0.0,0.0,1,1789167832.1626716,38.99031248,-76.939599715,-11.977,0,1,10.240000000000002,19.289664000000002,61.199329000000006,1,1,1789167832.563306,0.958033191640134,0.2669354285308303,0.10408074476932111,0.009223842970466944,175.7180196461285,-11.21559095982963,31.55934704745402,-5.253441048502932e-05,0.006511823439190843,-0.0008861036612375212,0.022947561378479003,0.5128878034591675,-9.70603393108368
2026-09-11T19:03:52.607,0.20048304000002304,-205.53143310546875,-18497.828979492188,-73991.31591796875,-140.7890316772461,0.0,0.0,0.0,0.0,0.0,0.0,0.05929376184940338,485.7344970703125,21.345754265785217,0.0,0.0,0.0,1,1789167832.1626716,38.99031248,-76.939599715,-11.977,0,1,10.240000000000002,19.289664000000002,61.199329000000006,1,1,1789167832.603306,0.9590520073925569,0.2633710577190436,0.10376653454406819,0.009350902682293927,175.75613372571448,-11.192707309917225,31.127623057770382,-0.0007576474282907385,0.004782202150464463,0.00029548424236264,0.01794616979598999,0.5258325816726684,-9.685930298252105
2026-09-11T19:03:52.640,0.2338989760000061,-205.53143310546875,-18497.828979492188,-73991.31591796875,-140.7890316772461,0.0,0.0,0.0,0.0,0.0,0.0,0.05929376184940338,485.7344970703125,21.345754265785217,0.0,0.0,0.0,1,1789167832.1626716,38.99031248,-76.939599715,-11.977,0,1,10.240000000000002,19.289664000000002,61.199329000000006,1,1,1789167832.636306,0.9598719441499001,0.2604119333690631,0.10364632561158989,0.00942947400939429,175.7860741501175,-11.190009679822639,30.770797022735383,-0.0010913543812720544,-0.0014140657599658057,-0.0016158258214963503,0.033931009559631346,0.5240673846435547,-9.681811505184173
2026-09-11T19:03:52.672,0.26731209600001193,-205.53143310546875,-18497.828979492188,-73991.31591796875,-140.7890316772461,0.0,0.0,0.0,0.0,0.0,0.0,0.05929376184940338,485.7344970703125,21.345754265785217,0.0,0.0,0.0,1,1789167832.1626716,38.99031248,-76.939599715,-11.977,0,1,10.240000000000002,19.289664000000002,61.199329000000006,1,1,1789167832.6633062,0.9605584468996784,0.25798017906751586,0.10335591407669564,0.009552608195733076,175.8101249638297,-11.164704598523489,30.476395838649555,0.0010417870305154152,-0.005759586531581287,-0.000859051057831609,0.04785645278930664,0.5205369905853272,-9.713977317714692
2026-09-11T19:03:52.706,0.30072400000000243,-205.53143310546875,-18497.828979492188,-73991.31591796875,-140.7890316772461,0.0,0.0,0.0,0.0,0.0,0.0,0.05929376184940338,485.7344970703125,21.345754265785217,0.0,0.0,0.0,1,1789167832.1626716,38.99031248,-76.939599715,-11.977,0,1,10.240000000000002,19.289664000000002,61.199329000000006,1,1,1789167832.695306,0.9613611110467986,0.2551272601492442,0.10297164031703394,0.009577921800912147,175.85283429831753,-11.13367531332008,30.129661579389392,0.0024439845515676593,-0.012010832313449377,-0.0017352063423327624,0.03697107110977173,0.5124955374526977,-9.70407260105133
2026-09-11T19:03:52.741,0.33413948800000526,-205.53143310546875,-18497.828979492188,-73991.31591796875,-140.7890316772461,0.0,0.0,0.0,0.0,0.0,0.0,0.05929376184940338,485.7344970703125,21.345754265785217,0.0,0.0,0.0,1,1789167832.1626716,38.99031248,-76.939599715,-11.977,0,1,10.240000000000002,19.289664000000002,61.199329000000006,1,1,1789167832.7363062,0.9624033006258342,0.251467753656086,0.10222213346255207,0.009720660781374358,175.90278185648876,-11.061875388663859,29.683925151510987,0.0005902703530244823,-0.021042387593744435,-0.0032990213521196816,0.023045627880096436,0.5196543920707702,-9.70024800748825
2026-09-11T19:03:52.774,0.36756358400000977,-205.53143310546875,-18497.828979492188,-73991.31591796875,-140.7890316772461,0.0,0.0,0.0,0.0,0.0,0.0,0.05929376184940338,485.7344970703125,21.345754265785217,0.0,0.0,0.0,1,1789167832.1626716,38.99031248,-76.939599715,-11.977,0,1,10.240000000000002,19.289664000000002,61.199329000000006,1,1,1789167832.764306,0.9631133691957304,0.24899344901336187,0.10156587100698643,0.009963647498331946,175.9242809882132,-10.992303391113543,29.382899380701165,0.0018776252092954997,-0.021327748926445508,-0.0031086059307271004,0.002451662540435791,0.5274997122001648,-9.689264559307098
2026-09-11T19:03:52.807,0.40099062400000207,-205.53143310546875,-18497.828979492188,-73991.31591796875,-140.7890316772461,0.0,0.0,0.0,0.0,0.0,0.0,0.05929376184940338,485.7344970703125,21.345754265785217,0.0,0.0,0.0,1,1789167832.1626716,38.99031248,-76.939599715,-11.977,0,1,10.240000000000002,19.289664000000002,61.199329000000006,1,1,1789167832.8043063,0.9641058053633028,0.24544143188878934,0.1007770198988827,0.01012382523843649,175.97098468131776,-10.91484215024025,28.95092513637097,-0.0002885029253546627,-0.020358742125738256,-0.002204525378194038,-0.012454445705413819,0.5204389240837097,-9.695344682407379
2026-09-11T19:03:52.840,0.4344106560000114,-205.53143310546875,-18497.828979492188,-73991.31591796875,-140.7890316772461,0.0,0.0,0.0,0.0,0.0,0.0,0.05929376184940338,485.7344970703125,21.345754265785217,0.0,0.0,0.0,1,1789167832.1626716,38.99031248,-76.939599715,-11.977,0,1,10.240000000000002,19.289664000000002,61.199329000000006,1,1,1789167832.8353062,0.9648809277044724,0.24269055082034957,0.10000900096864931,0.010212326861438437,176.01534003964434,-10.838229489556042,28.614928395651255,0.0003605850234620285,-0.019526569138387358,-0.0030152308157454038,-0.007649187126159668,0.5065134808540345,-9.700542206993102
2026-09-11T19:03:52.873,0.46782022400000756,-205.53143310546875,-18497.828979492188,-73991.31591796875,-140.7890316772461,0.0,0.0,0.0,0.0,0.0,0.0,0.05929376184940338,485.7344970703125,21.345754265785217,0.0,0.0,0.0,1,1789167832.1626716,38.99031248,-76.939599715,-11.977,0,1,10.240000000000002,19.289664000000002,61.199329000000006,1,1,1789167832.8643062,0.965574527668765,0.24010764561040657,0.09955194247103674,0.010176482049921894,176.0621217097271,-10.79891641247823,28.301149165420217,0.0014905111812031574,-0.012623791946749787,-0.0006581636609270617,-0.034911674575805664,0.5085728773880005,-9.704464867057801
2026-09-11T19:03:52.907,0.5012313280000171,-205.53143310546875,-18497.828979492188,-73991.31591796875,-140.7890316772461,0.0,0.0,0.0,0.0,0.0,0.0,0.05929376184940338,485.7344970703125,21.345754265785217,0.0,0.0,0.0,1,1789167832.1626716,38.99031248,-76.939599715,-11.977,0,1,10.240000000000002,19.289664000000002,61.199329000000006,1,1,1789167832.9043062,0.9665107520493144,0.2365246817223759,0.09904874288644216,0.010118677868806315,176.1236809347079,-10.758904305411033,27.86750528924262,0.00040526545231308334,-0.009472774515199223,-0.002385690554551049,-0.023339827384948733,0.5122994044494629,-9.698384743957519
2026-09-11T19:03:52.941,0.5346519040000146,-205.53143310546875,-18497.828979492188,-73991.31591796875,-140.7890316772461,0.0,0.0,0.0,0.0,0.0,0.0,0.05929376184940338,485.7344970703125,21.345754265785217,0.0,0.0,0.0,1,1789167832.1626716,38.99031248,-76.939599715,-11.977,0,1,10.240000000000002,19.289664000000002,61.199329000000006,1,1,1789167832.9363062,0.9672605639092312,0.23366010150120897,0.09852733013578042,0.01011551722630906,176.17115711474895,-10.712210331012525,27.52050599518998,0.0012332496494591933,-0.0013425072606340384,-0.0001424188669627373,-0.025105024414062503,0.5023946877861023,-9.70181707151413
2026-09-11T19:03:52.974,0.5680757119999953,-205.53143310546875,-18497.828979492188,-73991.31591796875,-140.7890316772461,0.0,0.0,0.0,0.0,0.0,0.0,0.05929376184940338,485.7344970703125,21.345754265785217,0.0,0.0,0.0,1,1789167832.1626716,38.99031248,-76.939599715,-11.977,0,1,10.240000000000002,19.289664000000002,61.199329000000006,1,1,1789167832.964306,0.9678750802661812,0.23111627420468828,0.09851107684057377,0.009933002425606694,176.22064727044858,-10.72535760599624,27.214931328056352,0.0011890928193837367,0.006005852489037688,0.0021903882112528834,-0.0232417608833313,0.49798169521331787,-9.697011812934877
2026-09-11T19:03:53.007,0.6014868800000102,-205.53143310546875,-18497.828979492188,-73991.31591796875,-140.7890316772461,0.0,0.0,0.0,0.0,0.0,0.0,0.05929376184940338,485.7344970703125,21.345754265785217,0.0,0.0,0.0,1,1789167832.1626716,38.99031248,-76.939599715,-11.977,0,1,10.240000000000002,19.289664000000002,61.199329000000006,1,1,1789167832.9953063,0.9685679182897702,0.2282893159715719,0.09830128239321935,0.009850571196715075,176.2674488457765,-10.71508864296937,26.875028918297307,-0.00015044738152191118,0.011541338744662904,-0.000335801348083709,-0.028341218967437746,0.49513776666641235,-9.707406862106323
2026-09-11T19:03:53.040,0.6348936640000034,-205.53143310546875,-18497.828979492188,-73991.31591796875,-140.7890316772461,0.0,0.0,0.0,0.0,0.0,0.0,0.05929376184940338,485.7344970703125,21.345754265785217,0.0,0.0,0.0,1,1789167832.1626716,38.99031248,-76.939599715,-11.977,0,1,10.240000000000002,19.289664000000002,61.199329000000006,1,1,1789167833.034306,0.9694107566179277,0.2247131158462606,0.09825481973145292,0.009632804350848144,176.333282317309,-10.72931412690298,26.44621029247912,0.0014857987922227726,0.013862626649815362,0.0024720843525247683,-0.004609125576019287,0.5002372247505188,-9.713585051708222
2026-09-11T19:03:53.075,0.6683077440000034,-205.53143310546875,-18497.828979492188,-73991.31591796875,-140.7890316772461,0.0,0.0,0.0,0.0,0.0,0.0,0.05929376184940338,485.7344970703125,21.345754265785217,0.0,0.0,0.0,1,1789167832.1626716,38.99031248,-76.939599715,-11.977,0,1,10.240000000000002,19.289664000000002,61.199329000000006,1,1,1789167833.0643063,0.9700538355989773,0.22194757555444164,0.09819074222118757,0.009664775593360434,176.3623232486517,-10.731713336506646,26.11659898088191,0.00041119957176986404,0.018419681326772554,0.0008511970761976345,-0.005001391582489014,0.5183795275497436,-9.70024800748825
2026-09-11T19:03:53.109,0.701723904000005,-205.53143310546875,-18497.828979492188,-73991.31591796875,-140.7890316772461,0.0,0.0,0.0,0.0,0.0,0.0,0.05929376184940338,485.7344970703125,21.345754265785217,0.0,0.0,0.0,1,1789167832.1626716,38.99031248,-76.939599715,-11.977,0,1,10.240000000000002,19.289664000000002,61.199329000000006,1,1,1789167833.103306,0.9708913564356144,0.218364300905079,0.09793749261177595,0.009759796604786281,176.398384977463,-10.714247263544545,25.688921025630798,0.0012140510276872555,0.017806896226397344,0.002373298716861889,0.007158854618072509,0.500727557258606,-9.693187219371795
2026-09-11T19:03:53.141,0.735143039999997,-205.53143310546875,-18497.828979492188,-73991.31591796875,-140.7890316772461,0.0,0.0,0.0,0.0,0.0,0.0,0.05929376184940338,485.7344970703125,21.345754265785217,0.0,0.0,0.0,1,1789167832.1626716,38.99031248,-76.939599715,-11.977,0,1,10.240000000000002,19.289664000000002,61.199329000000006,1,1,1789167833.136306,0.9715996131324259,0.21529174853730487,0.09770993754348757,0.00981951515696621,176.43187020075044,-10.698550337164072,25.32221270027283,0.0011517427733910579,0.016631940573954763,0.002302612882156119,-0.0007845320129394532,0.5080825448799133,-9.695835014915467
2026-09-11T19:03:53.174,0.7685524480000083,-205.53143310546875,-18497.828979492188,-73991.31591796875,-140.7890316772461,0.0,0.0,0.0,0.0,0.0,0.0,0.05929376184940338,485.7344970703125,21.345754265785217,0.0,0.0,0.0,1,1789167832.1626716,38.99031248,-76.939599715,-11.977,0,1,10.240000000000002,19.289664000000002,61.199329000000006,1,1,1789167833.1643062,0.9721878420044598,0.2127217866122733,0.09747020417849367,0.009990027857644003,176.44738049232686,-10.676787034027456,25.016512820879942,0.0014142402928910053,0.017064607695524158,0.00023963370629882143,-0.010787315177917482,0.5341682343101501,-9.701228672504424
2026-09-11T19:03:53.207,0.8019565440000065,-205.53143310546875,-18497.828979492188,-73991.31591796875,-140.7890316772461,0.0,0.0,0.0,0.0,0.0,0.0,0.05929376184940338,485.7344970703125,21.345754265785217,0.0,0.0,0.0,1,1789167833.1835318,38.99031253,-76.93959958833334,-11.983999999999998,0,1,13.6161,19.873764,86.91832900000001,1,1,1789167833.2033062,0.9729884965935907,0.2090843006531559,0.09732524498996044,0.010243895966338507,176.46265921838597,-10.667488096842229,24.58593167684977,-0.00012688543661998775,0.01777792376081424,0.0036669367584400863,0.032558078536987306,0.535737298336029,-9.693089152870177
2026-09-11T19:03:53.242,0.8353757120000012,-205.53143310546875,-18497.828979492188,-73991.31591796875,-140.7890316772461,0.0,0.0,0.0,0.0,0.0,0.0,0.05929376184940338,485.7344970703125,21.345754265785217,0.0,0.0,0.0,1,1789167833.1835318,38.99031253,-76.93959958833334,-11.983999999999998,0,1,13.6161,19.873764,86.91832900000001,1,1,1789167833.234306,0.9736039392764284,0.20614028538488968,0.09746361883378549,0.01011904989014964,176.5059281532229,-10.696701058756743,24.236473332859465,0.000482932604026831,0.009285326153535032,0.0009452703228801289,0.07011754865646362,0.49680489719390863,-9.704170667552948
2026-09-11T19:03:53.275,0.8687916480000126,-205.53143310546875,-18497.828979492188,-73991.31591796875,-140.7890316772461,0.0,0.0,0.0,0.0,0.0,0.0,0.05929376184940338,485.7344970703125,21.345754265785217,0.0,0.0,0.0,1,1789167833.1835318,38.99031253,-76.93959958833334,-11.983999999999998,0,1,13.6161,19.873764,86.91832900000001,1,1,1789167833.2633061,0.9742028265732613,0.20344966057181993,0.09713770500871186,0.010067500957022876,176.5497657892772,-10.670880340969509,23.914212458424867,-0.0007595672904679323,-0.0049232247540256045,-0.0018723892215395167,0.024908891410827638,0.5029830867958069,-9.675927515087128
2026-09-11T19:03:53.308,0.9022102720000191,-205.53143310546875,-18497.828979492188,-73991.31591796875,-140.7890316772461,0.0,0.0,0.0,0.0,0.0,0.0,0.05929376184940338,485.7344970703125,21.345754265785217,0.0,0.0,0.0,1,1789167833.1835318,38.99031253,-76.93959958833334,-11.983999999999998,0,1,13.6161,19.873764,86.91832900000001,1,1,1789167833.303306,0.9750177687154904,0.1997309110469555,0.09665739791957907,0.010259692433796631,176.58083265128013,-10.625395587312948,23.471634069833055,0.0006593853914034577,-0.019328474268286003,-0.0009777334469672234,0.06295869403839112,0.5440729509735107,-9.698777009963989
2026-09-11T19:03:53.340,0.935614208000004,-205.53143310546875,-18497.828979492188,-73991.31591796875,-140.7890316772461,0.0,0.0,0.0,0.0,0.0,0.0,0.05929376184940338,485.7344970703125,21.345754265785217,0.0,0.0,0.0,1,1789167833.1835318,38.99031253,-76.93959958833334,-11.983999999999998,0,1,13.6161,19.873764,86.91832900000001,1,1,1789167833.3353062,0.9756702861336982,0.1968022393528943,0.0960367609201211,0.010644805937419916,176.58425894825496,-10.556823436362128,23.12385702688381,0.001366941870161959,-0.0241612909670583,-0.004131194339470578,0.009904716663360597,0.5601558572387695,-9.70064027349472
2026-09-11T19:03:53.374,0.9690215680000165,-205.53143310546875,-18497.828979492188,-73991.31591796875,-140.7890316772461,0.0,0.0,0.0,0.0,0.0,0.0,0.05929376184940338,485.7344970703125,21.345754265785217,0.0,0.0,0.0,1,1789167833.1835318,38.99031253,-76.93959958833334,-11.983999999999998,0,1,13.6161,19.873764,86.91832900000001,1,1,1789167833.3643062,0.976274531419639,0.19418894559129432,0.09517639975615,0.010961096704393105,176.59731460515388,-10.461777221214067,22.8111425360653,0.0006710790973918196,-0.024690474796262983,-0.002462659574563999,-0.019809433326721193,0.5473091455268859,-9.700346073989868
2026-09-11T19:03:53.409,1.002431200000018,-205.53143310546875,-18497.828979492188,-73991.31591796875,-140.7890316772461,0.0,0.0,0.0,0.0,0.0,0.0,0.05929376184940338,485.7344970703125,21.345754265785217,0.0,0.0,0.0,1,1789167833.1835318,38.99031253,-76.93959958833334,-11.983999999999998,0,1,13.6161,19.873764,86.91832900000001,1,1,1789167833.4033062,0.97707204126715,0.19062427946691032,0.09418403363942178,0.011044367758007236,176.6495735045453,-10.360354354498002,22.38300731300762,8.883725892651137e-05,-0.00582014945662549,-0.0016018631874803956,-0.036088472595214846,0.4989623602294922,-9.699365408973694
2026-09-11T19:03:53.442,1.0358513600000094,-205.53143310546875,-18497.828979492188,-73991.31591796875,-140.7890316772461,0.0,0.0,0.0,0.0,0.0,0.0,0.05929376184940338,485.7344970703125,21.345754265785217,0.0,0.0,0.0,1,1789167833.1835318,38.99031253,-76.93959958833334,-11.983999999999998,0,1,13.6161,19.873764,86.91832900000001,1,1,1789167833.4363062,0.9777009790495435,0.18761043076861586,0.09375234159402353,0.010659281308599965,176.73557913305282,-10.330382986669457,22.01998978939938,-1.58824961931484e-05,0.013877985547232912,0.0021689206614533534,-0.042462795200347896,0.4640506856536865,-9.719076775798797
2026-09-11T19:03:53.475,1.0692725440000004,-205.53143310546875,-18497.828979492188,-73991.31591796875,-140.7890316772461,0.0,0.0,0.0,0.0,0.0,0.0,0.05929376184940338,485.7344970703125,21.345754265785217,0.0,0.0,0.0,1,1789167833.1835318,38.99031253,-76.93959958833334,-11.983999999999998,0,1,13.6161,19.873764,86.91832900000001,1,1,1789167833.464306,0.9782287907714422,0.18501885803825735,0.0934371438413181,0.010293455534357766,176.81201485791462,-10.311334130834691,21.70814291038556,-0.0008712683625955693,0.025001841534818773,0.002716604980729174,-0.036676871604919434,0.44443738533020016,-9.702013204517366
2026-09-11T19:03:53.508,1.102689343999998,-205.53143310546875,-18497.828979492188,-73991.31591796875,-140.7890316772461,0.0,0.0,0.0,0.0,0.0,0.0,0.05929376184940338,485.7344970703125,21.345754265785217,0.0,0.0,0.0,1,1789167833.1835318,38.99031253,-76.93959958833334,-11.983999999999998,0,1,13.6161,19.873764,86.91832900000001,1,1,1789167833.5033062,0.9789088151995309,0.1813316901637642,0.09359589500661121,0.009806023909560773,176.90328993663115,-10.351552717095316,21.26944137758979,-0.0015667820695153096,0.03953205662352196,0.00280701303598248,0.003040061550140381,0.4735631363105774,-9.70789719461441
2026-09-11T19:03:53.541,1.1360943360000135,-205.53143310546875,-18497.828979492188,-73991.31591796875,-140.7890316772461,0.0,0.0,0.0,0.0,0.0,0.0,0.05929376184940338,485.7344970703125,21.345754265785217,0.0,0.0,0.0,1,1789167833.1835318,38.99031253,-76.93959958833334,-11.983999999999998,0,1,13.6161,19.873764,86.91832900000001,1,1,1789167833.5363061,0.9794666491637618,0.17814981372113303,0.09388651043509094,0.009646253436413519,176.94915807992075,-10.397746196086963,20.894703452394428,-0.0010861183935160714,0.0346262851620163,0.0035377823937925057,0.029518016986846925,0.4989623602294922,-9.744279866714477
2026-09-11T19:03:53.574,1.1695051199999966,-205.53143310546875,-18497.828979492188,-73991.31591796875,-140.7890316772461,0.0,0.0,0.0,0.0,0.0,0.0,0.05929376184940338,485.7344970703125,21.345754265785217,0.0,0.0,0.0,1,1789167833.1835318,38.99031253,-76.93959958833334,-11.983999999999998,0,1,13.6161,19.873764,86.91832900000001,1,1,1789167833.5643063,0.9799183662764261,0.17543394001646798,0.09429287205179229,0.009580313390626915,176.97707815487504,-10.453484420715439,20.576761784902384,0.001217367153266045,0.022707257167221825,0.0038299505105763567,0.09992976514816283,0.5140646014785767,-9.713388918704986
2026-09-11T19:03:53.610,1.2029203520000067,-205.53143310546875,-18497.828979492188,-73991.31591796875,-140.7890316772461,0.0,0.0,0.0,0.0,0.0,0.0,0.05929376184940338,485.7344970703125,21.345754265785217,0.0,0.0,0.0,1,1789167833.1835318,38.99031253,-76.93959958833334,-11.983999999999998,0,1,13.6161,19.873764,86.91832900000001,1,1,1789167833.603344,0.9805835454978475,0.1717787461241273,0.09404038725902458,0.01021656708811992,176.94910752535196,-10.423289710268067,20.150861045523047,-0.0005942846103040692,-0.0038500217969742916,-0.0005996951309852516,0.09875296712875367,0.5796710910606384,-9.661904005355835
2026-09-11T19:03:53.643,1.2363402560000054,-205.53143310546875,-18497.828979492188,-73991.31591796875,-140.7890316772461,0.0,0.0,0.0,0.0,0.0,0.0,0.05929376184940338,485.7344970703125,21.345754265785217,0.0,0.0,0.0,1,1789167833.1835318,38.99031253,-76.93959958833334,-11.983999999999998,0,1,13.6161,19.873764,86.91832900000001,1,1,1789167833.6353438,0.9811434909470166,0.16877612390439659,0.09355975002556922,0.010892352696372466,176.91406623440918,-10.36477047377291,19.800920692335787,-0.00014905111812031575,-0.026360929423346755,-0.002549402438388117,0.11179581184387208,0.5864376796722413,-9.675339116077422
2026-09-11T19:03:53.675,1.269760832000003,-205.53143310546875,-18497.828979492188,-73991.31591796875,-140.7890316772461,0.0,0.0,0.0,0.0,0.0,0.0,0.05929376184940338,485.7344970703125,21.345754265785217,0.0,0.0,0.0,1,1789167833.1835318,38.99031253,-76.93959958833334,-11.983999999999998,0,1,13.6161,19.873764,86.91832900000001,1,1,1789167833.663344,0.981638474340675,0.1661810460500485,0.09295466426967201,0.011366442642107195,176.8998880948128,-10.295094379188564,19.496284873836334,0.00207449834892046,-0.03849620371246333,-0.004656712977246071,0.04207052919387818,0.5864376796722413,-9.698188610954285
2026-09-11T19:03:53.709,1.303169023999999,-205.53143310546875,-18497.828979492188,-73991.31591796875,-140.7890316772461,0.0,0.0,0.0,0.0,0.0,0.0,0.05929376184940338,485.7344970703125,21.345754265785217,0.0,0.0,0.0,1,1789167833.1835318,38.99031253,-76.93959958833334,-11.983999999999998,0,1,13.6161,19.873764,86.91832900000001,1,1,1789167833.702344,0.9823766846827304,0.1626559715248807,0.09130915674494468,0.01190471392313245,176.9084763322591,-10.109340956342272,19.076300917865787,9.773843811168245e-06,-0.0435529461542665,-0.005115210971744981,-0.0007845320129394532,0.5500550075721741,-9.705151332569123
2026-09-11T19:03:53.742,1.3365878719999955,-205.53143310546875,-18497.828979492188,-73991.31591796875,-140.7890316772461,0.0,0.0,0.0,0.0,0.0,0.0,0.05929376184940338,485.7344970703125,21.345754265785217,0.0,0.0,0.0,1,1789167833.1835318,38.99031253,-76.93959958833334,-11.983999999999998,0,1,13.6161,19.873764,86.91832900000001,1,1,1789167833.7343438,0.9829557310767939,0.1596913760838089,0.09031448529732032,0.011831690209984907,176.96706894599922,-10.007171676050785,18.72095069113992,0.00031154127148098784,-0.03537799847085026,-0.004785518276043252,0.0011767980194091797,0.5163201310157776,-9.737513278102874
2026-09-11T19:03:53.777,1.370037472000007,-205.53143310546875,-18497.828979492188,-73991.31591796875,-140.7890316772461,0.0,0.0,0.0,0.0,0.0,0.0,0.05929376184940338,485.7344970703125,21.345754265785217,0.0,0.0,0.0,1,1789167833.1835318,38.99031253,-76.93959958833334,-11.983999999999998,0,1,13.6161,19.873764,86.91832900000001,1,1,1789167833.775344,0.9836811353703441,0.15600261519138459,0.08889427569690338,0.011507202886987516,177.06918620918123,-9.863234248153951,18.275992506281288,0.0012175416861912444,-0.014120760846185323,-0.004945914034301531,-0.063841292552948,0.4716018062782288,-9.726824029426574
2026-09-11T19:03:53.809,1.4034531199999947,-205.53143310546875,-18497.828979492188,-73991.31591796875,-140.7890316772461,0.0,0.0,0.0,0.0,0.0,0.0,0.05929376184940338,485.7344970703125,21.345754265785217,0.0,0.0,0.0,1,1789167833.1835318,38.99031253,-76.93959958833334,-11.983999999999998,0,1,13.6161,19.873764,86.91832900000001,1,1,1789167833.801344,0.9841096525123529,0.15360301817838812,0.08837590445872061,0.011135715047025839,177.14569208812281,-9.818182384564038,17.987870476449576,0.0011412707978790922,-0.004988500068050193,-0.000980002374994816,-0.05001391582489014,0.45787249605178837,-9.708681726627349
2026-09-11T19:03:53.842,1.4368573440000034,-205.53143310546875,-18497.828979492188,-73991.31591796875,-140.7890316772461,0.0,0.0,0.0,0.0,0.0,0.0,0.059478774666786194,487.2501220703125,21.41235888004303,0.0,0.0,0.0,1,1789167833.1835318,38.99031253,-76.93959958833334,-11.983999999999998,0,1,13.6161,19.873764,86.91832900000001,1,1,1789167833.8353438,0.9846340439677874,0.15038430843581915,0.08813921477637016,0.010575351272010747,177.24658444918097,-9.810437635077413,17.6038387329996,-0.0004171336912266448,0.007086734894797776,0.002044304152860958,-0.03373487655639648,0.45257690496444697,-9.696325347423553
2026-09-11T19:03:53.877,1.470272864000009,-205.53143310546875,-18497.828979492188,-73991.31591796875,-140.7890316772461,0.0,0.0,0.0,0.0,0.0,0.0,0.059478774666786194,487.2501220703125,21.41235888004303,0.0,0.0,0.0,1,1789167833.1835318,38.99031253,-76.93959958833334,-11.983999999999998,0,1,13.6161,19.873764,86.91832900000001,1,1,1789167833.8743439,0.9851888274617732,0.14666402960532235,0.08825457031586635,0.010186632553861581,177.3264488519639,-9.840546972010074,17.164952492701357,-0.0012934635086529974,0.016871748813178784,0.0024314181809533004,-0.010591182174682617,0.4973932962036133,-9.696913746433257
2026-09-11T19:03:53.911,1.5036964800000021,-205.53143310546875,-18497.828979492188,-73991.31591796875,-140.7890316772461,0.0,0.0,0.0,0.0,0.0,0.0,0.059478774666786194,487.2501220703125,21.41235888004303,0.0,0.0,0.0,1,1789167833.1835318,38.99031253,-76.93959958833334,-11.983999999999998,0,1,13.6161,19.873764,86.91832900000001,1,1,1789167833.9023438,0.985579585759996,0.14395782037429908,0.08834902165446093,0.010172337928666514,177.35370306724678,-9.858830320419363,16.84846177337103,-0.00028588493147667116,0.0152049593775242,0.00144356182432451,-0.0039226600646972655,0.5173007960319519,-9.683968968219757
2026-09-11T19:03:53.942,1.5371160960000054,-205.53143310546875,-18497.828979492188,-73991.31591796875,-140.7890316772461,0.0,0.0,0.0,0.0,0.0,0.0,0.059478774666786194,487.2501220703125,21.41235888004303,0.0,0.0,0.0,1,1789167833.1835318,38.99031253,-76.93959958833334,-11.983999999999998,0,1,13.6161,19.873764,86.91832900000001,1,1,1789167833.9343438,0.9860264031281888,0.1408788296040001,0.0883038736435742,0.010368876652420448,177.36302467554762,-9.858666456671811,16.489713447769518,0.0012400564335419712,0.012310505346016803,0.0021230185021259024,0.026576021938323976,0.5327953032875061,-9.694854349899293
2026-09-11T19:03:53.975,1.5705250240000055,-205.53143310546875,-18497.828979492188,-73991.31591796875,-140.7890316772461,0.0,0.0,0.0,0.0,0.0,0.0,0.059478774666786194,487.2501220703125,21.41235888004303,0.0,0.0,0.0,1,1789167833.1835318,38.99031253,-76.93959958833334,-11.983999999999998,0,1,13.6161,19.873764,86.91832900000001,1,1,1789167833.9633439,0.9864381362831539,0.1380792317011599,0.08809333860249184,0.010653297747748742,177.36219840094415,-9.837549343213594,16.16375190914745,0.0016139059593191566,0.005707575719871856,0.0019554668939344468,0.01912296781539917,0.5468188130187988,-9.695442748908997
2026-09-11T19:03:54.011,1.603947968,-205.53143310546875,-18497.828979492188,-73991.31591796875,-140.7890316772461,0.0,0.0,0.0,0.0,0.0,0.0,0.059478774666786194,487.2501220703125,21.41235888004303,0.0,0.0,0.0,1,1789167833.1835318,38.99031253,-76.93959958833334,-11.983999999999998,0,1,13.6161,19.873764,86.91832900000001,1,1,1789167834.002344,0.9869689772112418,0.13435099769343414,0.08787953190597503,0.010919492358214978,177.3726823899329,-9.818906418825572,15.729183593274469,0.0018976964956934344,-0.007554832200182655,-0.0007977900010866081,0.030204482498168945,0.5471130125236511,-9.71250632019043
2026-09-11T19:03:54.043,1.637367936000004,-205.53143310546875,-18497.828979492188,-73991.31591796875,-140.7890316772461,0.0,0.0,0.0,0.0,0.0,0.0,0.059478774666786194,487.2501220703125,21.41235888004303,0.0,0.0,0.0,1,1789167833.1835318,38.99031253,-76.93959958833334,-11.983999999999998,0,1,13.6161,19.873764,86.91832900000001,1,1,1789167834.0333438,0.9874138684988559,0.13136442377325336,0.08738186020280563,0.011029549870334053,177.39802702586783,-9.768419950575417,15.378515059633159,0.001466600170450835,-0.014031574521408413,-0.0012353440445615864,0.01441577573776245,0.5241654511451721,-9.705935864582061
2026-09-11T19:03:54.076,1.670777376000018,-205.53143310546875,-18497.828979492188,-73991.31591796875,-140.7890316772461,0.0,0.0,0.0,0.0,0.0,0.0,0.059478774666786194,487.2501220703125,21.41235888004303,0.0,0.0,0.0,1,1789167833.1835318,38.99031253,-76.93959958833334,-11.983999999999998,0,1,13.6161,19.873764,86.91832900000001,1,1,1789167834.0623438,0.9878336406740741,0.1286428214321496,0.0866769446896914,0.011082874439441743,177.43016273479057,-9.694417528006444,15.057391475151395,0.0005789257128865191,-0.01397048799758861,-0.0026115361597591155,-0.009218251152038575,0.5180853280448914,-9.697502145442963
2026-09-11T19:03:54.109,1.7041896960000145,-205.53143310546875,-18497.828979492188,-73991.31591796875,-140.7890316772461,0.0,0.0,0.0,0.0,0.0,0.0,0.059478774666786194,487.2501220703125,21.41235888004303,0.0,0.0,0.0,1,1789167833.1835318,38.99031253,-76.93959958833334,-11.983999999999998,0,1,13.6161,19.873764,86.91832900000001,1,1,1789167834.1013439,0.9883861062233968,0.1249511857393266,0.08578269650462036,0.011019763485869005,177.48762879064174,-9.602919378788272,14.621222121286895,0.0011946778729901185,-0.00908286796030369,0.0001897172896917836,-0.02206496286392212,0.4940590351486206,-9.688185827789306
2026-09-11T19:03:54.142,1.7375995840000087,-205.53143310546875,-18497.828979492188,-73991.31591796875,-140.7890316772461,0.0,0.0,0.0,0.0,0.0,0.0,0.059478774666786194,487.2501220703125,21.41235888004303,0.0,0.0,0.0,1,1789167833.1835318,38.99031253,-76.93959958833334,-11.983999999999998,0,1,13.6161,19.873764,86.91832900000001,1,1,1789167834.1343439,0.9888103380031419,0.12180893280677006,0.08544272189688165,0.010781494397363318,177.55086478349315,-9.57547761751628,14.250632218007038,0.0015044738152191121,0.0001624901533606721,-0.0013482668471656196,-0.011669913692474367,0.5044540843200683,-9.69230462085724
2026-09-11T19:03:54.176,1.7710150080000062,-205.53143310546875,-18497.828979492188,-73991.31591796875,-140.7890316772461,0.0,0.0,0.0,0.0,0.0,0.0,0.059478774666786194,487.2501220703125,21.41235888004303,0.0,0.0,0.0,1,1789167834.1544957,38.990312595,-76.93959947666667,-11.991,0,1,13.6161,19.864849,86.89968399999998,1,1,1789167834.163344,0.9891853290678603,0.11901378996676187,0.08504969355288491,0.010707575879559445,177.59238048656405,-9.538547347072882,13.92202715476905,-0.0009105382707654418,0.0033955380597549684,0.00041922808632903794,-0.01863263530731201,0.4906267075920105,-9.703091936035156
2026-09-11T19:03:54.211,1.8044862720000197,-205.53143310546875,-18497.828979492188,-73991.31591796875,-140.7890316772461,0.0,0.0,0.0,0.0,0.0,0.0,0.05929376184940338,485.7344970703125,21.345754265785217,0.0,0.0,0.0,1,1789167834.1544957,38.990312595,-76.93959947666667,-11.991,0,1,13.6161,19.864849,86.89968399999998,1,1,1789167834.202344,0.9896502282475228,0.1152675657121015,0.08484789270762515,0.010327106444103494,177.6754108013054,-9.529692709332975,13.480750389890918,0.000787318025574642,0.0012534954687823275,-0.002623055332822278,0.10944221580505371,0.4460064493560791,-9.699365408973694
2026-09-11T19:03:54.244,1.837905696000007,-205.53143310546875,-18497.828979492188,-73991.31591796875,-140.7890316772461,0.0,0.0,0.0,0.0,0.0,0.0,0.05917169153690338,484.7344970703125,21.301808953285217,0.0,0.0,0.0,1,1789167834.1544957,38.990312595,-76.93959947666667,-11.991,0,1,13.6161,19.864849,86.89968399999998,1,1,1789167834.2343438,0.990042123180848,0.11234354807324123,0.08420267196619599,0.010267987515911617,177.71946708458802,-9.46361826584448,13.136515941760669,0.0021900391454024847,-0.008281936366563493,-0.00207763994157405,-0.11424747438430786,0.5520163376045227,-9.729373758468627
2026-09-11T19:03:54.277,1.8713177280000082,-205.53143310546875,-18497.828979492188,-73991.31591796875,-140.7890316772461,0.0,0.0,0.0,0.0,0.0,0.0,0.05917169153690338,484.7344970703125,21.301808953285217,0.0,0.0,0.0,1,1789167834.1544957,38.990312595,-76.93959947666667,-11.991,0,1,13.6161,19.864849,86.89968399999998,1,1,1789167834.2733438,0.9904898094990282,0.10892629957738854,0.08326831667088164,0.011462372256805527,177.62745621452942,-9.349464452627252,12.745477204229578,0.0013695598640399503,-0.006575004358113038,0.001230282589730803,0.059624432983398444,0.6521422357559205,-9.703582268543244
2026-09-11T19:03:54.311,1.9047242560000086,-205.53143310546875,-18497.828979492188,-73991.31591796875,-140.7890316772461,0.0,0.0,0.0,0.0,0.0,0.0,0.05892755091190338,482.7344970703125,21.213918328285217,0.0,0.0,0.0,1,1789167834.1544957,38.990312595,-76.93959947666667,-11.991,0,1,13.6161,19.864849,86.89968399999998,1,1,1789167834.3023438,0.9908154862735814,0.10612887913560602,0.08296110780097961,0.01178082197050221,177.6214335782229,-9.317064442859355,12.421434087820263,0.000532150888933071,0.012116948331970634,0.002384468824074653,-0.06619488859176635,0.5459362145042419,-9.707210729103087
2026-09-11T19:03:54.345,1.9381317760000059,-205.53143310546875,-18497.828979492188,-73991.31591796875,-140.7890316772461,0.0,0.0,0.0,0.0,0.0,0.0,0.05892755091190338,482.7344970703125,21.213918328285217,0.0,0.0,0.0,1,1789167834.1544957,38.990312595,-76.93959947666667,-11.991,0,1,13.6161,19.864849,86.89968399999998,1,1,1789167834.334344,0.9911512330971675,0.10303245088190499,0.08288442286875504,0.01156372089535876,177.67674768803542,-9.31830632672415,12.058789217758475,0.00020367992370773827,0.020772734224311314,0.0033131585190608356,0.02579148992538452,0.5055328158378601,-9.700051874485016
2026-09-11T19:03:54.378,1.9715537920000088,-205.53143310546875,-18497.828979492188,-73991.31591796875,-140.7890316772461,0.0,0.0,0.0,0.0,0.0,0.0,0.05892755091190338,482.7344970703125,21.213918328285217,0.0,0.0,0.0,1,1789167834.1544957,38.990312595,-76.93959947666667,-11.991,0,1,13.6161,19.864849,86.89968399999998,1,1,1789167834.3743439,0.9915168572716732,0.09919579583210134,0.08331009536828089,0.010674448232505865,177.8103466930746,-9.386238959314085,11.606012950703684,0.0009154251926710258,0.010915289141972536,-0.0017036158828716652,0.031283214015960695,0.3767714992141724,-9.714173450717926
2026-09-11T19:03:54.410,2.0049612800000034,-205.53143310546875,-18497.828979492188,-73991.31591796875,-140.7890316772461,0.0,0.0,0.0,0.0,0.0,0.0,0.05892755091190338,482.7344970703125,21.213918328285217,0.0,0.0,0.0,1,1789167834.1544957,38.990312595,-76.93959947666667,-11.991,0,1,13.6161,19.864849,86.89968399999998,1,1,1789167834.4023438,0.9918139140816947,0.09666036647999961,0.08285823612642801,0.009820697119749509,177.93823753675707,-9.349791252563772,11.301341976997167,0.00015341444125030156,-0.003334626068860366,-0.0004738568919164605,-0.008531785640716553,0.3868723488807678,-9.725647231407166
2026-09-11T19:03:54.444,2.0383665600000143,-205.53143310546875,-18497.828979492188,-73991.31591796875,-140.7890316772461,0.0,0.0,0.0,0.0,0.0,0.0,0.05892755091190338,482.7344970703125,21.213918328285217,0.0,0.0,0.0,1,1789167834.1544957,38.990312595,-76.93959947666667,-11.991,0,1,13.6161,19.864849,86.89968399999998,1,1,1789167834.4343438,0.9921430348157771,0.09357888446350084,0.08243021859474207,0.010022470330681897,177.9491877369705,-9.304965825603283,10.943302413478499,-0.00023841197582242542,-0.005621181921898138,-0.0014234905379265752,0.01912296781539917,0.570256706905365,-9.68200763818741
2026-09-11T19:03:54.478,2.0717714560000218,-205.53143310546875,-18497.828979492188,-73991.31591796875,-140.7890316772461,0.0,0.0,0.0,0.0,0.0,0.0,0.05892755091190338,482.7344970703125,21.213918328285217,0.0,0.0,0.0,1,1789167834.1544957,38.990312595,-76.93959947666667,-11.991,0,1,13.6161,19.864849,86.89968399999998,1,1,1789167834.4743438,0.9925534610960803,0.09000309063574406,0.08134114959130431,0.010985805631397958,177.88401251496578,-9.177490616513325,10.53247996664466,0.0006909758508645551,0.007396007238251171,-0.00048171087355043494,-0.053544309883117674,0.59526366481781,-9.698286677455902
2026-09-11T19:03:54.512,2.1051784320000024,-205.53143310546875,-18497.828979492188,-73991.31591796875,-140.7890316772461,0.0,0.0,0.0,0.0,0.0,0.0,0.05892755091190338,482.7344970703125,21.213918328285217,0.0,0.0,0.0,1,1789167834.1544957,38.990312595,-76.93959947666667,-11.991,0,1,13.6161,19.864849,86.89968399999998,1,1,1789167834.501344,0.9927840986299621,0.08739013800211202,0.08130923080667825,0.011467618457725795,177.85318648282004,-9.174434491144714,10.233292813297593,0.00013404128655316452,0.005363047725528176,0.00034522612604447837,0.07570733924865723,0.5809459555816651,-9.680732773666382
2026-09-11T19:03:54.545,2.1385966720000056,-205.53143310546875,-18497.828979492188,-73991.31591796875,-140.7890316772461,0.0,0.0,0.0,0.0,0.0,0.0,0.05868341028690338,480.7344970703125,21.126027703285217,0.0,0.0,0.0,1,1789167834.1544957,38.990312595,-76.93959947666667,-11.991,0,1,13.6161,19.864849,86.89968399999998,1,1,1789167834.535344,0.9930805001696705,0.08407900217596287,0.08120646978769314,0.01128498296285261,177.9061517548109,-9.17157633668107,9.846756696561256,-0.001285609527019023,-0.006939080040079055,-0.0041859976779832,0.06952914964675903,0.45757829654693605,-9.738984275627136
2026-09-11T19:03:54.577,2.172023552000013,-205.53143310546875,-18497.828979492188,-73991.31591796875,-140.7890316772461,0.0,0.0,0.0,0.0,0.0,0.0,0.05843926966190338,478.7344970703125,21.038137078285217,0.0,0.0,0.0,1,1789167834.1544957,38.990312595,-76.93959947666667,-11.991,0,1,13.6161,19.864849,86.89968399999998,1,1,1789167834.5733438,0.9934745545279418,0.08058963937412282,0.07997043948617569,0.01087880229824587,177.99771808918413,-9.041148296027623,9.4335634947858,0.0027223645672607554,-0.019492709750898667,-0.003019768671800589,-0.06492002407073974,0.5054347493362427,-9.714565716724396
2026-09-11T19:03:54.610,2.2054336639999974,-205.53143310546875,-18497.828979492188,-73991.31591796875,-140.7890316772461,0.0,0.0,0.0,0.0,0.0,0.0,0.05843926966190338,478.7344970703125,21.038137078285217,0.0,0.0,0.0,1,1789167834.1544957,38.990312595,-76.93959947666667,-11.991,0,1,13.6161,19.864849,86.89968399999998,1,1,1789167834.603344,0.9937704705523627,0.07773300809095254,0.07906003027107361,0.01128463224054114,177.98582848007962,-8.938874533588235,9.102624349703612,0.00023492131731843674,-0.017361837267138792,0.0011510446416902603,-0.013729310226440429,0.5816324210929871,-9.703091936035156
2026-09-11T19:03:54.645,2.2388602560000095,-205.53143310546875,-18497.828979492188,-73991.31591796875,-140.7890316772461,0.0,0.0,0.0,0.0,0.0,0.0,0.05840684473514557,478.4688720703125,21.026464104652405,-0.015258789993822575,-5.493164397776127,-164.33516159152992,1,1789167834.1544957,38.990312595,-76.93959947666667,-11.991,0,1,13.6161,19.864849,86.89968399999998,1,1,1789167834.6343439,0.9940463005800103,0.07475415870644989,0.0784307170299174,0.01150611513326113,177.99308228407887,-8.870823319949507,8.756999087103772,-0.0012002629265965004,-0.007209606074138177,-0.0039163443085500765,-0.016377105770111085,0.5096516089057923,-9.696521480426789
2026-09-11T19:03:54.678,2.2722803200000214,-205.53143310546875,-18497.828979492188,-73991.31591796875,-140.7890316772461,0.0,0.0,0.0,0.0,0.0,0.0,0.058082595467567444,475.8126220703125,20.90973436832428,-0.015258789993822575,-5.493164397776127,0.0,1,1789167834.1544957,38.990312595,-76.93959947666667,-11.991,0,1,13.6161,19.864849,86.89968399999998,1,1,1789167834.6743438,0.9943870465489775,0.07089692218721612,0.07774217912853985,0.011143682709381299,178.07557875081278,-8.802649030954631,8.304380206427075,0.0005562364326105928,0.004434532563467192,-0.000850149878646438,-0.025889556427001952,0.4985700942230225,-9.70789719461441
2026-09-11T19:03:54.711,2.3057015040000124,-205.53143310546875,-18497.828979492188,-73991.31591796875,-140.7890316772461,0.0,0.0,0.0,0.0,0.0,0.0,0.05795098841190338,474.7344970703125,20.862355828285217,0.0,0.0,164.3617532454151,1,1789167834.1544957,38.990312595,-76.93959947666667,-11.991,0,1,13.6161,19.864849,86.89968399999998,1,1,1789167834.7013438,0.9945953686115778,0.06824830976874756,0.07745586983703649,0.011081930242374504,178.10873132065308,-8.775418983785777,7.996001252605682,0.00016755160819145564,0.0014243632025525725,0.0014514158059584844,-0.00833565263748169,0.5032772863006592,-9.693089152870177
2026-09-11T19:03:54.744,2.339105472,-205.53143310546875,-18497.828979492188,-73991.31591796875,-140.7890316772461,0.0,0.0,0.0,0.0,0.0,0.0,0.057794585824012756,473.4532470703125,20.806050896644592,-0.015258789993822575,-5.493164397776127,-164.4464632997544,1,1789167834.1544957,38.990312595,-76.93959947666667,-11.991,0,1,13.6161,19.864849,86.89968399999998,1,1,1789167834.7343438,0.9948401711121475,0.06503270652292686,0.07712698791211971,0.010733534341469184,178.18014271503918,-8.746440858449969,7.619394377304322,-7.522369076095559e-05,-0.00593726104943431,-0.0033759903721326313,0.022359162368774412,0.4587550945663452,-9.714957982730866
2026-09-11T19:03:54.779,2.372512287999996,-205.53143310546875,-18497.828979492188,-73991.31591796875,-140.7890316772461,0.0,0.0,0.0,0.0,0.0,0.0,0.057230010628700256,468.8282470703125,20.602803826332092,-0.03051757998764515,-10.986328795552254,-164.432443899377,1,1789167834.1544957,38.990312595,-76.93959947666667,-11.991,0,1,13.6161,19.864849,86.89968399999998,1,1,1789167834.774344,0.9951282177385747,0.06117207197197051,0.07655288545552888,0.01083806253611408,178.20661727535793,-8.686847287631222,7.1714910436669115,-0.00023492131731843674,-0.011328059510069197,-0.0010197958819402868,-0.02383015989303589,0.5583906602096558,-9.696913746433257
2026-09-11T19:03:54.813,2.405939200000006,-205.53143310546875,-18497.828979492188,-73991.31591796875,-140.7890316772461,0.0,0.0,0.0,0.0,0.0,0.0,0.05673028528690338,464.7344970703125,20.422902703285217,0.0,0.0,328.6671767810596,1,1789167834.1544957,38.990312595,-76.93959947666667,-11.991,0,1,13.6161,19.864849,86.89968399999998,1,1,1789167834.8023438,0.9953156111947871,0.058447851837381465,0.0762093544311648,0.011082284273920788,178.20487859289094,-8.650643871047304,6.85721826506056,-0.00016109388995907663,-0.02420754219223615,-0.0052010811709431014,0.04932745031356811,0.5322069042778015,-9.694658216896057
2026-09-11T19:03:54.845,2.4393621440000004,-205.53143310546875,-18497.828979492188,-73991.31591796875,-140.7890316772461,0.0,0.0,0.0,0.0,0.0,0.0,0.05660821497440338,463.7344970703125,20.378957390785217,0.0,0.0,0.0,1,1789167834.1544957,38.990312595,-76.93959947666667,-11.991,0,1,13.6161,19.864849,86.89968399999998,1,1,1789167834.834344,0.9955733644201101,0.05558994979557694,0.0749579243450342,0.011168845814664959,178.22852712204522,-8.511648214904461,6.523660097157849,0.002770884720466198,-0.012609829312733831,-0.0005839871677173026,-0.2110391114807129,0.5170065965270997,-9.701130606002808
2026-09-11T19:03:54.878,2.4727732800000126,-205.53143310546875,-18497.828979492188,-73991.31591796875,-140.7890316772461,0.0,0.0,0.0,0.0,0.0,0.0,0.05653764307498932,463.1563720703125,20.353551506996155,-0.015258789993822575,-5.493164397776127,-164.41118307902244,1,1789167834.1544957,38.990312595,-76.93959947666667,-11.991,0,1,13.6161,19.864849,86.89968399999998,1,1,1789167834.8743439,0.9958520519460178,0.051780354037378816,0.07390148073750179,0.011664335192128584,178.2109555813484,-8.394143878444165,6.084243233737878,-4.852015320544236e-05,-0.02013621264610898,0.0014421655609229145,-0.022359162368774412,0.6016379874229432,-9.696521480426789
2026-09-11T19:03:54.912,2.5061774720000187,-205.53143310546875,-18497.828979492188,-73991.31591796875,-140.7890316772461,0.0,0.0,0.0,0.0,0.0,0.0,0.05624200403690338,460.7344970703125,20.247121453285217,0.0,0.0,164.44536056358206,1,1789167834.1544957,38.990312595,-76.93959947666667,-11.991,0,1,13.6161,19.864849,86.89968399999998,1,1,1789167834.9013438,0.9959622637892639,0.04937218261230346,0.07392804468184745,0.012498035900928668,178.13503891672138,-8.396637712552982,5.812836888230624,0.005515414969227281,-0.04902036456906394,-0.003910235656168095,0.10973641530990601,0.7884546730041504,-9.608457761974336
2026-09-11T19:03:54.944,2.5396012479999968,-205.53143310546875,-18497.828979492188,-73991.31591796875,-140.7890316772461,0.0,0.0,0.0,0.0,0.0,0.0,0.04407884180545807,361.0938720703125,15.868383049964905,-0.3967285752296448,-142.82228708267212,-4273.074564727995,1,1789167834.1544957,38.990312595,-76.93959947666667,-11.991,0,1,13.6161,19.864849,86.89968399999998,1,1,1789167834.9343438,0.9959113916731445,0.04800712216550148,0.07520498598490553,0.014143063319425843,177.94907863933562,-8.536363272324717,5.6726035827684935,0.005902179931469224,0.025541497339535417,-0.02740620711236616,0.05776116945266724,1.139140482788086,-9.630620791339874
2026-09-11T19:03:54.980,2.573005440000003,-205.53143310546875,-18497.828979492188,-73991.31591796875,-140.7890316772461,0.0,0.0,0.0,0.0,0.0,0.0,0.03011704981327057,246.7188720703125,10.842137932777405,-0.12207037210464478,-43.94533395767212,2960.016309479419,1,1789167834.1544957,38.990312595,-76.93959947666667,-11.991,0,1,13.6161,19.864849,86.89968399999998,1,1,1789167834.9743438,0.996060086291253,0.04621477304923628,0.07405249512887041,0.015643759607529457,177.7980961596339,-8.399565344845781,5.474669340619796,-0.0031192524391642656,0.050086062610331675,-0.02050814230970897,-0.7920831335639953,0.7427556832504273,-9.58305853805542
2026-09-11T19:03:55.013,2.606428928000014,-205.53143310546875,-18497.828979492188,-73991.31591796875,-140.7890316772461,0.0,0.0,0.0,0.0,0.0,0.0,0.02975274622440338,243.7344970703125,10.710988640785217,0.0,0.0,1314.803947381482,1,1789167834.1544957,38.990312595,-76.93959947666667,-11.991,0,1,13.6161,19.864849,86.89968399999998,1,1,1789167835.002344,0.9962084231035762,0.044428196375428476,0.07305928163605352,0.016039154314880386,177.7732575613084,-8.287444738638122,5.268432106555498,-0.0009189158511750146,0.020527515464406107,0.009900031116087435,0.04775838628768921,0.6726381345939636,-9.79380345003128
2026-09-11T19:03:55.045,2.639839808000005,-205.53143310546875,-18497.828979492188,-73991.31591796875,-140.7890316772461,0.0,0.0,0.0,0.0,0.0,0.0,0.02975274622440338,243.7344970703125,10.710988640785217,0.0,0.0,0.0,1,1789167834.1544957,38.990312595,-76.93959947666667,-11.991,0,1,13.6161,19.864849,86.89968399999998,1,1,1789167835.035344,0.996168791131924,0.04186457399137212,0.07520936870501603,0.015448232205493066,177.85140470239884,-8.542847446381305,4.973439687572399,0.0018008307222077491,-0.009412735188930618,-0.0013700834628155487,0.4456141833496094,0.5405425569152832,-9.781545137329102
2026-09-11T19:03:55.079,2.6732492800000216,-205.5396728515625,-18498.570556640625,-73994.2822265625,-140.79467590332033,-0.0056442260742187505,-0.5260611176490784,-0.36035186558961874,-0.8060841660469272,-10.785919202477643,0.0,0.02975274622440338,243.7344970703125,10.710988640785217,0.0,0.0,0.0,1,1789167834.1544957,38.990312595,-76.93959947666667,-11.991,0,1,13.6161,19.864849,86.89968399999998,1,1,1789167835.0733438,0.996453913883261,0.03888389088920942,0.07307127881220321,0.015107241601164181,177.92720147555403,-8.30540034124874,4.619867646265556,0.0008264134008193151,-0.04133445814205651,-0.00773495017898847,-0.31440120418548584,0.5617249212646485,-9.760951171989442
2026-09-11T19:03:55.112,2.706655392000016,-205.57264709472656,-18501.53823852539,-74006.15295410156,-140.8172632598877,-0.028231582641601565,-0.5594398379325867,-0.3832162889838219,-0.8572304245343179,-0.6844383265615269,0.0,0.029243484139442444,239.5626220703125,10.52765429019928,-0.0610351599752903,-21.972657591104507,-657.7436365868667,1,1789167834.1544957,38.990312595,-76.93959947666667,-11.991,0,1,13.6161,19.864849,86.89968399999998,1,1,1789167835.1023438,0.9965716540562639,0.036180022178308686,0.07291178793519347,0.014826176406359061,177.98307625900742,-8.293898215869254,4.304612628075529,0.0027644270022338185,-0.03531167595927448,-0.004264362961397745,0.21064684547424314,0.5719238374328613,-9.679359842643738
2026-09-11T19:03:55.147,2.7400707520000083,-205.57296752929688,-18501.56707763672,-74006.26831054688,-140.81748275756837,-0.028451080322265627,-0.09447531402111053,-0.06471559010446072,-0.14476465216638476,9.53156568953425,0.0,0.025598540902137756,209.7032470703125,9.215474724769592,-0.1068115383386612,-38.45215380191803,-493.1712904130721,1,1789167834.1544957,38.990312595,-76.93959947666667,-11.991,0,1,13.6161,19.864849,86.89968399999998,1,1,1789167835.1423438,0.9967447568612245,0.03255645901031197,0.07222840979532111,0.014933970162265683,178.00388317535692,-8.222301794960124,3.8850375456593818,0.0011149163261739779,-0.033815405191539735,-0.013257695531074127,-0.09796843511581421,0.6024225194358825,-9.670239657993317
2026-09-11T19:03:55.180,2.7734913280000058,-205.57261657714844,-18501.53549194336,-74006.14196777344,-140.81724235534668,-0.02821067810058594,-0.01698123849928379,-0.011632148372009397,-0.026020374847909325,1.5883461054787125,0.0,0.01950646936893463,159.7969970703125,7.022328972816467,-0.2136230617761612,-76.90430223941803,-1150.5531334200493,1,1789167835.1645303,38.99031265833333,-76.939599445,-11.979,0,1,13.972644,19.873764,103.51027599999999,1,1,1789167835.1743438,0.9968990349416083,0.02971142927966339,0.07134833362225383,0.014797310295361155,178.04669988356852,-8.127411937400444,3.553042993328845,0.001468520032628029,-0.04026788743616277,-0.021116389554028996,0.08767145244598389,0.5430922859573364,-9.705837798080445
2026-09-11T19:03:55.212,2.8069010240000125,-205.57247924804688,-18501.52313232422,-74006.09252929688,-140.81714828491212,-0.028116607666015626,0.0,0.0,0.0,0.3481668427035985,0.0,0.009996429085731506,81.8907470703125,3.5987144708633423,-0.4272461235523224,-153.80860447883606,-2301.855791785788,1,1789167835.1645303,38.99031265833333,-76.939599445,-11.979,0,1,13.972644,19.873764,103.51027599999999,1,1,1789167835.202344,0.9970242429737072,0.02732240869489067,0.07063651630917613,0.014374542410768042,178.11765191709873,-8.051731607344736,3.271968746020078,0.003112445655081488,-0.0413356798725329,-0.02505210701727621,-0.057074703941345215,0.5317165717697143,-9.710839189662934
2026-09-11T19:03:55.245,2.8403098880000073,-205.5731964111328,-18501.587677001953,-74006.35070800781,-140.817639541626,-0.028607864379882816,-0.02583135850727558,-0.017694480577483775,-0.03958142577282515,-0.529634308352614,0.0,-0.006526947021484375,-53.46875,-2.349700927734375,-0.10681158304214478,-38.45216989517212,3452.8691123314466,1,1789167835.1645303,38.99031265833333,-76.939599445,-11.979,0,1,13.972644,19.873764,103.51027599999999,1,1,1789167835.2343438,0.9971695664509471,0.024574287316298342,0.06969634529623892,0.013834001564024142,178.20542147938212,-7.950540985324256,2.9481485242489254,0.0027740263131197872,-0.04797595954467053,-0.023938237888653423,0.011179581184387206,0.527990044708252,-9.700444140491486
2026-09-11T19:03:55.280,2.8737160000000017,-205.5740509033203,-18501.664581298828,-74006.65832519531,-140.81822486877442,-0.029193191528320315,-0.02583135850727558,-0.017694480577483775,-0.03958142577282515,0.0,0.0,-0.0066242218017578125,-54.265625,-2.3847198486328125,0.0,0.0,1151.051936100152,1,1789167835.1645303,38.99031265833333,-76.939599445,-11.979,0,1,13.972644,19.873764,103.51027599999999,1,1,1789167835.2733438,0.9973796865364343,0.021396059957553015,0.06774909712962944,0.013639257344045107,178.2589443752276,-7.733148327998861,2.575554142776171,0.003188367477543241,-0.04608157917455589,-0.02658345890297603,-0.21780570009231567,0.5546641331481934,-9.683576702213287
2026-09-11T19:03:55.313,2.9071332800000107,-205.57492065429688,-18501.74285888672,-74006.97143554688,-140.81882064819337,-0.02978897094726563,-0.02583135850727558,-0.017694480577483775,-0.03958142577282515,0.0,0.0,-0.0109405517578125,-89.625,-3.9385986328125,-0.1068115383386612,-38.45215380191803,-1150.6667748514449,1,1789167835.1645303,38.99031265833333,-76.939599445,-11.979,0,1,13.972644,19.873764,103.51027599999999,1,1,1789167835.3023438,0.9975268439291055,0.019072272943281527,0.06633688565261794,0.013261283781238283,178.32428233416803,-7.575920434546548,2.301628359894402,0.003234269636870692,-0.0298248843897799,-0.021896726262595662,-0.1949562052154541,0.5130839364624024,-9.676712047100068
2026-09-11T19:03:55.346,2.940548416000013,-205.57579040527344,-18501.82113647461,-74007.28454589844,-140.8194164276123,-0.03038475036621094,-0.02583135850727558,-0.017694480577483775,-0.03958142577282515,0.0,0.0,-0.01383209228515625,-113.3125,-4.97955322265625,-0.030517593026161194,-10.98633348941803,821.9574600114827,1,1789167835.1645303,38.99031265833333,-76.939599445,-11.979,0,1,13.972644,19.873764,103.51027599999999,1,1,1789167835.334344,0.9976592156313189,0.016362333258297133,0.06511838195835667,0.012959932382979177,178.38244599086954,-7.441150796247762,1.9844088333483827,0.002546435378659727,-0.025595078947571643,-0.017175785168876197,-0.22996594629287717,0.5775136280250549,-9.710348857154846
2026-09-11T19:03:55.379,2.973958944000003,-205.59593200683594,-18503.633880615234,-74014.53552246094,-140.83321342468264,-0.04418174743652344,-0.8072858452796936,-0.5529908040165902,-1.2370051986770525,-16.021785810725923,0.0,-0.014436721801757812,-118.265625,-5.1972198486328125,0.0,0.0,328.82849051117086,1,1789167835.1645303,38.99031265833333,-76.939599445,-11.979,0,1,13.972644,19.873764,103.51027599999999,1,1,1789167835.3753438,0.9977867273410171,0.012860244784426959,0.06376703419222908,0.013784998966782881,178.31602580314237,-7.29033244566874,1.5841497692060063,0.004713959776711484,-0.009722007532384015,-0.007847872981592502,-0.1587696661186218,0.7397156217002868,-9.67053385749817
2026-09-11T19:03:55.413,3.0073687680000205,-205.61419677734375,-18505.277709960938,-74021.11083984375,-140.84572479248047,-0.05669311523437501,-0.4658970236778259,-0.3191394612193108,-0.7138946430281641,6.999478440747186,0.0,-0.014558792114257812,-119.265625,-5.2411651611328125,0.0,0.0,0.0,1,1789167835.1645303,38.99031265833333,-76.939599445,-11.979,0,1,13.972644,19.873764,103.51027599999999,1,1,1789167835.4013438,0.9978089852180272,0.010567407439662278,0.06365440741972445,0.01461763777832994,178.23704260955662,-7.28014867129557,1.3257120179848516,-0.00039392081217512015,0.013673083893048778,-0.00792274760650306,-0.19358327419281007,0.7769808923149109,-9.719861307811737
2026-09-11T19:03:55.448,3.0407917760000203,-205.61460876464844,-18505.31478881836,-74021.25915527344,-140.8460070037842,-0.056975326538085944,-0.07198648899793625,-0.04931074496358633,-0.11030499499728498,8.073142795996292,0.0,-0.014558792114257812,-119.265625,-5.2411651611328125,0.0,0.0,0.0,1,1789167835.1645303,38.99031265833333,-76.939599445,-11.979,0,1,13.972644,19.873764,103.51027599999999,1,1,1789167835.4433439,0.9977998666509275,0.006924897547224521,0.06398073925787412,0.015935397998406382,178.11144192806833,-7.322796308004848,0.9161325976738892,-0.0002759365547403035,0.03770836208811309,-0.011195239953992428,-0.09286897703170775,0.7751176287841797,-9.721528438339233
2026-09-11T19:03:55.481,3.0742155199999956,-205.61520385742188,-18505.36834716797,-74021.47338867188,-140.846414642334,-0.057382965087890626,-0.04572579264640808,-0.03132216796278954,-0.07006569426178755,0.5381975460561821,0.0,-0.014982223510742188,-122.734375,-5.3936004638671875,-0.0457763709127903,-16.479493528604507,-493.04750325447213,1,1789167835.1645303,38.99031265833333,-76.939599445,-11.979,0,1,13.972644,19.873764,103.51027599999999,1,1,1789167835.4743438,0.9977248110174175,0.0041966635820393445,0.06521336311497775,0.016577296711830662,178.0564825728869,-7.469063117191359,0.6088660477219606,0.0014552555303128719,0.042196825325466904,-0.011827049143214375,0.0011767980194091797,0.7493261388587952,-9.696717613430023
2026-09-11T19:03:55.514,3.1076280960000133,-205.61672973632812,-18505.50567626953,-74022.02270507812,-140.84745986938478,-0.058428192138671876,-0.04572579264640808,-0.03132216796278954,-0.07006569426178755,0.0,0.0,-0.018610000610351562,-152.453125,-6.6996002197265625,-0.0915527492761612,-32.95898973941803,-493.21238239173186,1,1789167835.1645303,38.99031265833333,-76.939599445,-11.979,0,1,13.972644,19.873764,103.51027599999999,1,1,1789167835.502344,0.9976649980318242,0.0036554821147609744,0.06561110505660778,0.01861107320708856,177.82563216462478,-7.5146528831093775,0.562677805626289,-0.020658589691230883,0.09837373795940839,-0.030251791924817716,-2.767240542640686,3.5734452524375913,-8.70938407514572
2026-09-11T19:03:55.546,3.1410382400000003,-205.6431121826172,-18507.880096435547,-74031.52038574219,-140.8655318450928,-0.07650016784667969,-0.8447028398513794,-0.5786214452981949,-1.294339310348502,-16.38123072249011,0.0,-0.02154541015625,-176.5,-7.75634765625,-0.0762939602136612,-27.46582567691803,164.41605467196248,1,1789167835.1645303,38.99031265833333,-76.939599445,-11.979,0,1,13.972644,19.873764,103.51027599999999,1,1,1789167835.534344,0.9974133597441386,0.003225926167601587,0.06959527202727908,0.017682797168999894,177.93278548551973,-7.973577897136546,0.5147115857939324,-0.019632859689833818,0.06643700517471536,-0.007949800209908972,1.033522860546112,-1.3121297916412353,-5.760818571014404
2026-09-11T19:03:55.580,3.174445152000004,-205.65554809570312,-18508.99932861328,-74035.99731445312,-140.87405044555666,-0.08501876831054689,-0.3240433633327484,-0.2219697038829327,-0.49653208635230056,10.675986496902851,0.0,-0.029514312744140625,-241.78125,-10.625152587890625,-0.2136230766773224,-76.90430760383606,-1479.887812645252,1,1789167835.1645303,38.99031265833333,-76.939599445,-11.979,0,1,13.972644,19.873764,103.51027599999999,1,1,1789167835.5753438,0.9975157907774004,0.002254820668706016,0.06843888793908877,0.016531229571639803,178.0743093958599,-7.843237759857728,0.3910492348009039,0.014254104001037689,0.03757309907108353,0.004169417050089254,-0.056584371433258056,0.6400800560569763,-7.468450563678741
2026-09-11T19:03:55.614,3.2078647360000048,-205.65626525878906,-18509.063873291016,-74036.25549316406,-140.8745417022705,-0.08551002502441407,-0.08974668383598328,-0.06147647842764855,-0.13751896570250643,4.802370533854668,0.0,-0.03849983215332031,-315.390625,-13.859939575195312,-0.1831054985523224,-65.91797947883606,328.73922443199115,1,1789167835.1645303,38.99031265833333,-76.939599445,-11.979,0,1,13.972644,19.873764,103.51027599999999,1,1,1789167835.6023438,0.9973447847732395,0.0013372982714995418,0.07055157424321645,0.018001869090667772,177.91056580062374,-8.087216580467333,0.301372887362462,0.003669205686467679,0.025251598150779157,-0.042550952630696554,0.7332432325935364,1.4344187191581728,-10.7812350548172
2026-09-11T19:03:55.648,3.241285567999995,-205.65927124023438,-18509.334411621094,-74037.33764648438,-140.87660079956055,-0.08756912231445313,-0.08974668383598328,-0.06147647842764855,-0.13751896570250643,0.0,0.0,-0.043003082275390625,-352.28125,-15.481109619140625,-0.2593994438648224,-93.38379979133606,-821.8173716473611,1,1789167835.1645303,38.99031265833333,-76.939599445,-11.979,0,1,13.972644,19.873764,103.51027599999999,1,1,1789167835.6423438,0.9973990841917482,0.0007168557188879755,0.06905255022293318,0.020646992009725113,177.61106232461117,-7.915719776575317,0.24766891575339084,-0.0006283185307179586,-0.019767250042237377,-0.04184304708608765,-0.4654236166763306,1.0579414194488526,-10.115265442333223
2026-09-11T19:03:55.680,3.274774848000021,-205.68687438964844,-18511.81869506836,-74047.27478027344,-140.8955089569092,-0.10647727966308594,-0.8262321949005127,-0.5659690535068512,-1.266036715969154,-15.06430042923612,0.0,-0.04594612121582031,-376.390625,-16.540603637695312,-0.04577639698982239,-16.47950291633606,2296.3854963421113,1,1789167835.1645303,38.99031265833333,-76.939599445,-11.979,0,1,13.972644,19.873764,103.51027599999999,1,1,1789167835.6743438,0.9973449976677808,-0.0012083877924812527,0.0694818611853698,0.021766175415409948,177.49706124634807,-7.9695833641349365,0.035542928489375535,0.0012252211349000194,-0.040202437589212985,-0.036698165517058776,0.31999099477767945,0.7768828258132935,-9.869706922283171
2026-09-11T19:03:55.713,3.3081849600000055,-205.69793701171875,-18512.814331054688,-74051.25732421875,-140.90308685302736,-0.11405517578125,-0.2837737500667572,-0.1943850187957287,-0.43482690317584216,11.12190329416725,0.0,-0.04617500305175781,-378.265625,-16.623001098632812,0.0,0.0,493.2489575714019,1,1789167835.1645303,38.99031265833333,-76.939599445,-11.979,0,1,13.972644,19.873764,103.51027599999999,1,1,1789167835.702344,0.9973976648894358,-0.003015239635069487,0.06823574247364655,0.02308007478570501,177.36013241395952,-7.831227038317282,-0.16569878364276858,0.00025569073541716926,-0.06936165340228226,-0.041427658724113005,0.07256921119689942,0.8811275170326233,-9.589727060165405
2026-09-11T19:03:55.747,3.341593184000004,-205.70687866210938,-18513.619079589844,-74054.47631835938,-140.90921188354494,-0.12018020629882814,-0.2837737500667572,-0.1943850187957287,-0.43482690317584216,0.0,0.0,-0.04617500305175781,-378.265625,-16.623001098632812,0.0,0.0,0.0,1,1789167835.1645303,38.99031265833333,-76.939599445,-11.979,0,1,13.972644,19.873764,103.51027599999999,1,1,1789167835.741344,0.9974579452004687,-0.004395022791652571,0.06614717124181914,0.026132031452326374,177.01892297751314,-7.596032064908111,-0.30696907384891636,0.005385387939953704,-0.08284606720319045,-0.04295761434641123,0.11110934633255004,1.481980972442627,-9.591198057689667
2026-09-11T19:03:55.781,3.3749989760000005,-205.73251342773438,-18515.926208496094,-74063.70483398438,-140.92677169799805,-0.13774002075195313,-0.6745010018348694,-0.46203318625688555,-1.0335388024715575,-8.012028796119722,0.0,-0.04629707336425781,-379.265625,-16.666946411132812,0.0,0.0,0.0,1,1789167835.1645303,38.99031265833333,-76.939599445,-11.979,0,1,13.972644,19.873764,103.51027599999999,1,1,1789167835.774344,0.9974391949004642,-0.005052426867689001,0.06526233198214565,0.028815854721194065,176.71431142045043,-7.497422768700282,-0.3651069753385128,0.006939429105929454,-0.07985614366159896,-0.056314619111923835,0.28233345815658567,1.451776489944458,-9.956299643211365
2026-09-11T19:03:55.815,3.408424031999999,-205.7564239501953,-18518.078155517578,-74072.31262207031,-140.9431504058838,-0.15411872863769532,-0.7007616758346558,-0.48002174794673924,-1.0737780689574505,-0.5381759626626923,0.0,-0.046566009521484375,-381.46875,-16.763763427734375,0.0,0.0,0.0,1,1789167835.1645303,38.99031265833333,-76.939599445,-11.979,0,1,13.972644,19.873764,103.51027599999999,1,1,1789167835.8023438,0.9974449516657888,-0.005350524358597586,0.06404132940005403,0.031203339792305607,176.4411775394424,-7.359194760662874,-0.3857501202375047,0.0036384878916325787,-0.06398795916831691,-0.0586954227445693,0.0013729310226440429,1.559453508720398,-9.57697841495514
2026-09-11T19:03:55.847,3.4418472640000175,-205.778564453125,-18520.07080078125,-74080.283203125,-140.95831665039063,-0.16928497314453125,-0.7530871629714966,-0.5158647066354752,-1.1539564840628906,-1.0723965500618367,0.0,-0.04654121398925781,-381.265625,-16.754837036132812,0.0,0.0,0.0,1,1789167835.1645303,38.99031265833333,-76.939599445,-11.979,0,1,13.972644,19.873764,103.51027599999999,1,1,1789167835.8423438,0.9973993943113058,-0.005559359849133707,0.06299117554894212,0.034578223616469936,176.0534935483401,-7.2407714261313565,-0.3889088849719383,0.006571164633758651,-0.03445157770389167,-0.06563048852736877,0.03775560312271118,1.6492824242019652,-9.53530015176773
2026-09-11T19:03:55.880,3.4752581440000085,-205.811279296875,-18523.01513671875,-74092.060546875,-140.9807263183594,-0.19169464111328127,-0.936938464641571,-0.6418028482794762,-1.4356720836602441,-3.769375174914122,0.0,-0.04666328430175781,-382.265625,-16.798782348632812,0.0,0.0,0.0,1,1789167835.1645303,38.99031265833333,-76.939599445,-11.979,0,1,13.972644,19.873764,103.51027599999999,1,1,1789167835.8753438,0.9973372846267043,-0.005808156037411903,0.06237897358706856,0.037329206676557494,175.73804471813955,-7.172635228366242,-0.40009458522793595,0.005507211921742907,-0.020348968281927088,-0.07775790883485137,-0.17171444433212282,1.6966485444831847,-9.620618008174896
2026-09-11T19:03:55.914,3.508669088000005,-205.84254455566406,-18525.829010009766,-74103.31604003906,-141.0021430206299,-0.2131113433837891,-0.962986946105957,-0.6596460580825806,-1.475586207235549,-0.534052848165749,0.0,-0.04666328430175781,-382.265625,-16.798782348632812,0.0,0.0,0.0,1,1789167835.1645303,38.99031265833333,-76.939599445,-11.979,0,1,13.972644,19.873764,103.51027599999999,1,1,1789167835.9013438,0.9972754480923847,-0.006111451963325373,0.062108193315144715,0.039330689164595346,175.50939062253468,-7.143722333775143,-0.4217711455273984,0.014996043466060479,-0.014897606896248,-0.07903863143996481,-0.03324454404830932,1.7047880641174316,-9.828322858600616
2026-09-11T19:03:55.949,3.5420888959999957,-205.88095092773438,-18529.285583496094,-74117.14233398438,-141.02845138549804,-0.23941970825195313,-1.1205512285232544,-0.7675775915384293,-1.7170221714800207,-3.229567729888768,0.0,-0.04666328430175781,-382.265625,-16.798782348632812,0.0,0.0,0.0,1,1789167835.1645303,38.99031265833333,-76.939599445,-11.979,0,1,13.972644,19.873764,103.51027599999999,1,1,1789167835.942344,0.9971347213893456,-0.006933653978710149,0.06252454604184401,0.04201134352239943,175.20601325752423,-7.196543159483706,-0.49516629922072486,-0.0034529593921455814,-0.02089281287684852,-0.09378928161319489,0.24840244859695432,1.600347239894867,-9.870295321292879
2026-09-11T19:03:55.981,3.5755135680000194,-205.9183349609375,-18532.650146484375,-74130.6005859375,-141.05405944824219,-0.26502777099609376,-1.1205512285232544,-0.7675775915384293,-1.7170221714800207,0.0,0.0,-0.046844482421875,-383.75,-16.864013671875,-0.015258789993822575,-5.493164397776127,-164.344601430112,1,1789167835.1645303,38.99031265833333,-76.939599445,-11.979,0,1,13.972644,19.873764,103.51027599999999,1,1,1789167835.9743438,0.9971071684633839,-0.00751382862945131,0.061487544563698836,0.04404678015232835,174.9754370042952,-7.081511693095521,-0.5524013151614642,-0.001326275698590491,-0.004898964677422884,-0.10189232173142897,-0.08786758544921874,1.4485402953910829,-9.580410742511749
2026-09-11T19:03:56.014,3.608924256000023,-205.96240234375,-18536.6162109375,-74146.46484375,-141.08424560546877,-0.2952139282226563,-1.2525382041931152,-0.857988669872284,-1.9192659938087935,-2.7060525761649976,0.0,-0.04690742492675781,-384.265625,-16.886672973632812,0.0,0.0,164.4133876493516,1,1789167835.1645303,38.99031265833333,-76.939599445,-11.979,0,1,13.972644,19.873764,103.51027599999999,1,1,1789167836.002344,0.9970384072118459,-0.008040441382068103,0.061631488210609854,0.04529156111013095,174.835571620848,-7.101430371514783,-0.603408595845051,-0.004911880113887642,0.005639333346118878,-0.11058301420880952,-0.4428683213043213,1.4881591620445251,-9.602671838378907
2026-09-11T19:03:56.047,3.64233577600001,-206.0095672607422,-18540.861053466797,-74163.44421386719,-141.1165535736084,-0.3275218963623047,-1.4101026058197021,-0.9659202849864961,-2.1607021407178215,-3.230371294519185,0.0,-0.04690742492675781,-384.265625,-16.886672973632812,0.0,0.0,0.0,1,1789167835.1645303,38.99031265833333,-76.939599445,-11.979,0,1,13.972644,19.873764,103.51027599999999,1,1,1789167836.0423439,0.9969438213930284,-0.008675344601264538,0.06166981934370583,0.04716554637052002,174.62388233796852,-7.110368149288651,-0.66288419494188,0.006142337236543644,0.008496088265783196,-0.11586385692656877,-0.4597357595825195,1.5764190135002136,-8.925424578208922
2026-09-11T19:03:56.082,3.675743232000002,-206.0576934814453,-18545.192413330078,-74180.76965332031,-141.14952003479004,-0.3604883575439453,-1.516374111175537,-1.038716266155243,-2.3235421129099003,-2.1790339608249245,0.0,-0.04690742492675781,-384.265625,-16.886672973632812,0.0,0.0,0.0,1,1789167835.1645303,38.99031265833333,-76.939599445,-11.979,0,1,13.972644,19.873764,103.51027599999999,1,1,1789167836.074344,0.9967544394451427,-0.008775276887389667,0.06316193814860771,0.04913401603024744,174.39738631446804,-7.283341469995009,-0.6519600009938605,-0.008277049444657908,0.03155660007360867,-0.12722804475215424,-0.013238977718353272,1.6439868331146241,-9.916288510551452
2026-09-11T19:03:56.115,3.7091701120000096,-206.1086883544922,-18549.781951904297,-74199.12780761719,-141.18445152282715,-0.3954198455810547,-1.516374111175537,-1.038716266155243,-2.3235421129099003,0.0,0.0,-0.046722412109375,-382.75,-16.820068359375,0.0,0.0,0.0,1,1789167835.1645303,38.99031265833333,-76.939599445,-11.979,0,1,13.972644,19.873764,103.51027599999999,1,1,1789167836.1023438,0.9966355002742976,-0.008615368749755641,0.06365422754052676,0.05090770403902574,174.19141460883296,-7.340014590725213,-0.6176674378829832,-0.010176316736678138,0.05025221795512153,-0.12664056692593295,0.2512463771438599,1.5341523513031006,-9.497152282638549
2026-09-11T19:03:56.148,3.7425902079999958,-206.16554260253906,-18554.898834228516,-74219.59533691406,-141.22339668273926,-0.4343650054931641,-1.6216448545455933,-1.1108267253637314,-2.4848486161500762,-2.157697548460611,0.0,-0.046722412109375,-382.75,-16.820068359375,0.0,0.0,0.0,1,1789167835.1645303,38.99031265833333,-76.939599445,-11.979,0,1,13.972644,19.873764,103.51027599999999,1,1,1789167836.143344,0.9964930497893658,-0.008611267305343728,0.06443624683366868,0.052682235059599646,173.98637059159523,-7.430753993271399,-0.5993646131277929,-0.030924790884386728,0.06438432344144482,-0.13384511154524034,0.32263879032135007,1.5459203314971923,-10.165769690666199
2026-09-11T19:03:56.181,3.7760023680000074,-206.2245635986328,-18560.210723876953,-74240.84289550781,-141.26382606506348,-0.47479438781738287,-1.7266398668289185,-1.1827483087778092,-2.645732616271045,-2.1525571353080046,0.0,-0.04702949523925781,-385.265625,-16.930618286132812,-0.015258789993822575,-5.493164397776127,-164.40614428322522,1,1789167836.160603,38.990311068333334,-76.93959806333334,-11.945,0,1,14.508481000000002,21.261321,104.16243599999999,1,1,1789167836.1743438,0.9964753229360599,-0.008075019301265255,0.06527551707893033,0.05206564810734169,174.05337601991226,-7.523437667339646,-0.5372480723882308,-0.02580556565536216,0.08386411775587874,-0.1433952041463029,0.34254629014968874,1.2720205924797057,-9.88539756254196
2026-09-11T19:03:56.214,3.8094114560000207,-206.2869110107422,-18565.821990966797,-74263.28796386719,-141.3065340423584,-0.5175023651123047,-1.8053903579711914,-1.2366923952102662,-2.766402100953527,-1.6146530678250028,0.0,-0.046722412109375,-382.75,-16.820068359375,0.0762939527630806,27.465822994709015,986.5275996900012,1,1789167836.160603,38.990311068333334,-76.93959806333334,-11.945,0,1,14.508481000000002,21.261321,104.16243599999999,1,1,1789167836.202344,0.9963558653017498,-0.008267441149396284,0.0657659153706854,0.0536794511065307,173.86830865865502,-7.581717366961252,-0.5441517577659976,-0.054087229920528675,0.08778726884851158,-0.139736295902422,0.16141746166229248,1.6451636311340332,-10.176655072345733
2026-09-11T19:03:56.250,3.842830784,-206.35189819335938,-18571.670837402344,-74286.68334960938,-141.3510502624512,-0.5620185852050782,-1.8843368291854858,-1.290770727992058,-2.887371886166912,-1.6181753499599076,0.0,-0.04489707946777344,-367.796875,-16.162948608398438,0.1068115308880806,38.452151119709015,328.7417426528368,1,1789167836.160603,38.990311068333334,-76.93959806333334,-11.945,0,1,14.508481000000002,21.261321,104.16243599999999,1,1,1789167836.2433438,0.9963217438165676,-0.008029896999663557,0.06649075126102055,0.053455435170182995,173.89216357682355,-7.663268090115881,-0.514080111223018,-0.024448921227786965,0.07238491273258683,-0.1339795018976439,-0.119052732963562,1.4284366625595093,-9.153036928462983
2026-09-11T19:03:56.282,3.8762592960000006,-206.41983032226562,-18577.784729003906,-74311.13891601562,-141.39758377075196,-0.6085520935058594,-1.9633468389511108,-1.344892584681511,-3.008439031588917,-1.6190327792470198,0.0,-0.03956031799316406,-324.078125,-14.241714477539062,0.2136230617761612,76.90430223941803,1150.2800698908927,1,1789167836.160603,38.990311068333334,-76.93959806333334,-11.945,0,1,14.508481000000002,21.261321,104.16243599999999,1,1,1789167836.274344,0.9963616735296337,-0.007549570987688687,0.06532963096983399,0.05420755313122758,173.80199909718237,-7.527519181161743,-0.46012990885531313,0.005734802856202968,0.06849108317138747,-0.12412711827013592,-0.2622298253250122,1.4734491868019104,-10.044559494667054
2026-09-11T19:03:56.315,3.909682591999996,-206.48959350585938,-18584.063415527344,-74336.25366210938,-141.4453715515137,-0.6563398742675782,-2.0943057537078857,-1.434599441289902,-3.2091075547823467,-2.683962006871014,0.0,-0.029205322265625,-239.25,-10.513916015625,0.4730224907398224,170.28809666633606,2793.9732343252904,1,1789167836.160603,38.990311068333334,-76.93959806333334,-11.945,0,1,14.508481000000002,21.261321,104.16243599999999,1,1,1789167836.3023438,0.9962826339856142,-0.006846806096697452,0.0659262845152552,0.05502508041770097,173.7019839064981,-7.591880216723475,-0.3692163361752756,0.014274524353286022,0.05969235481330846,-0.11896879766586668,0.2710558104705811,1.851201351032257,-7.99124308380127
2026-09-11T19:03:56.348,3.9430939199999955,-206.56280517578125,-18590.652465820312,-74362.60986328125,-141.49552154541016,-0.7064898681640626,-2.1984589099884033,-1.5059443533420565,-3.3687015778052407,-2.1353509819231133,0.0,-0.009397506713867188,-76.984375,-3.3831024169921875,0.6713867783546448,241.69924020767212,2137.3332883187622,1,1789167836.160603,38.990311068333334,-76.93959806333334,-11.945,0,1,14.508481000000002,21.261321,104.16243599999999,1,1,1789167836.3423438,0.9963581763972651,-0.0063262980305089506,0.06494821397850253,0.054882527096959094,173.7149915243564,-7.476398106223651,-0.3165286535838497,-0.07364032806354635,0.08557471495575837,-0.08148505945248527,0.3912853414535522,1.4040181036567687,-12.343336359081269
2026-09-11T19:03:56.382,3.976502976000006,-206.63902282714844,-18597.51205444336,-74390.04821777344,-141.5477306365967,-0.758698959350586,-2.2761075496673584,-1.5591336715221407,-3.4876826939919,-1.5920628879806498,0.0,-0.005218505859375,-42.75,-1.878662109375,0.0,0.0,-7234.542640402502,1,1789167836.160603,38.990311068333334,-76.93959806333334,-11.945,0,1,14.508481000000002,21.261321,104.16243599999999,1,1,1789167836.3743439,0.996275011227756,-0.005577412554915484,0.06531775822331251,0.05602307500493035,173.57740596398344,-7.514311164998275,-0.21930243587644893,0.007280466441769147,0.04412366881966864,-0.08979474655415547,0.21643276906967163,2.0264461894226073,-8.205322256832122
2026-09-11T19:03:56.417,4.0099268480000205,-206.71900939941406,-18604.710845947266,-74418.84338378906,-141.60252143859864,-0.8134897613525391,-2.3803234100341797,-1.6305215358734133,-3.647372798571518,-2.1358346618620936,0.0,-0.001720428466796875,-14.09375,-0.619354248046875,0.3356933891773224,120.84962010383606,3615.6678706699213,1,1789167836.160603,38.990311068333334,-76.93959806333334,-11.945,0,1,14.508481000000002,21.261321,104.16243599999999,1,1,1789167836.4023438,0.996276478741066,-0.0056771624798738814,0.06514709528835524,0.056185440364646844,173.55950704862062,-7.495422632226584,-0.23066253421247063,0.0054920275572505565,0.02038125687308898,-0.07838378390461653,-0.06080123100280761,1.712633384246826,-10.589416977653503
2026-09-11T19:03:56.449,4.043351200000018,-206.80316162109375,-18612.284545898438,-74449.13818359375,-141.66016571044923,-0.8711340332031251,-2.511213541030884,-1.7201812756061556,-3.8479359243158413,-2.6824675533799325,0.0,0.00934982392936945,76.59375762939453,3.365936614573002,0.4425049126148224,159.30176854133606,1150.4231536785855,1,1789167836.160603,38.990311068333334,-76.93959806333334,-11.945,0,1,14.508481000000002,21.261321,104.16243599999999,1,1,1789167836.4433439,0.9962343895684682,-0.005393490553366173,0.06508939047986592,0.057020369586242944,173.46096398933273,-7.487139783065314,-0.19206147821648648,0.04317438423950893,0.036511589820020576,-0.06310883682408737,-0.02667408843994141,1.1048172072219848,-11.742580970172883
2026-09-11T19:03:56.482,4.076760128000018,-206.8868865966797,-18619.819793701172,-74479.27917480469,-141.71751731872558,-0.9284856414794923,-2.537691116333008,-1.7383184146881105,-3.8885075489623047,-0.542883000674397,0.0,0.02667427249252796,218.51564025878906,9.602738097310066,0.7019043564796448,252.68556833267212,2795.174984104126,1,1789167836.160603,38.990311068333334,-76.93959806333334,-11.945,0,1,14.508481000000002,21.261321,104.16243599999999,1,1,1789167836.4743438,0.9963781120877682,-0.005978832893151964,0.06470862928203823,0.05484254376020692,173.71713378439657,-7.446727659471172,-0.278330017955218,0.01227734409022891,0.003633950035577394,-0.017629047175619125,0.3532355388259888,0.30282935699462893,-7.357243150844574
2026-09-11T19:03:56.515,4.1101711360000195,-206.97280883789062,-18627.552795410156,-74510.21118164062,-141.7763740539551,-0.9873423767089845,-2.564518928527832,-1.756695466041565,-3.929615842075794,-0.5500298390714093,0.0,0.0431366004049778,353.3750305175781,15.529176145792007,0.4272461533546448,153.80861520767212,-2959.412452476596,1,1789167836.160603,38.990311068333334,-76.93959806333334,-11.945,0,1,14.508481000000002,21.261321,104.16243599999999,1,1,1789167836.5033438,0.9965482451873301,-0.00700198215382054,0.06353841113434382,0.052966381512178626,173.94189230663892,-7.318214220475136,-0.41735551148885963,-0.01964298259949538,-0.027523842303950576,0.009787108313483403,-0.8267006086349488,0.9531083292198181,-12.043743196640015
2026-09-11T19:03:56.549,4.143581056000016,-207.06109619140625,-18635.498657226562,-74541.99462890625,-141.8368508911133,-1.0478192138671876,-2.643883466720581,-1.8110601747035981,-4.051226231888861,-1.6272025991692953,0.0,0.06693459302186966,548.3281860351562,24.096453487873077,0.6256104111671448,225.21974802017212,2137.423041195749,1,1789167836.160603,38.990311068333334,-76.93959806333334,-11.945,0,1,14.508481000000002,21.261321,104.16243599999999,1,1,1789167836.5423439,0.9967696421899109,-0.00888971955210559,0.06203228392896706,0.05023195243505732,174.27155312220773,-7.155167515397796,-0.6635103110388181,-0.018450224588682458,-0.019692026351476422,0.04114543898406552,-1.1859182040596008,0.7285360405158996,-10.684933750228883
2026-09-11T19:03:56.583,4.177007520000018,-207.150390625,-18643.53515625,-74574.140625,-141.898017578125,-1.1089859008789062,-2.6702983379364014,-1.8291543614864352,-4.0917017749786,-0.5413132176600021,0.0,0.06759453564882278,553.7344360351562,24.334032833576202,0.0,0.0,-6737.767656793195,1,1789167836.160603,38.990311068333334,-76.93959806333334,-11.945,0,1,14.508481000000002,21.261321,104.16243599999999,1,1,1789167836.5753438,0.9969527189507185,-0.010828816458121622,0.06048514751693263,0.04805788011076729,174.53601719341515,-6.986904511093573,-0.9108180814344284,-0.019636524881263002,-0.02054479422400085,0.047899339590507975,-0.3643170535087586,0.34382115467071533,-10.145666057834624
2026-09-11T19:03:56.615,4.210416448000018,-207.23731994628906,-18651.358795166016,-74605.43518066406,-141.95756416320802,-1.1685324859619142,-2.6707961559295654,-1.8294953668117524,-4.092464582166586,-0.010207011889672794,0.0,0.07233620434999466,592.5781860351562,26.041033565998077,0.1525879055261612,54.93164598941803,1644.2205505491804,1,1789167836.160603,38.990311068333334,-76.93959806333334,-11.945,0,1,14.508481000000002,21.261321,104.16243599999999,1,1,1789167836.6023438,0.9970170282969361,-0.013160334846400886,0.05998449952081045,0.0467515848920105,174.70279725844193,-6.940680103197154,-1.1910207885640967,-0.001189965484009734,0.055486634914777726,0.07457093762070972,-1.7793186053466796,1.2040605068588257,-10.001606366958617
2026-09-11T19:03:56.650,4.243825536000003,-207.3284454345703,-18659.560089111328,-74638.24035644531,-142.01998512268068,-1.2309534454345703,-2.723200798034668,-1.8653925466537478,-4.172764286537548,-1.07447350379668,0.0,0.0735168531537056,602.2500610351562,26.466067135334015,0.0,0.0,-1644.2126761868776,1,1789167836.160603,38.990311068333334,-76.93959806333334,-11.945,0,1,14.508481000000002,21.261321,104.16243599999999,1,1,1789167836.643344,0.9967979528072101,-0.016305778501375826,0.06314781137928847,0.04626355784875365,174.78390699878105,-7.319370780214853,-1.5404857379305132,-0.02702118747937621,0.027381074371137442,0.09354580818254167,1.161009312648773,0.5897719407272338,-8.857660625591278
2026-09-11T19:03:56.684,4.277247968000012,-207.4175262451172,-18667.577362060547,-74670.30944824219,-142.08100547790528,-1.2919738006591799,-2.6718504428863525,-1.8302175533771516,-4.094080067504361,1.0524366771570277,0.0,0.07307053357362747,598.5938110351562,26.30539208650589,-0.015258791856467724,-5.493165068328381,-164.35563600898078,1,1789167836.160603,38.990311068333334,-76.93959806333334,-11.945,0,1,14.508481000000002,21.261321,104.16243599999999,1,1,1789167836.6753438,0.9968195608713298,-0.017933411365981013,0.06344838149420794,0.04476001236408703,174.96973219405277,-7.35973002192099,-1.737627071575317,-0.05057213680701209,0.013761746619050089,0.0688202522683136,4.187439619064331,-0.0737460092163086,-10.833700633182525
2026-09-11T19:03:56.717,4.3106764480000095,-207.50685119628906,-18675.616607666016,-74702.46643066406,-142.14219306945802,-1.3531613922119141,-2.672746419906616,-1.8308312976360321,-4.095452974311091,-0.018359921207322046,0.0,0.07340050488710403,601.2969360351562,26.424181759357452,-0.0610351599752903,-21.972657591104507,-492.9776203637506,1,1789167836.160603,38.990311068333334,-76.93959806333334,-11.945,0,1,14.508481000000002,21.261321,104.16243599999999,1,1,1789167836.715344,0.9969446411931507,-0.01990348519808749,0.06258941453088598,0.04228237058054513,175.26902888703313,-7.266202831300159,-1.9868957418969917,0.02560136213287882,-0.06082734242588038,0.040753612566992795,-1.5018884722709656,-0.33921202909469605,-8.735175565071106
2026-09-11T19:03:56.750,4.3440916800000196,-207.59149169921875,-18683.234252929688,-74732.93701171875,-142.20017181396486,-1.4111401367187502,-2.5181968212127686,-1.7249648225307466,-3.858636414036204,3.1682100877005337,0.0,0.07111931592226028,582.6094360351562,25.602953732013702,-0.1068115383386612,-38.45215380191803,-493.173179549032,1,1789167836.160603,38.990311068333334,-76.93959806333334,-11.945,0,1,14.508481000000002,21.261321,104.16243599999999,1,1,1789167836.7433438,0.9970068026277009,-0.021093341850514234,0.06214694843997977,0.040868854195639126,175.44009815082043,-7.218061954430526,-2.136256350941098,0.007007496946757234,-0.05390763554049846,0.07969208271191149,0.07737446977615356,-0.5069057468605042,-8.94964700410843
2026-09-11T19:03:56.782,4.377499264000022,-207.6741485595703,-18690.673370361328,-74762.69348144531,-142.25679176330567,-1.4677600860595705,-2.545759677886963,-1.7438453793525697,-3.9008710168051355,-0.5651578043423213,0.0,0.06892014294862747,564.5938110351562,24.81125146150589,0.0,0.0,1151.0007368960025,1,1789167836.160603,38.990311068333334,-76.93959806333334,-11.945,0,1,14.508481000000002,21.261321,104.16243599999999,1,1,1789167836.774344,0.9970036335578575,-0.022175267597791377,0.06263836838221722,0.03960362339243053,175.59474566335385,-7.276501939793013,-2.2680699086402054,-0.011400316141101763,0.03922016628619058,0.04143132391554219,5.20007431476593,0.6352747974777222,-9.161274514598846
2026-09-11T19:03:56.816,4.410907456000018,-207.75865173339844,-18698.27865600586,-74793.11462402344,-142.31467643737795,-1.5256447601318361,-2.5205647945404053,-1.7265868842601777,-3.862264862786721,0.5165947050470145,0.0,0.06704140454530716,549.2031860351562,24.134905636310577,-0.1525879055261612,-54.93164598941803,-1644.2567735908785,1,1789167836.160603,38.990311068333334,-76.93959806333334,-11.945,0,1,14.508481000000002,21.261321,104.16243599999999,1,1,1789167836.8023438,0.9969928715241808,-0.02297299350661706,0.0633676785717199,0.03823601720556711,175.7596884015481,-7.3604501012583015,-2.3671210453717983,-0.0037432076467522383,0.049320910266257366,0.02137365108577296,-0.1431770923614502,-0.45012524242401125,-9.952376983146669
2026-09-11T19:03:56.851,4.444323904000015,-207.838623046875,-18705.47607421875,-74821.904296875,-142.36945678710939,-1.5804251098632813,-2.4182231426239014,-1.6564828526973725,-3.705446610364555,2.097889984082435,0.0,0.059110648930072784,484.23443603515625,21.279833614826202,-0.2441406548023224,-87.89063572883606,-986.310386412733,1,1789167836.160603,38.990311068333334,-76.93959806333334,-11.945,0,1,14.508481000000002,21.261321,104.16243599999999,1,1,1789167836.843344,0.9970239557198091,-0.024115824588023492,0.06375023450977402,0.03602174794777109,176.02436029169095,-7.4036292023309045,-2.5138560069233016,-0.004036597494012486,-0.06527391776118634,0.00014503686084072878,1.7364635441398621,0.653417100276947,-10.368571216011047
2026-09-11T19:03:56.884,4.477744607999995,-207.9142608642578,-18712.283477783203,-74849.13391113281,-142.4212686920166,-1.6322370147705079,-2.289473295211792,-1.5682892072200776,-3.5081630440678144,2.638892510383642,0.0,0.0522003248333931,427.62506103515625,18.792116940021515,-0.1983642876148224,-71.41114354133606,493.09231150576704,1,1789167836.160603,38.990311068333334,-76.93959806333334,-11.945,0,1,14.508481000000002,21.261321,104.16243599999999,1,1,1789167836.8753438,0.9970201834019946,-0.024476702973178163,0.06431203461463517,0.034865557565339114,176.1615980822538,-7.466563227958784,-2.5620907608742107,-0.017985967007651968,-0.0917561475675467,-0.025006204857948754,1.6986098745155336,-0.3605905264472961,-8.61396536907196
2026-09-11T19:03:56.917,4.511166528000018,-207.9930877685547,-18719.377899169922,-74877.51159667969,-142.47526512145998,-1.6862334442138673,-2.3431875705718994,-1.6050834858417513,-3.5904695012565977,-1.1009025998999442,0.0,0.044866569340229034,367.54693603515625,16.151964962482452,-0.3204346001148224,-115.35645604133606,-1314.864989802178,1,1789167836.160603,38.990311068333334,-76.93959806333334,-11.945,0,1,14.508481000000002,21.261321,104.16243599999999,1,1,1789167836.9023438,0.997108911836839,-0.025156818826896077,0.063398292543454,0.033490430045610094,176.323336405281,-7.36068067739889,-2.653931148661973,0.0010442304914682074,-0.09916070691913263,-0.02025594223279579,1.9173962396240234,0.1255251220703125,-10.577452864456177
2026-09-11T19:03:56.950,4.544665376000012,-208.0679931640625,-18726.119384765625,-74904.4775390625,-142.52657531738282,-1.7375436401367188,-2.2927210330963135,-1.5705139076709749,-3.5131395572453767,1.0319631938024572,0.0,0.032438285648822784,265.73443603515625,11.677782833576202,-0.2746582329273224,-98.87696385383606,491.94205685828825,1,1789167836.160603,38.990311068333334,-76.93959806333334,-11.945,0,1,14.508481000000002,21.261321,104.16243599999999,1,1,1789167836.942344,0.9974269343608001,-0.025473073530630594,0.05955991478759668,0.030712370260425444,176.63716206069628,-6.913918721635487,-2.7226907515402274,0.00486929408013898,-0.13396606286240356,-0.04457344016790758,-0.34411535417556766,0.3759869672012329,-9.532750422725677
2026-09-11T19:03:56.983,4.578071743999999,-208.14109802246094,-18732.698822021484,-74930.79528808594,-142.57665214538576,-1.7876204681396486,-2.2414777278900146,-1.5354122436046602,-3.4346193709839357,1.0507476917672733,0.0,0.027328498661518097,223.87506103515625,9.838259518146515,-0.3662109673023224,-131.83594822883606,-986.607834021724,1,1789167836.160603,38.990311068333334,-76.93959806333334,-11.945,0,1,14.508481000000002,21.261321,104.16243599999999,1,1,1789167836.9743438,0.9975600448648994,-0.02644305681443468,0.05785117620464466,0.02877434703321504,176.8629655108063,-6.7156382235167325,-2.852748960391306,-0.006172531432603145,-0.09161512496398555,-0.06697474111725481,0.26585828588485716,0.2568361677360535,-9.954632512683869
2026-09-11T19:03:57.019,4.611492736000002,-208.21554565429688,-18739.39910888672,-74957.59643554688,-142.62764877319336,-1.8386170959472659,-2.2161865234375,-1.5180877685546876,-3.3958656240038607,0.5183710600203245,0.0,0.01797676831483841,147.26568603515625,6.471636593341827,-0.3051758110523224,-109.86329197883606,657.450749816095,1,1789167836.160603,38.990311068333334,-76.93959806333334,-11.945,0,1,14.508481000000002,21.261321,104.16243599999999,1,1,1789167837.015344,0.997577926670685,-0.026999148413484997,0.058385537350738335,0.026466114800429628,177.13400828960866,-6.771923377827215,-2.9310275293244272,0.0016798794050445422,-0.07846180012218068,-0.08573266725306386,0.8154229609489441,0.5724141699409485,-10.142233730278015
2026-09-11T19:03:57.051,4.644905920000014,-208.28872680664062,-18745.985412597656,-74983.94165039062,-142.67777786254885,-1.8887461853027345,-2.191277265548706,-1.5010249269008638,-3.3576971342628448,0.5106619487031883,0.0,0.004512794315814972,36.96881103515625,1.62460595369339,-0.5493164658546448,-197.75392770767212,-2630.4178532882934,1,1789167836.160603,38.990311068333334,-76.93959806333334,-11.945,0,1,14.508481000000002,21.261321,104.16243599999999,1,1,1789167837.0433438,0.9975684977249109,-0.026926319940460477,0.05844492650558737,0.026762963346475228,177.09947025689306,-6.7793964972870455,-2.920462462470894,0.01977842014945014,-0.009991486368891939,-0.08234131798351368,1.2537802231788635,0.8073815078163147,-9.14734907136917
2026-09-11T19:03:57.083,4.678314944000022,-208.3625030517578,-18752.625274658203,-75010.50109863281,-142.72831459045412,-1.939282913208008,-2.2698845863342285,-1.5548709416389466,-3.478147238812958,-1.6117206757692148,0.0,-0.0036945343017578125,-30.265625,-1.3300323486328125,0.0762939602136612,27.46582567691803,6741.285030790968,1,1789167836.160603,38.990311068333334,-76.93959806333334,-11.945,0,1,14.508481000000002,21.261321,104.16243599999999,1,1,1789167837.074344,0.9976550794562692,-0.026463575452056985,0.05702370699231123,0.027061383007039135,177.05831749272517,-6.615868244587878,-2.8688551569383494,0.016166810328298274,-0.0033293900811043834,-0.0885789501972162,-1.0802025153160095,1.3436091386604307,-10.52577181810379
2026-09-11T19:03:57.117,4.711718431999998,-208.4431915283203,-18759.887237548828,-75039.54895019531,-142.78358619689942,-1.9945545196533205,-2.373767614364624,-1.6260308158397676,-3.6373273439508003,-2.1303126847373415,0.0,-0.003021240234375,-24.75,-1.087646484375,0.0,0.0,-822.2442421862512,1,1789167836.160603,38.990311068333334,-76.93959806333334,-11.945,0,1,14.508481000000002,21.261321,104.16243599999999,1,1,1789167837.114344,0.9975389575683328,-0.02579008059506486,0.05812865395112715,0.029528959788897326,176.77229553787737,-6.747513597647791,-2.771629271196537,0.013915684659075988,0.03226921800719796,-0.08570264758992956,0.8502365690231323,1.500809740753174,-10.626289982261657
2026-09-11T19:03:57.151,4.745120320000012,-208.52529907226562,-18767.276916503906,-75069.10766601562,-142.83982986450195,-2.0507981872558596,-2.4509291648864746,-1.6788864779472352,-3.7555620927595594,-1.5824154044060261,0.0,-0.000217437744140625,-1.78125,-0.078277587890625,0.1678466945886612,60.42481005191803,1809.0237908675083,1,1789167836.160603,38.990311068333334,-76.93959806333334,-11.945,0,1,14.508481000000002,21.261321,104.16243599999999,1,1,1789167837.1423438,0.9975174596520258,-0.02498704652046592,0.05854539641675694,0.030116469812341312,176.70012226524884,-6.794298252194252,-2.6738923747394687,0.029709867192073476,0.06086905579500304,-0.08521447899814674,-1.3725387566375733,1.8304112526893617,-9.07556439218521
2026-09-11T19:03:57.185,4.778538144000009,-208.6121063232422,-18775.089569091797,-75100.35827636719,-142.89929283142092,-2.110261154174805,-2.5814056396484375,-1.76826286315918,-3.9554913724927925,-2.6745124162468596,0.0,0.0046710972674191,38.265628814697266,1.681595016270876,0.1525879055261612,54.93164598941803,-164.37826898904214,1,1789167837.1695762,38.99030386,-76.93959430166667,-12.015999999999998,0,1,14.0625,21.252100000000002,88.378801,1,1,1789167837.1743438,0.9973884674767582,-0.024467996423852077,0.05998442297213706,0.03192853106651987,176.49094747891948,-6.962401894197099,-2.597069848146217,0.054970191989112606,0.015880750863896405,-0.07743362665983082,-0.38589168386459355,2.1299063486289977,-9.262184944763183
2026-09-11T19:03:57.217,4.811954847999999,-208.70132446289062,-18783.119201660156,-75132.47680664062,-142.96040725708008,-2.1713755798339847,-2.659515142440796,-1.8217678725719453,-4.075178669854919,-1.601145625037759,0.0,0.01194381806999445,97.84375762939453,4.299774505198002,0.3356933891773224,120.84962010383606,1972.605500364077,1,1789167837.1695762,38.99030386,-76.93959430166667,-12.015999999999998,0,1,14.0625,21.252100000000002,88.378801,1,1,1789167837.2143438,0.9972581300253075,-0.023994182865925178,0.06123685167200725,0.03391974770431129,176.26073037807691,-7.109479197863161,-2.524186859154345,0.03207409019682499,0.06872757528503272,-0.0509691992118408,1.15120266248703,2.0640056595420835,-9.130383566589355
2026-09-11T19:03:57.250,4.845359615999996,-208.7938995361328,-18791.450958251953,-75165.80383300781,-143.023821182251,-2.234789505004883,-2.7639055252075195,-1.893275284767151,-4.235136195345269,-2.140634899641043,0.0,0.022954942658543587,188.04689025878906,8.263779357075691,0.4119873344898224,148.31544041633606,822.2125749384797,1,1789167837.1695762,38.99030386,-76.93959430166667,-12.015999999999998,0,1,14.0625,21.252100000000002,88.378801,1,1,1789167837.2433438,0.9972094834710168,-0.024408931768625037,0.06150300894140137,0.03456631332000005,176.18971291800523,-7.14323342986245,-2.5664093239176653,0.0457367021143618,0.05430871220260676,-0.03821607836751824,-0.9932175283813476,1.4905127580833433,-10.189403717555999
2026-09-11T19:03:57.284,4.878764000000018,-208.8926544189453,-18800.338897705078,-75201.35559082031,-143.09146827697754,-2.3024365997314455,-2.946411371231079,-2.0182917892932895,-4.514790151425571,-3.7425178840614493,0.0,0.0306777972728014,251.31251525878906,11.044007018208504,0.07629397511482239,27.46583104133606,-3617.776917392652,1,1789167837.1695762,38.99030386,-76.93959430166667,-12.015999999999998,0,1,14.0625,21.252100000000002,88.378801,1,1,1789167837.274344,0.9970973230031571,-0.024320728452328473,0.06176575513263079,0.0372883644101188,175.8757357152632,-7.179987641150479,-2.535644298738544,-0.015765908199115178,0.06446757564676495,-0.01008590868142483,0.3143031376838684,2.518838094043732,-8.212775310955047
2026-09-11T19:03:57.319,4.912187520000003,-208.99546813964844,-18809.59213256836,-75238.36853027344,-143.1618956756592,-2.372863998413086,-3.0517354011535645,-2.090438749790192,-4.676178305722507,-2.158568591726254,0.0,0.038854602724313736,318.2969055175781,13.987656980752945,0.12207034230232239,43.94532322883606,493.0507674687544,1,1789167837.1695762,38.99030386,-76.93959430166667,-12.015999999999998,0,1,14.0625,21.252100000000002,88.378801,1,1,1789167837.314344,0.9970924753295182,-0.02476035934122011,0.0614439828625264,0.03765842822712232,175.83556205983044,-7.145850234495716,-2.584874437226086,0.0741503132709791,0.06207664910445792,-0.00908304249322889,0.16690918575286864,2.4051790186691284,-8.71860232629776
2026-09-11T19:03:57.352,4.945607679999995,-209.0997772216797,-18818.979949951172,-75275.91979980469,-143.2333473968506,-2.4443157196044925,-3.130188465118408,-2.14417909860611,-4.796392042336496,-1.6080218890613187,0.0,0.050863269716501236,416.6719055175781,18.310777097940445,0.5798340439796448,208.74025583267212,4931.003699679417,1,1789167837.1695762,38.99030386,-76.93959430166667,-12.015999999999998,0,1,14.0625,21.252100000000002,88.378801,1,1,1789167837.343344,0.9970288352864932,-0.02557609801436041,0.06085495926260773,0.03969935453839521,175.60480215396032,-7.0871551326645,-2.6665838960384183,-0.03125989410076964,0.07083191876416227,0.01795001322506088,-1.1492413324546815,2.0343895760536195,-9.576095816440581
2026-09-11T19:03:57.384,4.979024800000019,-209.2096405029297,-18828.867645263672,-75315.47058105469,-143.30860374450685,-2.5195720672607425,-3.2614173889160156,-2.234070911407471,-4.997474300750421,-2.6899928180913264,0.0,0.07181549817323685,588.3125610351562,25.853579342365265,0.10681158304214478,38.45216989517212,-5095.833690556722,1,1789167837.1695762,38.99030386,-76.93959430166667,-12.015999999999998,0,1,14.0625,21.252100000000002,88.378801,1,1,1789167837.3743439,0.9970033935922038,-0.027292503256566368,0.06016684064528521,0.04024057303747284,175.55301797484861,-7.017334139031112,-2.863306587512419,-0.04079742033121785,-0.01176369369136698,0.05077791112582222,-1.1888601991081238,1.7902039870262145,-7.33449172246933
2026-09-11T19:03:57.418,5.01243030400002,-209.32017517089844,-18838.81576538086,-75355.26306152344,-143.38431999206543,-2.595288314819336,-3.3402841091156006,-2.2880946147441867,-5.1183218833755015,-1.6172096471501922,0.0,0.0826263502240181,676.8750610351562,29.745486080646515,0.5493164658546448,197.75392770767212,4768.727866296984,1,1789167837.1695762,38.99030386,-76.93959430166667,-12.015999999999998,0,1,14.0625,21.252100000000002,88.378801,1,1,1789167837.4153438,0.9971033921651851,-0.03086443460947918,0.05600601471350352,0.04117691495035921,175.45877600971974,-6.559178811408133,-3.2855878229272664,-0.03511026496359433,-0.05285991439052626,0.12647947303597387,-1.5219921051025391,1.4808041744232177,-8.368897181529999
2026-09-11T19:03:57.451,5.045836191999996,-209.43589782714844,-18849.23080444336,-75396.92321777344,-143.4635900115967,-2.674558334350586,-3.471242904663086,-2.377801389694214,-5.3189902239043745,-2.6853581904510975,0.0,0.10114098340272903,828.5469360351562,36.41075402498245,0.6103516221046448,219.72658395767212,657.7480068787829,1,1789167837.1695762,38.99030386,-76.93959430166667,-12.015999999999998,0,1,14.0625,21.252100000000002,88.378801,1,1,1789167837.442344,0.9971619762312488,-0.0336349866676662,0.05267400918517593,0.04197772727073816,175.37439362157806,-6.1927108215743445,-3.6134359504924842,-0.036773912806595324,-0.0942144438189807,0.16194369077187265,-1.4087252957344054,1.652616685256958,-12.345101556110382
2026-09-11T19:03:57.486,5.079242464000004,-209.5542755126953,-18859.884796142578,-75439.53918457031,-143.5446787261963,-2.7556470489501956,-3.550808906555176,-2.4323041009902955,-5.440909316817942,-1.631511331047921,0.0,0.11100006848573685,909.3125610351562,39.960024654865265,0.18310552835464478,65.91799020767212,-4604.183123156175,1,1789167837.1695762,38.99030386,-76.93959430166667,-12.015999999999998,0,1,14.0625,21.252100000000002,88.378801,1,1,1789167837.475344,0.997237531996865,-0.037329757285379045,0.04840106637222147,0.04220344502346008,175.35605594919554,-5.721066720364144,-4.0553509846245825,-0.017890846563418272,-0.11198067387380657,0.1892273757707488,-3.180688913459778,0.9548735262489318,-9.176278689346313
2026-09-11T19:03:57.519,5.112665152000005,-209.67247009277344,-18870.52230834961,-75482.08923339844,-143.62564201354982,-2.836610336303711,-3.6309468746185303,-2.4871986091136935,-5.563704834273646,-1.642432473516051,0.0,0.12911607325077057,1057.7188720703125,46.481786370277405,0.5645752549171448,203.24709177017212,4108.858675953682,1,1789167837.1695762,38.99030386,-76.93959430166667,-12.015999999999998,0,1,14.0625,21.252100000000002,88.378801,1,1,1789167837.5143437,0.9971968162449685,-0.042409589723683055,0.047395711854314786,0.03941551557686663,175.70166216606918,-5.616465283583012,-4.659565554435272,0.1327497429066887,-0.05912459920763471,0.23759446360079128,0.7675665081596376,3.8494043879890443,-21.34103594898224
2026-09-11T19:03:57.552,5.146082464000017,-209.79075622558594,-18881.168060302734,-75524.67224121094,-143.70666801452637,-2.917636337280274,-3.4761061668395996,-2.381132724285126,-5.326442207151762,3.1739801462346957,0.0,0.13690949976444244,1121.5626220703125,49.28741991519928,-0.2746582329273224,-98.87696385383606,-9040.94427534755,1,1789167837.1695762,38.99030386,-76.93959430166667,-12.015999999999998,0,1,14.0625,21.252100000000002,88.378801,1,1,1789167837.5433438,0.997150631259997,-0.046264190512246464,0.04539867609530212,0.03859019905144106,175.80884859778195,-5.400058263491889,-5.115084980411622,0.17908160229598058,-0.026956959362902818,0.2475547085760725,0.35823693040847776,-0.5055328158378601,3.91638380859375
2026-09-11T19:03:57.584,5.179492480000022,-209.91171264648438,-18892.054138183594,-75568.21655273438,-143.78952316284182,-3.0004914855957034,-3.5557360649108887,-2.435679204463959,-5.448459208267619,-1.6326385530262852,0.0,0.13721849024295807,1124.0938720703125,49.398656487464905,-0.1525879055261612,-54.93164598941803,1315.3336372066296,1,1789167837.1695762,38.99030386,-76.93959430166667,-12.015999999999998,0,1,14.0625,21.252100000000002,88.378801,1,1,1789167837.5753438,0.9969818259443805,-0.05125997703093259,0.04382446895265462,0.038458671485312214,175.84267990166921,-5.239963341665277,-5.696240570973171,-0.04200518817359793,-0.08331015025129573,0.24554600913995223,-1.1717966278266907,0.9420268145370484,-9.246102038497925
2026-09-11T19:03:57.618,5.2129012480000085,-210.03392028808594,-18903.052825927734,-75612.21130371094,-143.87323539733887,-3.084203720092774,-3.6090474128723145,-2.4721974778175357,-5.530148259255398,-1.093074529225116,0.0,0.13646699488162994,1117.9376220703125,49.12811815738678,-0.1983642727136612,-71.41113817691803,-493.2684793257417,1,1789167837.1695762,38.99030386,-76.93959430166667,-12.015999999999998,0,1,14.0625,21.252100000000002,88.378801,1,1,1789167837.614344,0.996707610401296,-0.05753312629043125,0.042730706811550966,0.03792051480099712,175.93089932725638,-5.137340521395869,-6.424632721551971,-0.01841793599752056,0.03091396984302436,0.24299521043816252,-2.6099418740463256,0.32332525583267213,-13.728133428421021
2026-09-11T19:03:57.653,5.246325120000023,-210.1563720703125,-18914.073486328125,-75656.2939453125,-143.95711486816407,-3.168083190917969,-3.610271453857422,-2.473035945892334,-5.532023858921643,-0.02508590491245328,0.0,0.1316986232995987,1078.8751220703125,47.41150438785553,-0.3814697563648224,-137.32911229133606,-1972.1824603202656,1,1789167837.1695762,38.99030386,-76.93959430166667,-12.015999999999998,0,1,14.0625,21.252100000000002,88.378801,1,1,1789167837.643344,0.9964997527728559,-0.06176974180862962,0.04350512851270196,0.03577772370659855,176.2039081308636,-5.228368848710546,-6.9206925712062155,-0.003550348764406865,0.1281048981683562,0.23820585243776488,0.18848381610870363,0.6882307083511353,-8.884923113040925
2026-09-11T19:03:57.686,5.279737696000012,-210.27610778808594,-18924.849700927734,-75699.39880371094,-144.03913383483888,-3.2501021575927735,-3.5846946239471436,-2.4555158174037937,-5.492832447664171,0.5243573105092552,0.0,0.11960603296756744,979.8126220703125,43.05817186832428,-0.2899170219898224,-104.37012791633606,986.424523958003,1,1789167837.1695762,38.99030386,-76.93959430166667,-12.015999999999998,0,1,14.0625,21.252100000000002,88.378801,1,1,1789167837.6743438,0.9961844732964306,-0.06548003073173822,0.046426406722925286,0.03425564912946435,176.41872483047146,-5.5655596218647245,-7.347247186724689,0.007545756488072285,0.12470552038424684,0.17803562647526036,1.26613660238266,-1.1485548669433594,-11.310205764541625
2026-09-11T19:03:57.719,5.313149503999995,-210.3896942138672,-18935.072479248047,-75740.28991699219,-144.11694053649904,-3.32790885925293,-3.4022371768951416,-2.3305324661731723,-5.213252653393812,3.7406940453712223,0.0,0.1080017238855362,884.7501220703125,38.88062059879303,-0.3509521782398224,-126.34278416633606,-657.6314651997124,1,1789167837.1695762,38.99030386,-76.93959430166667,-12.015999999999998,0,1,14.0625,21.252100000000002,88.378801,1,1,1789167837.7143438,0.9959482441727627,-0.06935197277559041,0.048337823841311064,0.030673336753784777,176.86605028536903,-5.770177908785224,-7.80864107344401,0.043623457456047066,0.15280479774257993,0.15052504867362496,-1.0070449051094055,-0.7590347225189209,-9.194126792640686
2026-09-11T19:03:57.751,5.346558560000005,-210.49899291992188,-18944.90936279297,-75779.63745117188,-144.1918101501465,-3.402778472900391,-3.2977983951568604,-2.2589919006824495,-5.0532209660935195,2.1413524970804336,0.0,0.10504724085330963,860.5469970703125,37.81700670719147,0.015258789993822575,5.493164397776127,3946.1141483336182,1,1789167837.1695762,38.99030386,-76.93959430166667,-12.015999999999998,0,1,14.0625,21.252100000000002,88.378801,1,1,1789167837.7433438,0.9956977920438929,-0.07198790143505629,0.051147087980273405,0.02806464603431612,177.202955695748,-6.0787173618966905,-8.121915712713488,0.06563415371879795,0.09431200772416717,0.1354977638139538,-1.5831856021118165,-1.3987225125694276,-9.863920998687744
2026-09-11T19:03:57.785,5.380119264000001,-210.60562133789062,-18954.505920410156,-75818.02368164062,-144.26485061645508,-3.4758189392089847,-3.194058895111084,-2.1879303431510926,-4.894260789081716,2.117403661477604,0.0,0.1045990139245987,856.8751220703125,37.65564501285553,-0.015258789993822575,-5.493164397776127,-327.3569230119151,1,1789167837.1695762,38.99030386,-76.93959430166667,-12.015999999999998,0,1,14.0625,21.252100000000002,88.378801,1,1,1789167837.774344,0.995503287323996,-0.07473640566832752,0.052761260452076506,0.024574865012952325,177.6337518392423,-6.241608829873301,-8.45770658455831,0.02338025612679084,0.030885520976216854,0.13183239785184048,0.25703230073928834,-0.8925032312202453,-12.020305302753448
2026-09-11T19:03:57.820,5.413526368000021,-210.71031188964844,-18963.92807006836,-75855.71228027344,-144.33656364440918,-3.5475319671630863,-3.14272403717041,-2.152765965461731,-4.815600316440875,1.0526017965921508,0.0,0.10430528223514557,854.4688720703125,37.549901604652405,-0.015258789993822575,-5.493164397776127,0.0,1,1789167837.1695762,38.99030386,-76.93959430166667,-12.015999999999998,0,1,14.0625,21.252100000000002,88.378801,1,1,1789167837.814344,0.9951961410664684,-0.07881081156745609,0.05317120370795466,0.023373486747514976,177.8008902333628,-6.287399734995344,-8.93495177432049,0.009977000136100386,-0.020319123151717983,0.13567037687697603,-0.09865490062713622,1.199353314781189,-8.396061602478028
2026-09-11T19:03:57.853,5.446942816000018,-210.81838989257812,-18973.65509033203,-75894.62036132812,-144.41059707641602,-3.6215653991699224,-3.1957855224609375,-2.1891130828857426,-4.896906502518209,-1.0877014045303321,0.0,0.10344506800174713,847.4219970703125,37.24022448062897,-0.1220703274011612,-43.94531786441803,-1150.6954140262114,1,1789167837.1695762,38.99030386,-76.93959430166667,-12.015999999999998,0,1,14.0625,21.252100000000002,88.378801,1,1,1789167837.843344,0.9950179793189617,-0.08186140949656971,0.05199177393690601,0.02312543859343461,177.83795663909916,-6.156909999143798,-9.290120071141018,0.013254728471345737,-0.03329477347566983,0.12007830347135948,-0.5422096874427795,1.3459627346992493,-10.481936091880797
2026-09-11T19:03:57.886,5.480370015999995,-210.9263916015625,-18983.375244140625,-75933.5009765625,-144.48457824707032,-3.695546569824219,-3.2490484714508057,-2.225598202943802,-4.978521391696044,-1.0914799940792033,0.0,0.09918786585330963,812.5469970703125,35.70763170719147,-0.1525879055261612,-54.93164598941803,-328.6643250109946,1,1789167837.1695762,38.99030386,-76.93959430166667,-12.015999999999998,0,1,14.0625,21.252100000000002,88.378801,1,1,1789167837.8743439,0.9946917759237861,-0.08505686084576941,0.05297197182520061,0.023400246443100528,177.83557628086427,-6.278554687850777,-9.656310311883026,0.018416365201193767,-0.03258651886521053,0.1247168650243848,1.452659088459015,0.7034310161018372,-10.9049949798584
2026-09-11T19:03:57.919,5.513780384,-211.0344696044922,-18993.102264404297,-75972.40905761719,-144.55861167907716,-3.769580001831055,-3.2492289543151855,-2.225721833705902,-4.9787979458346,-0.003700371157246204,0.0,0.09267427027225494,759.1876220703125,33.36273729801178,-0.2746582329273224,-98.87696385383606,-1315.3197793095476,1,1789167837.1695762,38.99030386,-76.93959430166667,-12.015999999999998,0,1,14.0625,21.252100000000002,88.378801,1,1,1789167837.9153438,0.9943060625106455,-0.0890926788496896,0.053599306396540106,0.02334658398507417,177.87355542348612,-6.358450688874015,-10.122258837457485,-0.0026792549347364955,-0.00894097269211655,0.10100918512991983,0.7769808923149109,0.5653533818244935,-9.464005805091858
2026-09-11T19:03:57.952,5.547189216000021,-211.14810180664062,-19003.329162597656,-76013.31665039062,-144.63644973754884,-3.8474180603027346,-3.380187749862671,-2.31542860865593,-5.179466286363474,-2.6851215555806505,0.0,0.07874681055545807,645.0938720703125,28.348851799964905,-0.5798340439796448,-208.74025583267212,-3288.4505504044114,1,1789167837.1695762,38.99030386,-76.93959430166667,-12.015999999999998,0,1,14.0625,21.252100000000002,88.378801,1,1,1789167837.942344,0.9942133526357404,-0.09100243503829687,0.051372662436678096,0.02488404734099304,177.68689407604379,-6.123955191537088,-10.335909486375957,-0.02182551682911429,-0.010170731683071756,0.07426550500161071,-0.07845320129394531,0.7534449319267272,-8.286030987663269
2026-09-11T19:03:57.987,5.58059526400001,-211.2624969482422,-19013.624725341797,-76054.49890136719,-144.71481040954592,-3.925778732299805,-3.4332337379455566,-2.3517651104927064,-5.260748726048461,-1.0877222542692961,0.0,0.06539727747440338,535.7344970703125,23.543019890785217,-0.1373291164636612,-49.43848192691803,4768.650691809036,1,1789167837.1695762,38.99030386,-76.93959430166667,-12.015999999999998,0,1,14.0625,21.252100000000002,88.378801,1,1,1789167837.9743438,0.9939399914357929,-0.0934983698291777,0.05248860052737279,0.0242135308986528,177.79084256763431,-6.2501161297283465,-10.62719234383864,0.03851243527450687,-0.013755987032518508,0.062445437175404316,0.420313025932312,0.8150306949424744,-12.033740413475037
2026-09-11T19:03:58.021,5.614010239999999,-211.38099670410156,-19024.28970336914,-76097.15881347656,-144.79598274230958,-4.006951065063477,-3.538318634033203,-2.4237482643127444,-5.421770455245038,-2.1542183307287694,0.0,0.06329728662967682,518.5313720703125,22.787023186683655,-0.1831054985523224,-65.91797947883606,-493.17699800004385,1,1789167837.1695762,38.99030386,-76.93959430166667,-12.015999999999998,0,1,14.0625,21.252100000000002,88.378801,1,1,1789167838.015344,0.9937457803581008,-0.09445819908842716,0.053610766906698804,0.02593951266149584,177.61085751550746,-6.398986072050888,-10.726035700816706,-0.013497678303223348,0.1705486875829803,-0.020187874391968008,-7.748038159790039,0.19740786775588987,-10.115363508834838
2026-09-11T19:03:58.053,5.647431936000004,-211.50045776367188,-19035.04119873047,-76140.16479492188,-144.87781356811524,-4.088781890869141,-3.5913801193237305,-2.4600953817367555,-5.503076641322371,-1.0875306095778554,0.0,0.06046868860721588,495.3594970703125,21.768727898597717,0.01525880303233862,5.493169091641903,2136.6704002833226,1,1789167837.1695762,38.99030386,-76.93959430166667,-12.015999999999998,0,1,14.0625,21.252100000000002,88.378801,1,1,1789167838.0423439,0.9935847235588077,-0.0955363609202138,0.054053314353863485,0.027211028279958475,177.47674622342115,-6.465929857748012,-10.842025839396648,-0.054892873903249255,0.10362997153471452,0.020866109339293008,-1.4917876226043703,2.4937330696296693,-7.448248864345551
2026-09-11T19:03:58.086,5.680839168000006,-211.62326049804688,-19046.09344482422,-76184.37377929688,-144.96193344116213,-4.172901763916016,-3.7228212356567383,-2.550132546424866,-5.704484042646884,-2.6951399232389397,0.0,0.05946923792362213,487.1719970703125,21.408925652503967,-0.0457763709127903,-16.479493528604507,-657.721735827895,1,1789167837.1695762,38.99030386,-76.93959430166667,-12.015999999999998,0,1,14.0625,21.252100000000002,88.378801,1,1,1789167838.074344,0.9935247346856878,-0.09570649440472946,0.053944495039476195,0.028963079108188062,177.27579816675146,-6.472959535958416,-10.850603516330338,0.009983457854332765,0.04077193852413873,0.025889690525308286,-2.9193416866493225,1.9782955371284485,-10.11565770833969
2026-09-11T19:03:58.120,5.714244608000001,-211.7532196044922,-19057.789764404297,-76231.15905761719,-145.05095542907716,-4.261923751831055,-3.880035877227783,-2.6578245759010315,-5.945384251747111,-3.22378718784065,0.0,0.06449700891971588,528.3594970703125,23.218923211097717,0.10681155323982239,38.45215916633606,1644.3924311413853,1,1789167837.1695762,38.99030386,-76.93959430166667,-12.015999999999998,0,1,14.0625,21.252100000000002,88.378801,1,1,1789167838.114344,0.993357220735443,-0.09709691974435705,0.05363637510276003,0.03060652634243241,177.09313902418836,-6.45966657831872,-11.001351066275095,0.05866662481191139,0.03128048898594317,0.023818682834891816,-7.209554999408722,3.044474542713165,-8.669863274993896
2026-09-11T19:03:58.154,5.747665472000023,-211.88995361328125,-19070.095825195312,-76280.38330078125,-145.14461822509767,-4.355586547851563,-4.062812328338623,-2.783026444911957,-6.2254528563706915,-3.7462187994555056,0.0,0.07036401331424713,576.4219970703125,25.331044793128967,0.4425049126148224,159.30176854133606,3615.99297298008,1,1789167837.1695762,38.99030386,-76.93959430166667,-12.015999999999998,0,1,14.0625,21.252100000000002,88.378801,1,1,1789167838.1423438,0.9932096977274812,-0.09871101093271178,0.052664978040546755,0.03189095089074765,176.94581769150827,-6.367816651297574,-11.181569849767346,0.048796438826033066,-0.08878018665997116,0.11567815389415656,-1.1908215291404725,3.3750567196655274,-10.048874420738219
2026-09-11T19:03:58.189,5.781098656000012,-212.03599548339844,-19083.23959350586,-76332.95837402344,-145.24465690612794,-4.4556252288818365,-4.375955104827881,-2.9975292468070984,-6.705281958677289,-6.415865204319502,0.0,0.087678924202919,718.2657470703125,31.564412713050842,0.9765625596046448,351.5625214576721,5750.596560483109,1,1789167838.173013,38.99029350166666,-76.93959063,-11.983999999999998,0,1,19.624899999999997,23.020804000000002,113.42250000000001,1,1,1789167838.183344,0.9930256511379584,-0.1018671042170766,0.048716331607727724,0.03390970797790453,176.69034476105884,-5.95006692945962,-11.542065871250552,-0.07213079279349645,-0.1312765104850803,0.2062157125779608,-0.3396042951011658,-2.770280604190827,-11.586557166099547
2026-09-11T19:03:58.221,5.814522527999998,-212.18479919433594,-19096.631927490234,-76386.52770996094,-145.34658744812012,-4.557555770874024,-4.454489707946777,-3.0513254499435427,-6.825620637847932,-1.6095143954735962,0.0,0.10924340784549713,894.9219970703125,39.32762682437897,0.41198742389678955,148.31547260284424,-6080.894782475028,1,1789167838.173013,38.99029350166666,-76.93959063,-11.983999999999998,0,1,19.624899999999997,23.020804000000002,113.42250000000001,1,1,1789167838.2143438,0.9928463775161002,-0.10535526246932136,0.045853706920392555,0.03246192977684111,176.84358245912645,-5.617763322536768,-11.959571380372378,-0.08001933194666042,-0.1718404057623813,0.22582535938874312,0.7653109786224365,-0.05187717935562134,-6.468662579689026
2026-09-11T19:03:58.254,5.847947456000014,-212.33746337890625,-19110.371704101562,-76441.48681640625,-145.4511624145508,-4.662130737304688,-4.584235191345215,-3.1402011060714723,-7.024429818520645,-2.6589632781822505,0.0,0.11681367456912994,956.9376220703125,42.05292284488678,0.5645752549171448,203.24709177017212,1643.4326849500096,1,1789167838.173013,38.99029350166666,-76.93959063,-11.983999999999998,0,1,19.624899999999997,23.020804000000002,113.42250000000001,1,1,1789167838.242344,0.9924744114558129,-0.1096782993064666,0.043682769726842444,0.03251198080201124,176.8358897020804,-5.384545776519026,-12.463505588781759,0.03678560651258369,-0.11571672567062566,0.2843218145985851,-2.9260102087593083,1.1280589681053161,-15.409483598651885
2026-09-11T19:03:58.288,5.881358784000014,-212.4932861328125,-19124.395751953125,-76497.5830078125,-145.55790100097659,-4.768869323730469,-4.663107395172119,-3.1942285656929017,-7.145285803715323,-1.6170401733636544,0.0,0.13347817957401276,1093.4532470703125,48.05214464664459,0.21362310647964478,76.90431833267212,-3781.435249670447,1,1789167838.173013,38.99029350166666,-76.93959063,-11.983999999999998,0,1,19.624899999999997,23.020804000000002,113.42250000000001,1,1,1789167838.2823439,0.9918414276429888,-0.11648293710923627,0.04200367333761529,0.030298501607675495,177.10395648407314,-5.1854964025869315,-13.265223705339809,0.14522081854388896,-0.08432313934915324,0.3260179049616548,-1.3681257640647888,0.9079977384757996,-12.961547585277557
