timestamp,time_s,drive_pos_turns,drive_encoder_count,drive_wheel_angle_deg,drive_distance_m,drive_distance_since_start_m,drive_velocity_turns_s,drive_velocity_mps,drive_velocity_mph,drive_acceleration_mps2,drive_iq_A,steer_pos_turns,steer_encoder_count,steer_angle_deg,steer_velocity_turns_s,steer_velocity_deg_s,steer_acceleration_deg_s2,gps_received,gps_ros_stamp_s,gps_latitude_deg,gps_longitude_deg,gps_altitude_m,gps_status,gps_service,gps_cov_x_m2,gps_cov_y_m2,gps_cov_z_m2,gps_covariance_type,imu_received,imu_ros_stamp_s,imu_qx,imu_qy,imu_qz,imu_qw,imu_roll_deg,imu_pitch_deg,imu_yaw_deg,imu_gyro_x_rad_s,imu_gyro_y_rad_s,imu_gyro_z_rad_s,imu_accel_x_mps2,imu_accel_y_mps2,imu_accel_z_mps2
2026-09-11T19:02:11.535,1.0879999990720535e-05,-0.13476523756980896,-12.128871381282806,-48.515485525131226,-0.09231418773531914,0.0,0.0,0.0,0.0,0.0,0.0,-0.049533843994140625,-405.78125,-17.832183837890625,-0.03051757998764515,-10.986328795552254,-1083.1464843804335,1,1789167730.8388624,38.99028555833333,-76.940885705,-7.666999999999998,0,1,11.710084,5.784024999999999,39.702601,1,1,1789167731.52211,-0.8177765417831846,0.5750623864087547,0.004262813417434542,-0.022947938224846455,177.56744483068772,-1.1128075481490465,-70.20632647990973,0.0030442032813285096,-0.002716255914878775,-0.0003754203221039803,0.21094104497909547,0.4087411787414551,-9.684067034721375
2026-09-11T19:02:11.569,0.03343926399999475,-0.13476523756980896,-12.128871381282806,-48.515485525131226,-0.09231418773531914,0.0,0.0,0.0,0.0,0.0,0.0,-0.05046653747558594,-413.421875,-18.167953491210938,-0.015258791856467724,-5.493165068328381,164.32633199448742,1,1789167730.8388624,38.99028555833333,-76.940885705,-7.666999999999998,0,1,11.710084,5.784024999999999,39.702601,1,1,1789167731.56211,-0.8177599689101861,0.5750951416396202,0.004205864564389539,-0.02272712066634549,177.59195175184195,-1.1036845482067443,-70.21092019680135,-0.00150203035426632,-0.005197415979513914,-0.0019755381803323816,0.20182086032867433,0.41668456537246706,-9.680928906669616
2026-09-11T19:02:11.602,0.06685516800000357,-0.13476523756980896,-12.128871381282806,-48.515485525131226,-0.09231418773531914,0.0,0.0,0.0,0.0,0.0,0.0,-0.05191802978515625,-425.3125,-18.69049072265625,-0.0610351637005806,-21.972658932209015,-493.16319151133195,1,1789167730.8388624,38.99028555833333,-76.940885705,-7.666999999999998,0,1,11.710084,5.784024999999999,39.702601,1,1,1789167731.59411,-0.8177886899646148,0.5750540737089118,0.00413251075397147,-0.022746279511446692,177.59493176251047,-1.1117018561473948,-70.20503637643944,-0.0007874925584998415,-0.005779308752128823,-0.003101101014943525,0.22290515817642212,0.4044262526702881,-9.69760021194458
2026-09-11T19:02:11.635,0.10027299200000073,-0.13476523756980896,-12.128871381282806,-48.515485525131226,-0.09231418773531914,0.0,0.0,0.0,0.0,0.0,0.0,-0.055400848388671875,-453.84375,-19.944305419921875,-0.1831054836511612,-65.91797411441803,-1315.0262321751636,1,1789167730.8388624,38.99028555833333,-76.940885705,-7.666999999999998,0,1,11.710084,5.784024999999999,39.702601,1,1,1789167731.6221101,-0.8177830786020776,0.575068831919618,0.003919969336610829,-0.022612137163801768,177.62153526044733,-1.1228228553028934,-70.20681742164126,0.0014674728350768324,-0.0012641419772194927,-0.0026502824691533896,0.21545210405349732,0.40138619112014773,-9.681125039672851
2026-09-11T19:02:11.669,0.1336951039999974,-0.13476523756980896,-12.128871381282806,-48.515485525131226,-0.09231418773531914,0.0,0.0,0.0,0.0,0.0,0.0,-0.06548881530761719,-536.484375,-23.575973510742188,-0.3814697563648224,-137.32911229133606,-2136.6434944902685,1,1789167730.8388624,38.99028555833333,-76.940885705,-7.666999999999998,0,1,11.710084,5.784024999999999,39.702601,1,1,1789167731.66211,-0.8178017915513558,0.5750493756276243,0.003840296841361058,-0.022443204892412208,177.64260180354782,-1.1190977574092102,-70.20404257411462,-0.0011608184855014286,-0.003410722424247319,-0.005825734510231872,0.192210343170166,0.40923151124954227,-9.679555975646974
2026-09-11T19:02:11.703,0.16711116799999104,-0.13476523756980896,-12.128871381282806,-48.515485525131226,-0.09231418773531914,0.0,0.0,0.0,0.0,0.0,0.0,-0.06888008117675781,-564.265625,-24.796829223632812,0.0,0.0,4109.673487917733,1,1789167730.8388624,38.99028555833333,-76.940885705,-7.666999999999998,0,1,11.710084,5.784024999999999,39.702601,1,1,1789167731.6941102,-0.8178318305467741,0.5749975451001518,0.0035043841232961183,-0.022729702268791983,177.63778469671925,-1.169319135627789,-70.19611975510226,-4.817108735504349e-05,0.0004948008429403924,-0.007153581005149159,0.2625240248298645,0.42511828451156614,-9.661413672847749
2026-09-11T19:02:11.737,0.2005230399999931,-0.13476523756980896,-12.128871381282806,-48.515485525131226,-0.09231418773531914,0.0,0.0,0.0,0.0,0.0,0.0,-0.06961250305175781,-570.265625,-25.060501098632812,0.0,0.0,0.0,1,1789167730.8388624,38.99028555833333,-76.940885705,-7.666999999999998,0,1,11.710084,5.784024999999999,39.702601,1,1,1789167731.73411,-0.8179629451586852,0.5748100684780107,0.004173067645744102,-0.022640473273733,177.6018557506847,-1.1002104393356509,-70.17097691530972,-0.001829454121940456,-0.0037226127615787056,-0.00628824676201037,0.15543540506362916,0.41982269342422485,-9.640427441501616
2026-09-11T19:02:11.769,0.2339663359999946,-0.13476523756980896,-12.128871381282806,-48.515485525131226,-0.09231418773531914,0.0,0.0,0.0,0.0,0.0,0.0,-0.07054901123046875,-577.9375,-25.39764404296875,-0.0305175818502903,-10.986329466104507,-328.50618151105715,1,1789167730.8388624,38.99028555833333,-76.940885705,-7.666999999999998,0,1,11.710084,5.784024999999999,39.702601,1,1,1789167731.76211,-0.817993943560227,0.5747617019328528,0.004558775934470793,-0.022674034753824353,177.57324538120463,-1.0661200516167075,-70.16484541845828,-0.00012322024519079966,-0.009943315281536896,-0.0032906437717101092,0.18514955505371095,0.4394359937477112,-9.69269688686371
2026-09-11T19:02:11.803,0.2673936959999992,-0.13476523756980896,-12.128871381282806,-48.515485525131226,-0.09231418773531914,0.0,0.0,0.0,0.0,0.0,0.0,-0.07081985473632812,-580.15625,-25.495147705078125,-0.015258789993822575,-5.493164397776127,164.33140601972843,1,1789167730.8388624,38.99028555833333,-76.940885705,-7.666999999999998,0,1,11.710084,5.784024999999999,39.702601,1,1,1789167731.79411,-0.8180158776524359,0.574727853319754,0.00505165804867568,-0.022636238157921054,177.54429506730975,-1.0173216917274255,-70.1610020171526,0.002178519972339322,-0.011744320536669845,-0.0005625196179177724,0.15818126710891722,0.44512385084152223,-9.694952416400909
2026-09-11T19:02:11.837,0.30080726399999946,-0.13476523756980896,-12.128871381282806,-48.515485525131226,-0.09231418773531914,0.0,0.0,0.0,0.0,0.0,0.0,-0.07083320617675781,-580.265625,-25.499954223632812,0.0,0.0,164.39921644333464,1,1789167730.8388624,38.99028555833333,-76.940885705,-7.666999999999998,0,1,11.710084,5.784024999999999,39.702601,1,1,1789167731.83411,-0.8180113432798433,0.574739169376083,0.005143409170014514,-0.02249166051019717,177.55183151592334,-0.9992284541160716,-70.16281569293584,-0.0019362682721625092,-0.011705748760200769,-0.0030482175386080967,0.20329185785293577,0.4167826318740845,-9.691422022342682
2026-09-11T19:02:11.870,0.33423478400000306,-0.13476523756980896,-12.128871381282806,-48.515485525131226,-0.09231418773531914,0.0,0.0,0.0,0.0,0.0,0.0,-0.07083320617675781,-580.265625,-25.499954223632812,0.0,0.0,0.0,1,1789167731.844622,38.9902856,-76.940885735,-7.716000000000001,0,1,11.710084,5.784024999999999,39.69,1,1,1789167731.8621101,-0.8180007163211545,0.574762387800409,0.00532344659212248,-0.022241550854908428,177.5634683101575,-0.9659407288949081,-70.16650300353194,0.0016915731110329043,-0.013181948241537574,-0.0009749409201640325,0.18299209201812744,0.42403955299377444,-9.696619546928405
2026-09-11T19:02:11.903,0.3676487999999978,-0.13476523756980896,-12.128871381282806,-48.515485525131226,-0.09231418773531914,0.0,0.0,0.0,0.0,0.0,0.0,-0.07083320617675781,-580.265625,-25.499954223632812,0.0,0.0,0.0,1,1789167731.844622,38.9902856,-76.940885735,-7.716000000000001,0,1,11.710084,5.784024999999999,39.69,1,1,1789167731.89411,-0.8179997886989432,0.5747646635571273,0.005486340959019638,-0.02217717920358341,177.55878343374857,-0.9464356117930331,-70.16715367519927,0.0023431045208023877,-0.010131287241976684,0.0012320279189827973,0.17338157485961916,0.4172729643821716,-9.695148549404145
2026-09-11T19:02:11.937,0.4010652799999974,-0.13476523756980896,-12.128871381282806,-48.515485525131226,-0.09231418773531914,0.0,0.0,0.0,0.0,0.0,0.0,-0.07083320617675781,-580.265625,-25.499954223632812,0.0,0.0,0.0,1,1789167731.844622,38.9902856,-76.940885735,-7.716000000000001,0,1,11.710084,5.784024999999999,39.69,1,1,1789167731.9341102,-0.8179898789636624,0.5747868496775718,0.005564084160937401,-0.02194712551100028,177.575270643459,-0.9240553514379504,-70.17049731016797,-0.000249931148885588,-0.002178170906488923,0.0014117968319382133,0.15396440753936766,0.400993925113678,-9.699855741481782
2026-09-11T19:02:11.970,0.43448534399999517,-0.13476523756980896,-12.128871381282806,-48.515485525131226,-0.09231418773531914,0.0,0.0,0.0,0.0,0.0,0.0,-0.07083320617675781,-580.265625,-25.499954223632812,0.0,0.0,0.0,1,1789167731.844622,38.9902856,-76.940885735,-7.716000000000001,0,1,11.710084,5.784024999999999,39.69,1,1,1789167731.96211,-0.8179776886103579,0.574807823095658,0.005461625838726743,-0.021877798949727547,177.58854495228877,-0.929153887943984,-70.17326736547419,0.0010969394348784361,-0.0008208283472129332,0.0019526743671312557,0.18995481363296507,0.4057011171913147,-9.698286677455902
2026-09-11T19:02:12.003,0.4678994559999978,-0.13476523756980896,-12.128871381282806,-48.515485525131226,-0.09231418773531914,0.0,0.0,0.0,0.0,0.0,0.0,-0.07083320617675781,-580.265625,-25.499954223632812,0.0,0.0,0.0,1,1789167731.844622,38.9902856,-76.940885735,-7.716000000000001,0,1,11.710084,5.784024999999999,39.69,1,1,1789167731.99411,-0.8179702481030585,0.5748217610198009,0.005330772356033431,-0.021821987590594095,177.60241365424582,-0.9377835759785804,-70.1749967249928,0.0010075785771763263,0.006870139534625279,0.000285012266850674,0.1562199370765686,0.41187930679321294,-9.67347585254669
2026-09-11T19:02:12.037,0.5013125760000037,-0.13476523756980896,-12.128871381282806,-48.515485525131226,-0.09231418773531914,0.0,0.0,0.0,0.0,0.0,0.0,-0.07083320617675781,-580.265625,-25.499954223632812,0.0,0.0,0.0,1,1789167731.844622,38.9902856,-76.940885735,-7.716000000000001,0,1,11.710084,5.784024999999999,39.69,1,1,1789167732.03411,-0.8179603708050254,0.5748370729232486,0.005292745959929177,-0.021798124362904618,177.60717399023582,-0.9398205318132568,-70.17708004587676,-0.00041783182292744246,0.004085815778918725,0.0018915878433114544,0.1741661068725586,0.4055049841880798,-9.692991086368561
2026-09-11T19:02:12.072,0.534831871999998,-0.13476523756980896,-12.128871381282806,-48.515485525131226,-0.09231418773531914,0.0,0.0,0.0,0.0,0.0,0.0,-0.07083320617675781,-580.265625,-25.499954223632812,0.0,0.0,0.0,1,1789167731.844622,38.9902856,-76.940885735,-7.716000000000001,0,1,11.710084,5.784024999999999,39.69,1,1,1789167732.06211,-0.8179414505055261,0.5748645497459013,0.0051535539354453696,-0.021816825438001477,177.61461856527168,-0.9541808838501848,-70.18066580679145,0.0021287780886574837,0.006236585016151337,0.0015215780418886564,0.1741661068725586,0.40923151124954227,-9.696031147918701
2026-09-11T19:02:12.104,0.5682560639999963,-0.13476523756980896,-12.128871381282806,-48.515485525131226,-0.09231418773531914,0.0,0.0,0.0,0.0,0.0,0.0,-0.07083320617675781,-580.265625,-25.499954223632812,0.0,0.0,0.0,1,1789167731.844622,38.9902856,-76.940885735,-7.716000000000001,0,1,11.710084,5.784024999999999,39.69,1,1,1789167732.09411,-0.8179186750592412,0.574895291151147,0.005010011850558605,-0.021893948543617675,177.61687439305376,-0.9728082574896759,-70.18468102627115,0.00027035150113392163,0.005648758124079648,0.00250227854858427,0.19211227666854858,0.41295803831100464,-9.681026973171234
2026-09-11T19:02:12.137,0.6016704319999917,-0.13476523756980896,-12.128871381282806,-48.515485525131226,-0.09231418773531914,0.0,0.0,0.0,0.0,0.0,0.0,-0.07083320617675781,-580.265625,-25.499954223632812,0.0,0.0,0.0,1,1789167731.844622,38.9902856,-76.940885735,-7.716000000000001,0,1,11.710084,5.784024999999999,39.69,1,1,1789167732.13411,-0.8179127040901413,0.5749003808377293,0.004805459570443039,-0.022028802938508302,177.61770348393546,-1.0008845007415694,-70.18497508691085,-0.0013924236772410762,0.0021340140764134667,-0.002269626159293426,0.195838803730011,0.41374257032394407,-9.680928906669616
2026-09-11T19:02:12.171,0.6350968639999905,-0.13476523756980896,-12.128871381282806,-48.515485525131226,-0.09231418773531914,0.0,0.0,0.0,0.0,0.0,0.0,-0.0709381103515625,-581.125,-25.5377197265625,-0.015258789993822575,-5.493164397776127,-164.33594820339536,1,1789167731.844622,38.9902856,-76.940885735,-7.716000000000001,0,1,11.710084,5.784024999999999,39.69,1,1,1789167732.16211,-0.8179302347571583,0.5748664306432406,0.0046061481743051086,-0.022304739151044913,177.60490420432077,-1.0376532575669253,-70.17975542106126,0.0018212510744560829,0.008535881772728668,-0.0010728538912009144,0.22055156213760377,0.41903816141128536,-9.686224497756958
2026-09-11T19:02:12.204,0.6685122559999996,-0.13476523756980896,-12.128871381282806,-48.515485525131226,-0.09231418773531914,0.0,0.0,0.0,0.0,0.0,0.0,-0.07243919372558594,-593.421875,-26.078109741210938,-0.0457763709127903,-16.479493528604507,-328.7804952527683,1,1789167731.844622,38.9902856,-76.940885735,-7.716000000000001,0,1,11.710084,5.784024999999999,39.69,1,1,1789167732.1941102,-0.8179580499367016,0.5748153566275161,0.004156781373317901,-0.022686019870049517,177.59866249888222,-1.1047539791757508,-70.17166954852564,0.0006258750697651666,0.01328125747597605,-0.00323793482829988,0.24242039199829102,0.39726739805221556,-9.70064027349472
2026-09-11T19:02:12.238,0.701937823999998,-0.13476523756980896,-12.128871381282806,-48.515485525131226,-0.09231418773531914,0.0,0.0,0.0,0.0,0.0,0.0,-0.07419776916503906,-607.828125,-26.711196899414062,-0.1220703199505806,-43.945315182209015,-821.7009701557148,1,1789167731.844622,38.9902856,-76.940885735,-7.716000000000001,0,1,11.710084,5.784024999999999,39.69,1,1,1789167732.23411,-0.8180491112654619,0.5746632872507165,0.003300113974160816,-0.023385189581144977,177.58925186555615,-1.2306881834343082,-70.14866595569642,0.00012531464029319286,0.017894162688997062,-0.01262885340158057,0.28860971426010135,0.4387495282363892,-9.686028364753723
2026-09-11T19:02:12.271,0.735359680000002,-0.13476523756980896,-12.128871381282806,-48.515485525131226,-0.09231418773531914,0.0,0.0,0.0,0.0,0.0,0.0,-0.07850837707519531,-643.140625,-28.263015747070312,-0.1220703274011612,-43.94531786441803,-8.025314377789983e-05,1,1789167731.844622,38.9902856,-76.940885735,-7.716000000000001,0,1,11.710084,5.784024999999999,39.69,1,1,1789167732.26211,-0.8181441282428848,0.5745058459519033,0.0031986453620328173,-0.023937148047045033,177.54389546592682,-1.2760915094191965,-70.12617737955875,0.001359262421453184,0.0209298138569908,-0.013443573096411521,0.21898249811172485,0.503473419303894,-9.7708558886528
2026-09-11T19:02:12.304,0.7687868160000022,-0.13476523756980896,-12.128871381282806,-48.515485525131226,-0.09231418773531914,0.0,0.0,0.0,0.0,0.0,0.0,-0.08412742614746094,-689.171875,-30.285873413085938,-0.1220703274011612,-43.94531786441803,0.0,1,1789167731.844622,38.9902856,-76.940885735,-7.716000000000001,0,1,11.710084,5.784024999999999,39.69,1,1,1789167732.29411,-0.8182449729555619,0.5743163742931751,0.0033587936375421117,-0.024991697761333958,177.4340824056804,-1.3299344375776072,-70.09933059210132,0.0024548055929300245,0.0184371346192925,-0.011641520643727378,0.05805536895751953,0.6164460291671753,-9.644644301071168
2026-09-11T19:02:12.338,0.8022088000000025,-0.13476523756980896,-12.128871381282806,-48.515485525131226,-0.09231418773531914,0.0,0.0,0.0,0.0,0.0,0.0,-0.08604240417480469,-704.859375,-30.975265502929688,-0.045776382088661194,-16.47949755191803,821.7890449741033,1,1789167731.844622,38.9902856,-76.940885735,-7.716000000000001,0,1,11.710084,5.784024999999999,39.69,1,1,1789167732.3341112,-0.8182203367722685,0.5742562056527091,0.004545021486097995,-0.026919018208691272,177.1750344237819,-1.345380891972731,-70.09191831610482,0.002503325746135467,0.0015594516866569335,-0.002613979620711907,0.3574523983955384,0.8209146850395204,-9.72466656639099
2026-09-11T19:02:12.371,0.8356324479999984,-0.13476523756980896,-12.128871381282806,-48.515485525131226,-0.09231418773531914,0.0,0.0,0.0,0.0,0.0,0.0,-0.08962631225585938,-734.21875,-32.265472412109375,-0.1068115383386612,-38.45215380191803,-657.3985056928173,1,1789167731.844622,38.9902856,-76.940885735,-7.716000000000001,0,1,11.710084,5.784024999999999,39.69,1,1,1789167732.3621113,-0.8181532064529334,0.5742734881506879,0.004985674811821126,-0.028468133495124455,177.00064998913555,-1.4061163721616572,-70.09432191830041,0.001342856326484437,0.022248584639797717,-0.006596995506688167,0.33852556358337405,0.7616825180625916,-9.69073555683136
2026-09-11T19:02:12.405,0.8690476799999942,-0.13476523756980896,-12.128871381282806,-48.515485525131226,-0.09231418773531914,0.0,0.0,0.0,0.0,0.0,0.0,-0.0934906005859375,-765.875,-33.6566162109375,-0.1831054836511612,-65.91797411441803,-821.9550985761047,1,1789167731.844622,38.9902856,-76.940885735,-7.716000000000001,0,1,11.710084,5.784024999999999,39.69,1,1,1789167732.3941114,-0.8180776444080665,0.574397931893412,0.0055348244954661445,-0.028024083823108486,177.00641663428863,-1.3258348972422769,-70.11314405834392,-0.0006330309196983432,0.02686672584057471,-0.005085365841535878,0.11679720342636109,0.5118090719413757,-9.537751814308166
2026-09-11T19:02:12.438,0.9024714880000033,-0.13549426198005676,-12.194483578205109,-48.777934312820435,-0.0928135694563389,-0.0004993817210197449,-0.026032961905002594,-0.017832578904926778,-0.03989034293335442,-0.5335292407412681,0.0,-0.10745811462402344,-880.296875,-38.68492126464844,-0.5798340439796448,-208.74025583267212,-4273.070313179611,1,1789167731.844622,38.9902856,-76.940885735,-7.716000000000001,0,1,11.710084,5.784024999999999,39.69,1,1,1789167732.4341114,-0.8180964930255203,0.5744188232783907,0.0028908626032450487,-0.02743695457267199,177.23551791633025,-1.5351718292070624,-70.11146301163708,-0.0013753194505715315,-0.009137671298816312,-0.020020322783776558,0.6092871745491028,0.0870830534362793,-9.555796050605773
2026-09-11T19:02:12.471,0.9358965119999993,-0.13636034727096558,-12.272431254386902,-49.08972501754761,-0.09340683788061142,-0.0010926501452922822,-0.026032961905002594,-0.017832578904926778,-0.03989034293335442,0.0,0.0,-0.11397743225097656,-933.703125,-41.03187561035156,-0.0610351599752903,-21.972657591104507,5587.657865005267,1,1789167731.844622,38.9902856,-76.940885735,-7.716000000000001,0,1,11.710084,5.784024999999999,39.69,1,1,1789167732.4621112,-0.8183145198423823,0.5741746226958834,0.001264912015658867,-0.02613903718126393,177.46384790414933,-1.601427976241966,-70.07578553786627,0.0005616469532917752,-0.07397857287258286,-0.033975626416872816,0.5558409311676026,-0.03324454404830932,-9.716428980255127
2026-09-11T19:02:12.504,0.9693082559999908,-0.13722966611385345,-12.350669950246811,-49.402679800987244,-0.09400232128798962,-0.001688133552670479,-0.026032961905002594,-0.017832578904926778,-0.03989034293335442,0.0,0.0,-0.1325702667236328,-1086.015625,-47.72529602050781,-0.7019043564796448,-252.68556833267212,-6905.1442134127,1,1789167731.844622,38.9902856,-76.940885735,-7.716000000000001,0,1,11.710084,5.784024999999999,39.69,1,1,1789167732.4941113,-0.8186460837006336,0.5738412377643864,0.0023635372500449164,-0.022786776303811172,177.7057716306844,-1.2767807009469843,-70.03256009649775,0.0031368802646094085,-0.11187403425650973,-0.025371676803316368,0.17916749845504762,0.04932745031356811,-9.718586443290711
2026-09-11T19:02:12.539,1.0027315840000028,-0.13810224831104279,-12.42920234799385,-49.7168093919754,-0.09460004009306432,-0.002285852357745171,-0.026032961905002594,-0.017832578904926778,-0.03989034293335442,0.0,0.0,-0.1484832763671875,-1216.375,-53.4539794921875,-0.0152588477358222,-5.493185184895992,7395.804006940519,1,1789167731.844622,38.9902856,-76.940885735,-7.716000000000001,0,1,11.710084,5.784024999999999,39.69,1,1,1789167732.5341113,-0.8191073410777834,0.5732916731288543,0.002917669308064331,-0.019781519643629692,177.9508117988086,-1.0257290146979543,-69.95785823645997,0.004590564998595485,-0.14569903875893542,-0.04527157186870531,0.37696763221740726,0.14857074995040895,-9.681125039672851
2026-09-11T19:02:12.571,1.0361550719999997,-0.13897156715393066,-12.50744104385376,-50.02976417541504,-0.09519552350044251,-0.0028813357651233675,-0.026032961905002594,-0.017832578904926778,-0.03989034293335442,0.0,0.0,-0.1596221923828125,-1307.625,-57.4639892578125,-0.5493164658546448,-197.75392770767212,-5752.264471104701,1,1789167731.844622,38.9902856,-76.940885735,-7.716000000000001,0,1,11.710084,5.784024999999999,39.69,1,1,1789167732.5661113,-0.8195941819740565,0.5726738162846478,0.005383938829099244,-0.01676574540362462,178.07160383987147,-0.5945871345425339,-69.8761878820436,0.01391830265295398,-0.16892570591155076,-0.042128408418788725,-0.08129712984085083,0.28910004676818846,-9.765854497070311
2026-09-11T19:02:12.605,1.069568799999999,-0.13984414935112,-12.5859734416008,-50.3438937664032,-0.09579324230551721,-0.0034790545701980594,-0.026032961905002594,-0.017832578904926778,-0.03989034293335442,0.0,0.0,-0.17974472045898438,-1472.46875,-64.70809936523438,-0.7324219346046448,-263.6718964576721,-1972.7810302999223,1,1789167731.844622,38.9902856,-76.940885735,-7.716000000000001,0,1,11.710084,5.784024999999999,39.69,1,1,1789167732.5941112,-0.8199518100334576,0.5721904858334899,0.007254553494848827,-0.014981608661344887,178.11630142701563,-0.3006838635967324,-69.81236890626577,0.01248975066019662,-0.17148243873279725,-0.04202892465142505,0.15847546661376954,0.3306802434539795,-9.623952269229889
2026-09-11T19:02:12.639,1.1029902079999943,-0.14071348309516907,-12.664213478565216,-50.656853914260864,-0.09638873592019082,-0.004074548184871674,0.13016481697559357,0.0891628996282816,0.19945172608330686,3.2014054743960374,0.0,-0.1962566375732422,-1607.734375,-70.65238952636719,-0.5340576767921448,-192.26076364517212,2136.68834097325,1,1789167731.844622,38.9902856,-76.940885735,-7.716000000000001,0,1,11.710084,5.784024999999999,39.69,1,1,1789167732.6341114,-0.8204910450534104,0.5714073302578986,0.010251067388261162,-0.013528619002118328,178.05642241003932,0.07798610349192893,-69.70966252735077,0.016260010910354773,-0.13820005709481661,-0.05208812979529437,-0.17338157485961916,0.5066115473556518,-9.674750717067718
2026-09-11T19:02:12.672,1.1364174400000024,-0.12647917866706848,-11.383126080036163,-45.53250432014465,-0.08663823738694192,0.005675950348377228,0.2603296637535095,0.17832581967115405,0.39890349783275286,2.66737371622187,0.0,-0.21964073181152344,-1799.296875,-79.07066345214844,-0.3967285752296448,-142.82228708267212,1478.9880467065861,1,1789167731.844622,38.9902856,-76.940885735,-7.716000000000001,0,1,11.710084,5.784024999999999,39.69,1,1,1789167732.6621113,-0.8208014626659369,0.570933070673365,0.01312767140364625,-0.012167659613048222,177.99621402983854,0.4386943065166646,-69.65107570634478,0.009958499646029245,-0.12381418073525334,-0.044065025756801636,-0.6044819159698487,0.6164460291671753,-9.757616910934448
2026-09-11T19:02:12.705,1.1698412159999947,-0.11779054254293442,-10.601148828864098,-42.40459531545639,-0.08068652164191008,0.011627666093409062,0.2603296637535095,0.17832581967115405,0.39890349783275286,0.0,0.0,-0.21839332580566406,-1789.078125,-78.62159729003906,0.030517593026161194,10.98633348941803,4601.772719280007,1,1789167731.844622,38.9902856,-76.940885735,-7.716000000000001,0,1,11.710084,5.784024999999999,39.69,1,1,1789167732.6941113,-0.8209404667118372,0.5706460340074724,0.016733373573214017,-0.011825742909132268,177.79254132802222,0.8008824469606213,-69.62272849611578,0.01364480955916647,-0.13729370761425594,-0.032437991345865815,-0.07325567670822143,0.718140991344452,-9.711231455669402
2026-09-11T19:02:12.739,1.2032619200000028,-0.11506536602973938,-10.355882942676544,-41.42353177070618,-0.07881977573037148,0.013494412004947663,0.07991550862789154,0.05474212341010571,0.12245464256018622,-3.69781846190369,0.0,-0.2211456298828125,-1811.625,-79.6124267578125,0.0305175818502903,10.986329466104507,-0.00012038386511361028,1,1789167731.844622,38.9902856,-76.940885735,-7.716000000000001,0,1,11.710084,5.784024999999999,39.69,1,1,1789167732.7341113,-0.8211297887834117,0.5703315605436869,0.017942264029124026,-0.012077093268731198,177.69008153797927,0.89900537921228,-69.58344115410675,0.02398117298825249,-0.14453280975275282,-0.050943368338911284,0.246048852558136,0.5252441826629639,-9.966302426376343
2026-09-11T19:02:12.773,1.2366771840000013,-0.14322766661643982,-12.890489995479584,-51.561959981918335,-0.09811095163226129,-0.005796763896942139,-0.9111539721488953,-0.6241404709219933,-1.3961624707453306,-20.316541396534515,0.0,-0.2217121124267578,-1816.265625,-79.81636047363281,0.0,0.0,-328.78176470803885,1,1789167731.844622,38.9902856,-76.940885735,-7.716000000000001,0,1,11.710084,5.784024999999999,39.69,1,1,1789167732.7621114,-0.821591701519875,0.5696935983988085,0.017213246656696872,-0.011831486661841587,177.76156429786803,0.8482306451296104,-69.49163014226586,0.025653372944588252,-0.13766267021812753,-0.08617807527817281,0.7089227401924133,0.40619144969940185,-9.749477391300202
2026-09-11T19:02:12.806,1.2700924159999971,-0.1563401222229004,-14.070611000061035,-56.28244400024414,-0.10709298372268677,-0.014778795987367631,-0.3324868083000183,-0.22775346368551255,-0.5094699885592169,11.862464616032891,0.0,-0.221405029296875,-1813.75,-79.705810546875,0.0,0.0,0.0,1,1789167731.844622,38.9902856,-76.940885735,-7.716000000000001,0,1,11.710084,5.784024999999999,39.69,1,1,1789167732.7941113,-0.8227408939410591,0.5680709505059806,0.015559022344630077,-0.012277355251757884,177.82900216937531,0.6676983109545342,-69.25982543035683,0.016539961722374662,-0.07821675589520068,-0.1661741943457817,1.0106733656692504,0.3622576569747925,-9.354269389781951
2026-09-11T19:02:12.839,1.3035142399999984,-0.15617913007736206,-14.056121706962585,-56.22448682785034,-0.10698270410299301,-0.014668516367673875,-0.06945627927780151,-0.04757755130529404,-0.10642795120189243,5.390965866501233,0.0,-0.221405029296875,-1813.75,-79.705810546875,0.0,0.0,0.0,1,1789167731.844622,38.9902856,-76.940885735,-7.716000000000001,0,1,11.710084,5.784024999999999,39.69,1,1,1789167732.8341112,-0.8253297135014512,0.5642975900387359,0.013966123063134201,-0.014284302386616689,177.74531261581203,0.3971842780638727,-68.73050894401977,0.010790672633380143,-0.004561243467161981,-0.2832126578589427,-0.010296982669830321,0.8324865322303772,-9.951592451133727
2026-09-11T19:02:12.872,1.3369391039999954,-0.1561586558818817,-14.054279029369354,-56.21711611747742,-0.10696867927908899,-0.014654491543769837,-0.016850167885422707,-0.011542365001514555,-0.025819535168026445,1.0780952258708583,0.0,-0.22113800048828125,-1811.5625,-79.60968017578125,0.015258795581758022,5.493166409432888,164.3437175820186,1,1789167732.8443317,38.990285273333335,-76.94088634666667,-7.747,0,1,11.716929,5.784024999999999,39.69,1,1,1789167732.8621113,-0.8277287676853385,0.5607174403866517,0.013724202852009367,-0.0165131901348456,177.55111684915036,0.24072134089432692,-68.23389673909733,-0.029802020576578776,0.021331239584949497,-0.3300483938032853,1.2203395461273192,0.9665434399414062,-9.301117345905304
2026-09-11T19:02:12.906,1.3703521279999933,-0.15584343671798706,-14.025909304618835,-56.10363721847534,-0.10675275415182114,-0.014438566416502,0.0,0.0,0.0,0.34544508756571324,0.0,-0.22020721435546875,-1803.9375,-79.27459716796875,0.0915527418255806,32.958987057209015,822.0094250606545,1,1789167732.8443317,38.990285273333335,-76.94088634666667,-7.747,0,1,11.716929,5.784024999999999,39.69,1,1,1789167732.9021113,-0.8320971535982926,0.5541642307231955,0.00982736144420228,-0.020487931267771015,177.42146413420068,-0.36398639930061183,-67.31784856638083,-0.027776915045489754,0.09119502421303051,-0.4577916597506283,0.9282975043106079,0.7111782697296143,-9.456062418460846
2026-09-11T19:02:12.939,1.4037725120000033,-0.15584343671798706,-14.025909304618835,-56.10363721847534,-0.10675275415182114,-0.014438566416502,0.0,0.0,0.0,0.0,0.0,-0.216705322265625,-1775.25,-78.013916015625,0.1068115383386612,38.45215380191803,164.36575787720957,1,1789167732.8443317,38.990285273333335,-76.94088634666667,-7.747,0,1,11.716929,5.784024999999999,39.69,1,1,1789167732.9341114,-0.8361499724114141,0.5479908993158378,0.01015460510478273,-0.021356074044093214,177.31505448203922,-0.3680891195919333,-66.4709518109648,-0.04520001336937355,0.08938249978483441,-0.48463447458045067,0.4035436541557312,0.8397434533500672,-10.459773062515259
2026-09-11T19:02:12.973,1.437194943999998,-0.15584343671798706,-14.025909304618835,-56.10363721847534,-0.10675275415182114,-0.014438566416502,0.0,0.0,0.0,0.0,0.0,-0.21105003356933594,-1728.921875,-75.97801208496094,0.3509521782398224,126.34278416633606,2629.6898551377676,1,1789167732.8443317,38.990285273333335,-76.94088634666667,-7.747,0,1,11.716929,5.784024999999999,39.69,1,1,1789167732.9621112,-0.8398426269740696,0.542305720169492,0.008562957778330703,-0.02226080732652436,177.3244116505097,-0.5592874464574742,-65.68946217692385,-0.017672854939844183,0.06677210839109826,-0.5460646537299698,-0.24340105701446532,0.6143866326332093,-9.116261990356445
2026-09-11T19:02:13.007,1.470605919999997,-0.1570233702659607,-14.132103323936462,-56.52841329574585,-0.10756100863218308,-0.015246820896863938,-0.02630305476486683,-0.01801759251393378,-0.040304206589866144,-0.5392716607241383,0.0,-0.19771385192871094,-1619.671875,-71.17698669433594,0.16784673929214478,60.42482614517212,-1972.9432034899535,1,1789167732.8443317,38.990285273333335,-76.94088634666667,-7.747,0,1,11.716929,5.784024999999999,39.69,1,1,1789167733.0021112,-0.8459203643294517,0.5326911526075213,0.007825197841934766,-0.0244466649081789,177.15118219437628,-0.7337530055578394,-64.3804613453313,-0.050674064035328564,0.08883376826800739,-0.5845641735680119,-1.862969331226349,1.0756914562416076,-10.40210995956421
2026-09-11T19:02:13.041,1.504028255999998,-0.18005791306495667,-16.2052121758461,-64.8208487033844,-0.12333967044949533,-0.03102548271417618,-0.9304004311561584,-0.6373242953419685,-1.4256538460584463,-18.529725236082133,0.0,-0.19228744506835938,-1575.21875,-69.22348022460938,-0.1068115308880806,-38.452151119709015,-2958.4101262364843,1,1789167732.8443317,38.990285273333335,-76.94088634666667,-7.747,0,1,11.716929,5.784024999999999,39.69,1,1,1789167733.0341113,-0.8504382377309007,0.5254001184808597,0.006413395978665178,-0.02585319433802382,177.09276848808602,-0.9315643281038622,-63.39184396012134,-0.04401039695121421,0.09822800296686686,-0.5159015245311535,-0.6544958317947387,0.9625227133750915,-9.823517600021361
2026-09-11T19:02:13.074,1.5374528959999907,-0.1971914917230606,-17.747234255075455,-70.98893702030182,-0.13507617183029652,-0.04276198409497738,-0.4354792833328247,-0.29830330908298497,-0.6672854981276499,10.14284630317807,0.0,-0.1932811737060547,-1583.359375,-69.58122253417969,-0.045776382088661194,-16.47949755191803,657.3789147106984,1,1789167732.8443317,38.990285273333335,-76.94088634666667,-7.747,0,1,11.716929,5.784024999999999,39.69,1,1,1789167733.0621114,-0.8538509795924712,0.519777991391682,0.003162907268647161,-0.027556130559562974,177.1134045781119,-1.331951046680282,-62.62799756973386,-0.01939374958231059,0.16098602861130337,-0.47806488074301884,-1.1646377732086182,0.6358631964874267,-8.619653226165772
2026-09-11T19:02:13.107,1.5708666559999926,-0.2077367901802063,-18.696311116218567,-74.78524446487427,-0.14229970127344133,-0.04998551353812218,-0.35733383893966675,-0.24477367967367175,-0.5475431274017347,1.6020235199304143,0.0,-0.1933765411376953,-1584.140625,-69.61555480957031,0.0762939527630806,27.465822994709015,1315.1863348101042,1,1789167732.8443317,38.990285273333335,-76.94088634666667,-7.747,0,1,11.716929,5.784024999999999,39.69,1,1,1789167733.1021113,-0.8581786315267307,0.5126099800111187,0.0027883203709971366,-0.027434832848354043,177.1362976723688,-1.3374613515476923,-61.66826861693368,-0.01877258690152581,0.1609251166204088,-0.4415604467729314,-0.8720073323822022,0.5634901182937622,-8.018505571250916
2026-09-11T19:02:13.140,1.604286271999996,-0.23383423686027527,-21.045081317424774,-84.1803252696991,-0.16017645224928856,-0.06786226451396943,-0.698722779750824,-0.47862510412931447,-1.0706538657151796,-6.997430025994898,0.0,-0.1940021514892578,-1589.265625,-69.84077453613281,0.0,0.0,-821.8473544012681,1,1789167732.8443317,38.990285273333335,-76.94088634666667,-7.747,0,1,11.716929,5.784024999999999,39.69,1,1,1789167733.1341114,-0.8611334700908924,0.5077109388964015,0.004941474804228788,-0.025579895248251154,177.1867599796449,-1.0006555715580903,-61.02131228767184,0.015923511430570265,-0.06939289479589295,-0.35397022559696995,-2.319665029258728,1.4420679062843322,-11.015613993682862
2026-09-11T19:02:13.173,1.6377060479999983,-0.24943457543849945,-22.44911178946495,-89.7964471578598,-0.17086268417537215,-0.07854849644005299,-0.5183085203170776,-0.3550413364171982,-0.7942048506111261,3.697923280877394,0.0,-0.195343017578125,-1600.25,-70.323486328125,-0.1678466945886612,-60.42481005191803,-1808.055507371258,1,1789167732.8443317,38.990285273333335,-76.94088634666667,-7.747,0,1,11.716929,5.784024999999999,39.69,1,1,1789167733.1621113,-0.8632278486658175,0.5041200435958756,0.003521148926565497,-0.026234794508700608,177.19978530719794,-1.1673025714166385,-60.540828342960886,-0.025502576497215945,0.03987798088126724,-0.34983047914416465,0.33156284196853636,0.40324945465087886,-7.738623775634766
2026-09-11T19:02:13.207,1.671117056,-0.26949605345726013,-24.254644811153412,-97.01857924461365,-0.1846047966182232,-0.09229060888290407,-0.5964074730873108,-0.40853911906480794,-0.9138759821600024,-1.6012022937951207,0.0,-0.20189857482910156,-1653.953125,-72.68348693847656,-0.1831054985523224,-65.91797947883606,-164.41196347376774,1,1789167732.8443317,38.990285273333335,-76.94088634666667,-7.747,0,1,11.716929,5.784024999999999,39.69,1,1,1789167733.2021112,-0.8653017921492657,0.5006291036586167,0.004352332752907361,-0.024583862040918596,177.31129270903878,-0.9788102671758835,-60.08095305680335,-0.026524117708408224,0.09859556930733687,-0.19531787672850823,0.5838879506301881,0.47169987277984615,-9.50597826778412
2026-09-11T19:02:13.241,1.7045417279999953,-0.28960496187210083,-26.064446568489075,-104.2577862739563,-0.1983793988823891,-0.10606521114706995,-0.5964074730873108,-0.40853911906480794,-0.9138759821600024,0.0,0.0,-0.20720672607421875,-1697.4375,-74.59442138671875,-0.04577639698982239,-16.47950291633606,1479.1013225950853,1,1789167732.8443317,38.990285273333335,-76.94088634666667,-7.747,0,1,11.716929,5.784024999999999,39.69,1,1,1789167733.2341113,-0.8669079592158994,0.4979083558033323,0.002847427578120754,-0.02344678283974007,177.50711676711413,-1.0549770656702526,-59.71883316915396,0.025071131106122944,-0.02581778296012612,-0.2289042947221863,1.3604765769386291,-0.2305543453025818,-9.41046149520874
2026-09-11T19:02:13.274,1.7379645119999907,-0.30703961849212646,-27.633565664291382,-110.53426265716553,-0.21032213866710664,-0.1180079509317875,-0.5189134478569031,-0.35545571178197866,-0.7951317819031368,1.588240144293083,0.0,-0.21404266357421875,-1753.4375,-77.05535888671875,0.0,0.0,493.0619458970956,1,1789167732.8443317,38.990285273333335,-76.94088634666667,-7.747,0,1,11.716929,5.784024999999999,39.69,1,1,1789167733.2621114,-0.8677657591671117,0.4964838734817894,0.00416936600306862,-0.021655645378906133,177.60844736272074,-0.8174833115500857,-59.53417327193677,-0.03602237403068657,0.010072295113259275,-0.10740599137140425,0.030106415996551512,0.39677706554412845,-10.489683345508576
2026-09-11T19:02:13.307,1.7713854080000004,-0.3256576657295227,-29.309189915657043,-117.23675966262817,-0.22307550102472307,-0.13076131328940394,-0.571010410785675,-0.39114213138818743,-0.8749600290537468,-1.0677876381949294,0.0,-0.21550559997558594,-1765.421875,-77.58201599121094,-0.030517593026161194,-10.98633348941803,-328.7264796675357,1,1789167732.8443317,38.990285273333335,-76.94088634666667,-7.747,0,1,11.716929,5.784024999999999,39.69,1,1,1789167733.3021114,-0.868401453502592,0.495458062859261,0.004463448561981684,-0.01950131096281919,177.80529849409837,-0.6630434539834563,-59.4003035652016,0.0007775441817634738,0.023280248760651566,-0.07933254488600065,1.7469566598129271,0.29733763290405274,-10.25736380317688
2026-09-11T19:02:13.341,1.8048069759999947,-0.3452896773815155,-31.076070964336395,-124.30428385734558,-0.23652342900633813,-0.144209241271019,-0.5972710847854614,-0.4091306930780411,-0.91519929553964,-0.5382321287216913,0.0,-0.2176837921142578,-1783.265625,-78.36616516113281,0.0,0.0,328.71987003781226,1,1789167732.8443317,38.990285273333335,-76.94088634666667,-7.747,0,1,11.716929,5.784024999999999,39.69,1,1,1789167733.3341112,-0.8686309467993945,0.49506346210055135,0.005658727525448833,-0.018984877091940734,177.78862958420913,-0.5137636017647509,-59.350770698829734,-0.005116607235146576,0.021429327088911578,-0.08860338480674414,-0.49915849323272704,0.9632091788864136,-8.739882757148743
2026-09-11T19:02:13.374,1.8382266240000007,-0.3653534948825836,-32.881814539432526,-131.5272581577301,-0.2502671439945698,-0.15795295625925065,-0.5972710847854614,-0.4091306930780411,-0.91519929553964,0.0,0.0,-0.21904373168945312,-1794.40625,-78.85574340820312,-0.015258795581758022,-5.493166409432888,-164.3693676675442,1,1789167732.8443317,38.990285273333335,-76.94088634666667,-7.747,0,1,11.716929,5.784024999999999,39.69,1,1,1789167733.3621113,-0.8685714811166048,0.4951541495090357,0.0036281526867940348,-0.019818852715848576,177.82082866723317,-0.763440404061881,-59.35857159411037,-0.015163944140102333,0.0406586666556843,-0.07584432984296478,-0.1825017595100403,0.8023801162338258,-10.64266708803177
2026-09-11T19:02:13.408,1.8716472320000008,-0.38630983233451843,-34.76788491010666,-139.07153964042664,-0.2646222351491451,-0.172308047413826,-0.6493370532989502,-0.44479588150978094,-0.9949800499055576,-1.0671615678487862,0.0,-0.2191486358642578,-1795.265625,-78.89350891113281,0.0,0.0,164.36464619174095,1,1789167732.8443317,38.990285273333335,-76.94088634666667,-7.747,0,1,11.716929,5.784024999999999,39.69,1,1,1789167733.4021113,-0.8682409664490075,0.4957020353032367,0.0029657028533406652,-0.020695917049214602,177.77161288101928,-0.8805634793594145,-59.429281630692685,-0.02438312231498678,0.08188072559391238,-0.07099423438459775,-0.18730701808929442,0.6348825314712525,-9.426348268470765
2026-09-11T19:02:13.441,1.9050671999999906,-0.409328430891037,-36.83955878019333,-147.35823512077332,-0.28038997516036035,-0.18807578742504122,-0.7019431591033936,-0.48083106398582465,-1.0755884573770225,-1.0782530514707462,0.0,-0.2185821533203125,-1790.625,-78.6895751953125,0.03051757998764515,10.986328795552254,328.73546723789815,1,1789167732.8443317,38.990285273333335,-76.94088634666667,-7.747,0,1,11.716929,5.784024999999999,39.69,1,1,1789167733.4341114,-0.8685228842003481,0.49526765353788926,0.0011406602672192074,-0.019407469529468428,178.00302644239608,-0.9879659758664237,-59.36993254905176,0.0255170627300075,0.07071463263842825,-0.08169205550177178,-0.876518391456604,0.48552724950790405,-9.887555025577546
2026-09-11T19:02:13.475,1.9384905280000027,-0.4293234646320343,-38.63911181688309,-154.55644726753235,-0.2940865732729435,-0.2017723855376244,-0.5727864503860474,-0.3923587185144425,-0.877681456948913,2.6470238233413004,0.0,-0.2177257537841797,-1783.609375,-78.38127136230469,0.0,0.0,-328.70241992503867,1,1789167732.8443317,38.990285273333335,-76.94088634666667,-7.747,0,1,11.716929,5.784024999999999,39.69,1,1,1789167733.4621112,-0.8685126611665704,0.49532688903454986,-0.00047214569095636985,-0.018352315144509444,178.19967807631994,-1.0887380047026833,-59.376522992419915,-0.010666928789413744,0.08746368480519184,-0.07239154498374441,-0.04530672374725342,0.25850329826354984,-10.493115673065185
2026-09-11T19:02:13.508,1.971915679999995,-0.44972026348114014,-40.47482371330261,-161.89929485321045,-0.308058380484581,-0.21574419274926188,-0.6248834133148193,-0.42804513812065126,-0.9575097040995231,-1.0676516775815075,0.0,-0.2161388397216797,-1770.609375,-77.80998229980469,0.0457763709127903,16.479493528604507,493.0267341374618,1,1789167732.8443317,38.990285273333335,-76.94088634666667,-7.747,0,1,11.716929,5.784024999999999,39.69,1,1,1789167733.5021112,-0.8688280997414702,0.49485294211433745,-0.0023911915715480294,-0.015892796584563978,178.55286224247428,-1.1393594466584613,-59.31414704946013,-0.017456608645522082,0.08012771689320927,-0.07057326096901671,-0.5836918176269532,0.05727083694458007,-10.098201871051788
2026-09-11T19:02:13.541,2.005337439999991,-0.47125497460365295,-42.412947714328766,-169.65179085731506,-0.3228096576035023,-0.23049546986818314,-0.6511440873146057,-0.44603369981050495,-0.9977489705854162,-0.5382290367070991,0.0,-0.21559524536132812,-1766.15625,-77.61428833007812,0.015258789993822575,5.493164397776127,-328.7178512092034,1,1789167732.8443317,38.990285273333335,-76.94088634666667,-7.747,0,1,11.716929,5.784024999999999,39.69,1,1,1789167733.5341113,-0.8688899317998069,0.4947406574104583,-0.003242660104301474,-0.015857284680623064,178.60451174605436,-1.221954713142447,-59.298965514986854,-0.012124627780679409,0.031046265800325535,-0.05897607168828999,0.3925602059745789,0.9118223320388793,-9.457925681991577
2026-09-11T19:02:13.575,2.0387554879999925,-0.4911055564880371,-44.19950008392334,-176.79800033569336,-0.3364073061943054,-0.2440931184589863,-0.5738236904144287,-0.3930692279338837,-0.8792708212551076,1.5849062122544948,0.0,-0.21464920043945312,-1758.40625,-77.27371215820312,0.015258789993822575,5.493164397776127,0.0,1,1789167732.8443317,38.990285273333335,-76.94088634666667,-7.747,0,1,11.716929,5.784024999999999,39.69,1,1,1789167733.5621114,-0.868830383912753,0.49476107499607525,-0.005461526924429607,-0.017759909414178904,178.5407637403301,-1.550848345460615,-59.299507074448606,-0.009303128511905375,0.04097108059179129,-0.06889250889934617,0.6136021006202698,0.6291946743774414,-9.729471824970245
2026-09-11T19:02:13.608,2.0721779200000014,-0.5119847059249878,-46.0786235332489,-184.3144941329956,-0.3507095235586167,-0.25839533582329755,-0.6519226431846619,-0.4465670105814934,-0.9989419528039838,-1.6006549926586842,0.0,-0.21376609802246094,-1751.171875,-76.95579528808594,0.0610351599752903,21.972657591104507,493.0668478381218,1,1789167732.8443317,38.990285273333335,-76.94088634666667,-7.747,0,1,11.716929,5.784024999999999,39.69,1,1,1789167733.6021113,-0.8688838493067094,0.49464756343531274,-0.005810649006363025,-0.01819012808060836,178.5174792280703,-1.609820022713101,-59.28409113209898,-0.013069374504783939,0.0074918258141856596,-0.07242749876633549,-0.18642441957473754,0.5419154879379272,-9.692500753860473
2026-09-11T19:02:13.642,2.1055988479999996,-0.5344612002372742,-48.101508021354675,-192.4060320854187,-0.36610592216253285,-0.2737917344272137,-0.6782256960868835,-0.4645846018195153,-1.0392461565397162,-0.5391110395864189,0.0,-0.2103137969970703,-1722.890625,-75.71296691894531,0.1831054836511612,65.91797411441803,1314.9041380094504,1,1789167732.8443317,38.990285273333335,-76.94088634666667,-7.747,0,1,11.716929,5.784024999999999,39.69,1,1,1789167733.6341114,-0.869018317631536,0.4944793594863495,-0.005427756546555886,-0.016366616073445802,178.67717912585744,-1.468052563881375,-59.26359445255122,-0.0070556680341122766,-0.02799071787885906,-0.057954181411247314,0.37304497215270993,0.22829881576538086,-10.168319419708252
2026-09-11T19:02:13.675,2.1390212479999917,-0.5538362264633179,-49.84526038169861,-199.38104152679443,-0.3793778151273728,-0.2870636273920536,-0.5490689873695374,-0.3761122563481331,-0.8413391561116068,2.647097320102779,0.0,-0.2014789581298828,-1650.515625,-72.53242492675781,0.3204346001148224,115.35645604133606,1479.2020299837757,1,1789167732.8443317,38.990285273333335,-76.94088634666667,-7.747,0,1,11.716929,5.784024999999999,39.69,1,1,1789167733.6621113,-0.8691160886723822,0.4943511374936617,-0.004560711263289135,-0.015276687543945277,178.736462988841,-1.3197342266560272,-59.24767612883357,0.0027155577831779773,-0.06518577863396062,-0.056447089602150204,-0.768841372680664,0.46561974967956543,-9.72741242843628
2026-09-11T19:02:13.708,2.1724409280000003,-0.5745125412940979,-51.70612871646881,-206.82451486587524,-0.3935410907864571,-0.301226903051138,-0.6532629132270813,-0.4474850955605507,-1.000995650412827,-2.135652980890278,0.0,-0.19086265563964844,-1563.546875,-68.71055603027344,0.3662109673023224,131.83594822883606,493.1074201636806,1,1789167732.8443317,38.990285273333335,-76.94088634666667,-7.747,0,1,11.716929,5.784024999999999,39.69,1,1,1789167733.7021112,-0.8689438493846475,0.4947059849286163,-0.003559590496661212,-0.013780580825735533,178.8292961971261,-1.135724860258035,-59.29573346852147,0.005333028062393873,-0.08331329184394932,-0.04606307868448474,-0.23977259645462035,0.4818007224464417,-9.947767857570648
2026-09-11T19:02:13.742,2.2058632640000013,-0.5984256267547607,-53.85830640792847,-215.43322563171387,-0.40992155432701116,-0.317607366591692,-0.7320449352264404,-0.5014507806301117,-1.1217134498705064,-1.6146592826294188,0.0,-0.17958450317382812,-1471.15625,-64.65042114257812,0.2593994438648224,93.38379979133606,-1150.4925459877745,1,1789167732.8443317,38.990285273333335,-76.94088634666667,-7.747,0,1,11.716929,5.784024999999999,39.69,1,1,1789167733.7341113,-0.8686152333138121,0.4953072924227594,-0.0020066831394821953,-0.013199839044658069,178.7997841740217,-0.948977472238816,-59.375915418410464,0.006638185277035233,-0.09623693135619173,-0.05110114610329158,-0.27625333505630495,0.4621874221229553,-10.210978347911835
2026-09-11T19:02:13.775,2.239280383999997,-0.6183279752731323,-55.64951777458191,-222.59807109832764,-0.42355466306209566,-0.33124047532677653,-0.5774041414260864,-0.39552183687686926,-0.8847571512098891,3.169900450824486,0.0,-0.17298126220703125,-1417.0625,-62.27325439453125,0.2441406548023224,87.89063572883606,-164.38173195358243,1,1789167732.8443317,38.990285273333335,-76.94088634666667,-7.747,0,1,11.716929,5.784024999999999,39.69,1,1,1789167733.7621114,-0.8684846242499535,0.4955758975872988,0.0012381004268870325,-0.011724089699971336,178.76274490156308,-0.5425882662306187,-59.41415122947738,-0.002123193035051102,-0.08831645267771626,-0.03817087433989159,-0.45336143697738646,0.6801892552185059,-9.327693367843628
2026-09-11T19:02:13.809,2.272704927999996,-0.6396391987800598,-57.56752789020538,-230.27011156082153,-0.438152851164341,-0.34583866342902186,-0.6555030941963196,-0.44901961952447894,-1.0044282827587654,-1.6005538519122764,0.0,-0.16434288024902344,-1346.296875,-59.16343688964844,0.3356933891773224,120.84962010383606,986.0713245632024,1,1789167732.8443317,38.990285273333335,-76.94088634666667,-7.747,0,1,11.716929,5.784024999999999,39.69,1,1,1789167733.8021114,-0.8682681542511386,0.49597469261772986,0.0008438768429463827,-0.01089974623297787,178.86743210153318,-0.5355270288228473,-59.466705050350775,-0.0032934362985133,-0.049309216560269,-0.047222326373659376,-0.12503478956222533,0.4647371511650086,-9.622677404708861
2026-09-11T19:02:13.842,2.3061235520000025,-0.6640777587890625,-59.766998291015625,-239.0679931640625,-0.45489326477050784,-0.3625790770351887,-0.7344122529029846,-0.5030723932385445,-1.1253408939659626,-1.6174446235145712,0.0,-0.14851760864257812,-1216.65625,-53.466339111328125,0.19836431741714478,71.41115427017212,-1479.3686847685387,1,1789167733.8317633,38.990284896666665,-76.94088823833333,-7.759999999999998,0,1,8.850625,5.774409,48.539089,1,1,1789167733.8341112,-0.8678211061235473,0.4967822619301337,0.0013015570118287704,-0.00960301762091705,178.97085173523865,-0.4172418868535358,-59.57401992478982,4.171336912266448e-05,-0.04377722096314777,-0.045512252772555335,-0.3229329898262024,0.4052107846832276,-10.209213150882722
2026-09-11T19:02:13.875,2.339544703999991,-0.6833431124687195,-61.50088012218475,-246.003520488739,-0.46809003204107286,-0.3757758443057537,-0.5794242024421692,-0.39690557867288595,-0.8878524934522314,3.176635400410366,0.0,-0.1490497589111328,-1221.015625,-53.65791320800781,0.1068115383386612,38.45215380191803,-986.1718850465008,1,1789167733.8317633,38.990284896666665,-76.94088823833333,-7.759999999999998,0,1,8.850625,5.774409,48.539089,1,1,1789167733.8621113,-0.8675427764531998,0.4972705963164635,0.0015963562910835953,-0.009430626147498948,178.97142951364924,-0.37868955390384373,-59.63878094943911,-0.0052319734987034015,-0.02344727677006742,-0.03498076153309635,0.4350230011749267,0.29312077333450315,-9.37113682806015
2026-09-11T19:02:13.909,2.3729674880000005,-0.705113410949707,-63.46020698547363,-253.84082794189453,-0.48300268650054934,-0.3906884987652302,-0.6575696468353271,-0.4504352080821991,-1.0075948641781465,-1.601590980850001,0.0,-0.1488361358642578,-1219.265625,-53.58100891113281,0.0457763709127903,16.479493528604507,-657.4156202340051,1,1789167733.8317633,38.990284896666665,-76.94088823833333,-7.759999999999998,0,1,8.850625,5.774409,48.539089,1,1,1789167733.9021113,-0.8671970569066623,0.4978964016483402,0.0011866805628333139,-0.008187155018656465,179.11865719901206,-0.349193482330409,-59.72141432672608,-0.0020008454544862995,-0.0018678513654843316,-0.03692558191859363,0.10748088577270506,0.13464530672073363,-9.662394337863923
2026-09-11T19:02:13.942,2.4063894079999955,-0.7298696637153625,-65.68826973438263,-262.7530789375305,-0.49996071964502337,-0.40764653190970424,-0.7363516688346863,-0.5044008931517602,-1.1283126636358258,-1.6146793801663442,0.0,-0.148406982421875,-1215.75,-53.426513671875,0.0,0.0,-493.07441130273105,1,1789167733.8317633,38.990284896666665,-76.94088823833333,-7.759999999999998,0,1,8.850625,5.774409,48.539089,1,1,1789167733.9341114,-0.8669674867873823,0.49830635367999393,0.0006997417400791366,-0.007593753829026415,179.20558421679388,-0.364101366574257,-59.775415703319275,-0.008475144314759266,0.02284356738180258,-0.04373149333674552,0.39108920845031736,0.3350932360267639,-9.434389721603393
2026-09-11T19:02:13.976,2.4398141119999934,-0.7476508617401123,-67.28857755661011,-269.15431022644043,-0.5121408402919769,-0.4198266525566578,-0.5559374094009399,-0.3808171254396439,-0.8518636485317723,3.697378074376478,0.0,-0.148406982421875,-1215.75,-53.426513671875,0.0,0.0,0.0,1,1789167733.8317633,38.990284896666665,-76.94088823833333,-7.759999999999998,0,1,8.850625,5.774409,48.539089,1,1,1789167733.9621112,-0.8667009109997447,0.49875140226517833,0.0011710584125180301,-0.008671691468532205,179.07176691777943,-0.3793078081362017,-59.83430755628127,-0.014201220524702261,0.023685688745889846,-0.03891473366709157,-0.28507932020187376,0.689309439868927,-9.704661000061035
2026-09-11T19:02:14.009,2.4732334079999987,-0.7699301242828369,-69.29371118545532,-277.1748447418213,-0.5274021351337433,-0.43508794739842416,-0.6600693464279175,-0.4521475023031235,-1.0114251572636073,-2.1344069265692602,0.0,-0.1490936279296875,-1221.375,-53.6737060546875,-0.0457763746380806,-16.479494869709015,-493.1131664086048,1,1789167733.8317633,38.990284896666665,-76.94088823833333,-7.759999999999998,0,1,8.850625,5.774409,48.539089,1,1,1789167734.0021112,-0.8668216596553762,0.49854589498156837,-0.00043975200830732695,-0.00848572728156596,179.18216903130605,-0.5284706541887196,-59.80629499057575,0.0053134803747715365,0.05683106203758896,-0.06647452975363323,-0.9575213217926026,0.45600923252105713,-9.712408253688812
2026-09-11T19:02:14.043,2.5066511039999995,-0.7948660254478455,-71.53794229030609,-286.15176916122437,-0.5444832274317741,-0.45216903969645506,-0.7389785051345825,-0.5062002760171891,-1.1323377684708047,-1.6174895394962097,0.0,-0.1502227783203125,-1230.625,-54.0802001953125,-0.015258789993822575,-5.493164397776127,328.75786744641624,1,1789167733.8317633,38.990284896666665,-76.94088823833333,-7.759999999999998,0,1,8.850625,5.774409,48.539089,1,1,1789167734.0341113,-0.866800174267412,0.49856964900816464,0.0011053285712288514,-0.009194630313900571,179.02349346945383,-0.4155200391334862,-59.81011295026645,0.0009101892049150429,0.04661250833301256,-0.05393241921587678,-0.6619488859176637,0.5070038133621216,-11.318051084671021
2026-09-11T19:02:14.076,2.540076671999998,-0.8111568689346313,-73.00411820411682,-292.0164728164673,-0.5556424552202225,-0.46332826748490336,-0.5323277711868286,-0.36464452326297764,-0.8156865677858295,4.234954294694953,0.0,-0.1498870849609375,-1227.875,-53.9593505859375,0.030517585575580597,10.986330807209015,493.02064829491985,1,1789167733.8317633,38.990284896666665,-76.94088823833333,-7.759999999999998,0,1,8.850625,5.774409,48.539089,1,1,1789167734.0741112,-0.8669457554493161,0.4983390470578839,-0.0021598218494011676,-0.007654178952308964,179.36288140653943,-0.6516761508982404,-59.77880574289707,-0.008604647745257245,0.05204519469569531,-0.038145567065737664,-0.5197524585723877,-0.3806941592788696,-10.16498515865326
2026-09-11T19:02:14.110,2.573498271999995,-0.8273488283157349,-74.46139454841614,-297.84557819366455,-0.5667339473962785,-0.4744197596609593,-0.48023080825805664,-0.3289581036567688,-0.7358583206352193,1.0677651460795443,0.0,-0.14985084533691406,-1227.578125,-53.94630432128906,0.015258791856467724,5.493165068328381,-164.3597475549087,1,1789167733.8317633,38.990284896666665,-76.94088823833333,-7.759999999999998,0,1,8.850625,5.774409,48.539089,1,1,1789167734.1021113,-0.8669590584996276,0.4983341720133194,-0.002852009928334602,-0.006075354196024815,179.55926940695704,-0.6302814634774107,-59.77876086351139,0.0027949702641437194,0.03506750439692047,-0.021789388513598008,-0.5227925201225281,-0.11336487586975098,-9.617087614116668
2026-09-11T19:02:14.143,2.6069176959999965,-0.8451098799705505,-76.05988919734955,-304.2395567893982,-0.5789002677798272,-0.48658608004450804,-0.5590128302574158,-0.3829237887263298,-0.8565761200928986,-1.6147999758930125,0.0,-0.1481494903564453,-1213.640625,-53.33381652832031,0.030517593026161194,10.98633348941803,164.37052957852833,1,1789167733.8317633,38.990284896666665,-76.94088823833333,-7.759999999999998,0,1,8.850625,5.774409,48.539089,1,1,1789167734.1341114,-0.8669626126255516,0.4983076579588733,-0.004610998197105737,-0.006636642573383494,179.60392325186365,-0.8370813379452007,-59.775454471564636,-0.011423529020153285,0.0007475245186291714,-0.03581939223867962,0.6867597108268737,0.3394081620979309,-9.541674474372863
2026-09-11T19:02:14.176,2.640334655999993,-0.8637670278549194,-77.73903250694275,-310.956130027771,-0.5916804140806199,-0.4993662263453007,-0.5590128302574158,-0.3829237887263298,-0.8565761200928986,0.0,0.0,-0.14705276489257812,-1204.65625,-52.938995361328125,0.1220703199505806,43.945315182209015,986.2950338030216,1,1789167733.8317633,38.990284896666665,-76.94088823833333,-7.759999999999998,0,1,8.850625,5.774409,48.539089,1,1,1789167734.1741114,-0.8666374515697092,0.4988898291547842,-0.003746309098479424,-0.005867799486051842,179.631413190452,-0.7075151187014962,-59.85248044053996,-0.0009241518389309975,-0.009191776505628135,-0.0074153803929483085,-0.5399541579055785,0.43973019325256346,-9.657981345291137
2026-09-11T19:02:14.210,2.6737539519999984,-0.8714380860328674,-78.42942774295807,-313.7177109718323,-0.5969350889325142,-0.504620901197195,-0.3270518481731415,-0.22403051599860194,-0.5011419917649466,4.754536801963239,0.0,-0.13892364501953125,-1138.0625,-50.01251220703125,0.3814697563648224,137.32911229133606,2794.307728957317,1,1789167733.8317633,38.990284896666665,-76.94088823833333,-7.759999999999998,0,1,8.850625,5.774409,48.539089,1,1,1789167734.2021112,-0.866379200728152,0.4993324259486561,-0.003803578294942959,-0.0063041045385313155,179.59173078106826,-0.7383550428670275,-59.91084638490089,0.0003061307507998054,-0.017540384449617814,8.464846872172499e-05,0.45748023004531857,0.3711817086219788,-9.763893167037963
2026-09-11T19:02:14.243,2.7071748159999913,-0.8864261507987976,-79.77835357189178,-319.11341428756714,-0.6072019132971764,-0.5148877255618572,-0.5092825293540955,-0.3488585326075554,-0.7803743123826838,-3.7350326014605733,0.0,-0.12328338623046875,-1009.9375,-44.38201904296875,0.5187988877296448,186.76759958267212,1479.2701736061215,1,1789167733.8317633,38.990284896666665,-76.94088823833333,-7.759999999999998,0,1,8.850625,5.774409,48.539089,1,1,1789167734.2341113,-0.8659687150798906,0.5000759178135521,-0.0013262067816438383,-0.0045279246227235845,179.6266680416983,-0.39107648480232865,-60.0095080551271,0.001565734871964113,-0.03297118943235008,0.008538499766606658,-0.5237731851387024,0.22359162368774416,-9.551971457042693
2026-09-11T19:02:14.277,2.7405941439999992,-0.903486430644989,-81.31377875804901,-325.25511503219604,-0.6188882049918175,-0.5265740172564983,-0.5092825293540955,-0.3488585326075554,-0.7803743123826838,0.0,0.0,-0.1033477783203125,-846.625,-37.2052001953125,0.3204346299171448,115.35646677017212,-2136.821327241622,1,1789167733.8317633,38.990284896666665,-76.94088823833333,-7.759999999999998,0,1,8.850625,5.774409,48.539089,1,1,1789167734.2741113,-0.8651639452465552,0.5014802484129011,-0.0012428341896408527,-0.0027136065167553034,179.80238896397748,-0.2791547825260393,-60.19577617987362,-0.0013686871994139534,-0.036791017033264865,0.0168968815544075,-0.014808041744232179,0.3182257977485657,-9.746143130245208
2026-09-11T19:02:14.310,2.7740142399999996,-0.9156304597854614,-82.40674138069153,-329.6269655227661,-0.6272068649530411,-0.5348926772177219,-0.40407031774520874,-0.276788167655468,-0.6191574974397541,2.156497843455822,0.0,-0.08871269226074219,-726.734375,-31.936569213867188,0.7934570908546448,285.6445527076721,5095.379915650092,1,1789167733.8317633,38.990284896666665,-76.94088823833333,-7.759999999999998,0,1,8.850625,5.774409,48.539089,1,1,1789167734.3021114,-0.8645470982624092,0.502541038223692,-0.0012476485434837266,-0.003043544021999865,179.7703212510911,-0.2988740979088405,-60.33627453535332,-0.0006185446869067904,-0.014280109406892404,0.019697611405082804,0.15857353311538697,0.2695848129463196,-9.777426344261169
2026-09-11T19:02:14.344,2.8074349439999935,-0.9273432493209839,-83.46089243888855,-333.8435697555542,-0.635230125784874,-0.5429159380495548,-0.30074483156204224,-0.20601020961999894,-0.4608317144327101,2.117787765197347,0.0,-0.07062339782714844,-578.546875,-25.424423217773438,-0.2441406399011612,-87.89063036441803,-11176.759863351734,1,1789167733.8317633,38.990284896666665,-76.94088823833333,-7.759999999999998,0,1,8.850625,5.774409,48.539089,1,1,1789167734.3341112,-0.8639026945555842,0.5036488009792259,-0.0012866519583383863,-0.002892082040179552,179.78794999479007,-0.2942879728418027,-60.483185657013124,-0.00149278010923075,0.010231469141041158,0.02259485796339339,0.2340847393608093,0.20819518293380737,-9.742024337177277
2026-09-11T19:02:14.378,2.8408624959999997,-0.9355675578117371,-84.20108020305634,-336.80432081222534,-0.6408637771010399,-0.5485495893657208,-0.2749134600162506,-0.18831572011113168,-0.42125026868094906,0.5293384782967043,0.0,-0.07027816772460938,-575.71875,-25.300140380859375,0.10681155323982239,38.45215916633606,3779.6004185628217,1,1789167733.8317633,38.990284896666665,-76.94088823833333,-7.759999999999998,0,1,8.850625,5.774409,48.539089,1,1,1789167734.3741114,-0.8630876524415612,0.5050419831390061,-0.002206749810101332,-0.0027257522283572703,179.85812536913292,-0.37600485667298844,-60.66822550993545,-0.0034197981363576894,0.04304941866506613,0.013263455117605707,0.05736890344619751,0.1704395798110962,-9.823909866027831
2026-09-11T19:02:14.411,2.8742809279999904,-0.9447773694992065,-85.02996325492859,-340.11985301971436,-0.6471724981069565,-0.5548583103716374,-0.2749134600162506,-0.18831572011113168,-0.42125026868094906,0.0,0.0,-0.069671630859375,-570.75,-25.081787109375,0.0,0.0,-1150.6272695962173,1,1789167733.8317633,38.990284896666665,-76.94088823833333,-7.759999999999998,0,1,8.850625,5.774409,48.539089,1,1,1789167734.4021113,-0.8627081277268649,0.5056707098982071,-0.004081293626024251,-0.0038939115794396086,179.85153539681343,-0.6291205545404542,-60.75202493511163,-0.004121071429809011,0.07738458290784979,0.006511125307490046,0.20584158689498902,0.2045667223739624,-9.661805938854219
2026-09-11T19:02:14.444,2.9077047359999995,-0.9605282545089722,-86.4475429058075,-345.79017162323,-0.657961854338646,-0.5656476666033269,-0.40515586733818054,-0.27753176912665367,-0.6208208865574745,-2.6692365219276537,0.0,-0.06988525390625,-572.5,-25.15869140625,0.0,0.0,0.0,1,1789167733.8317633,38.990284896666665,-76.94088823833333,-7.759999999999998,0,1,8.850625,5.774409,48.539089,1,1,1789167734.4341114,-0.8623739734546505,0.5062266324504653,-0.004464353397926063,-0.0050789816536003065,179.75704432940577,-0.7358192680990191,-60.825603573261965,-0.007571238295151402,0.08225213165873677,0.003039141826497726,-0.13935249879837036,0.1689685822868347,-9.689754891815186
2026-09-11T19:02:14.477,2.9411297599999955,-0.9690197110176086,-87.21177399158478,-348.8470959663391,-0.663778502047062,-0.5714643143117428,-0.19507023692131042,-0.13362311229109766,-0.2989063893412167,4.305416709216816,0.0,-0.07025909423828125,-575.5625,-25.29327392578125,-0.0457763709127903,-16.479493528604507,-493.02862216662777,1,1789167733.8317633,38.990284896666665,-76.94088823833333,-7.759999999999998,0,1,8.850625,5.774409,48.539089,1,1,1789167734.4741113,-0.861938026234961,0.5069462165936468,-0.0057373212339448245,-0.005954456870760788,179.7451313006124,-0.9126233887821323,-60.92153818447086,-0.0036521014597981345,0.08046770703149776,-0.002968455991791956,0.21182364349365235,0.10149882917404175,-9.649939892158509
2026-09-11T19:02:14.511,2.974552320000001,-0.976394772529602,-87.87552952766418,-351.50211811065674,-0.6688304191827774,-0.5765162314474583,-0.2213309407234192,-0.15161169439554215,-0.33914570149324885,-0.5382167644980402,0.0,-0.07155799865722656,-586.203125,-25.760879516601562,-0.0305175818502903,-10.986329466104507,164.3549764739483,1,1789167733.8317633,38.990284896666665,-76.94088823833333,-7.759999999999998,0,1,8.850625,5.774409,48.539089,1,1,1789167734.5021112,-0.861668058192372,0.5073958732184098,-0.006199569882134277,-0.0062570492399325085,179.74260481481733,-0.9759974164108978,-60.98147596356517,-0.004143935243010137,0.07413128918213235,-0.0026598817800393584,0.10081236366271971,0.1995653307914734,-9.701522872009278
2026-09-11T19:02:14.544,3.0079736959999934,-0.9837538599967957,-88.53784739971161,-354.15138959884644,-0.673871394097805,-0.581557206362486,-0.2213309407234192,-0.15161169439554215,-0.33914570149324885,0.0,0.0,-0.07260704040527344,-594.796875,-26.138534545898438,-0.0762939527630806,-27.465822994709015,-493.0824370788368,1,1789167733.8317633,38.990284896666665,-76.94088823833333,-7.759999999999998,0,1,8.850625,5.774409,48.539089,1,1,1789167734.5341113,-0.861361340555785,0.5078821646466439,-0.0076530450245051495,-0.007333398368633245,179.72149808016633,-1.1822722259911675,-61.04665100366691,-0.0034625587030315506,0.05487053368882373,-0.00725777716149322,0.16494785572052004,0.21878636510848998,-9.768796492118836
2026-09-11T19:02:14.577,3.0413959999999918,-0.9911330938339233,-89.2019784450531,-356.8079137802124,-0.6789261692762375,-0.5866119815409184,-0.2213309407234192,-0.15161169439554215,-0.33914570149324885,0.0,0.0,-0.07640266418457031,-625.890625,-27.504959106445312,-0.1220703274011612,-43.94531786441803,-493.0687863323196,1,1789167733.8317633,38.990284896666665,-76.94088823833333,-7.759999999999998,0,1,8.850625,5.774409,48.539089,1,1,1789167734.5741112,-0.8610650333778855,0.5083372111599032,-0.008785254571664005,-0.009116323064902688,179.6121180415895,-1.3980230142543146,-61.10696056730874,-0.0015508995733221611,0.04337439897178748,-0.014838265701680191,0.24379332302093507,0.2126081755065918,-9.738984275627136
2026-09-11T19:02:14.611,3.0748180159999947,-0.998520016670227,-89.86680150032043,-359.46720600128174,-0.6839862114191055,-0.5916720236837865,-0.2213309407234192,-0.15161169439554215,-0.33914570149324885,0.0,0.0,-0.08091926574707031,-662.890625,-29.130935668945312,-0.1373291164636612,-49.43848192691803,-164.35765162997697,1,1789167733.8317633,38.990284896666665,-76.94088823833333,-7.759999999999998,0,1,8.850625,5.774409,48.539089,1,1,1789167734.6021113,-0.8609105170479484,0.5085975020155641,-0.00838820403515568,-0.00955513541645794,179.54609196775536,-1.3845395554809896,-61.140897854394765,-0.0024720843525247683,0.02579683900910219,-0.013237798777601392,0.2544825716972351,0.3282285809135437,-9.579822343502045
2026-09-11T19:02:14.644,3.1082414400000005,-1.0059617757797241,-90.53655982017517,-362.1462392807007,-0.6890838164091111,-0.5967696286737919,-0.2213309407234192,-0.15161169439554215,-0.33914570149324885,0.0,0.0,-0.08666610717773438,-709.96875,-31.199798583984375,-0.1831054836511612,-65.91797411441803,-493.05218362718205,1,1789167733.8317633,38.990284896666665,-76.94088823833333,-7.759999999999998,0,1,8.850625,5.774409,48.539089,1,1,1789167734.6341114,-0.8606974453932763,0.5089566580076221,-0.007075620922218769,-0.01062842188500409,179.3642170886753,-1.3178474966130016,-61.18692793435577,0.0004220206131322289,0.023579049128592995,-0.009859888543291567,0.08737725294113159,0.4867040475273132,-9.720743906326295
2026-09-11T19:02:14.678,3.1416653120000007,-1.0102781057357788,-90.92502951622009,-363.70011806488037,-0.6920405024290085,-0.5997263146936894,-0.09116610884666443,-0.06244878455996514,-0.13969395257687248,2.6676415537845677,0.0,-0.09383773803710938,-768.71875,-33.781585693359375,-0.3204346001148224,-115.35645604133606,-1479.1368853649797,1,1789167733.8317633,38.990284896666665,-76.94088823833333,-7.759999999999998,0,1,8.850625,5.774409,48.539089,1,1,1789167734.6741114,-0.8604424209378249,0.5093351879527158,-0.005825856757243973,-0.013511697038890791,179.00745284773143,-1.3631719381016327,-61.23464935366325,0.0005825909043157072,0.022485076753442947,-0.014799693925211117,0.12758451860427858,0.7941425300979614,-9.730060223979951
2026-09-11T19:02:14.710,3.175088352000003,-1.0140461921691895,-91.26415729522705,-365.0566291809082,-0.6946216416358948,-0.6023074539005757,-0.11719907075166702,-0.08028136346489191,-0.17958429551022687,-0.533541500262259,0.0,-0.10997581481933594,-900.921875,-39.59129333496094,-0.4425049424171448,-159.30177927017212,-1314.8212499172098,1,1789167733.8317633,38.990284896666665,-76.94088823833333,-7.759999999999998,0,1,8.850625,5.774409,48.539089,1,1,1789167734.7021112,-0.8603399148008036,0.5094420232458332,-0.005097040868421106,-0.016064747932144442,178.7132526157569,-1.4404811700507125,-61.246801645441785,-0.00040526545231308334,0.034018561516471875,-0.023307126831132275,0.16602658723831176,0.9694854349899292,-9.688872293300628
2026-09-11T19:02:14.744,3.2085083519999955,-1.017957091331482,-91.61613821983337,-366.4645528793335,-0.6973006075620651,-0.6049864198267461,-0.11719907075166702,-0.08028136346489191,-0.17958429551022687,0.0,0.0,-0.11293220520019531,-925.140625,-40.65559387207031,-0.0762939527630806,-27.465822994709015,3944.822150673036,1,1789167733.8317633,38.990284896666665,-76.94088823833333,-7.759999999999998,0,1,8.850625,5.774409,48.539089,1,1,1789167734.7341113,-0.8602007902379787,0.509588558516578,-0.00402938267646569,-0.018917335388473625,178.36979912504071,-1.5020245741674332,-61.26418336131004,-0.0006068509809184284,0.03382325917317371,-0.02330939575915987,0.07207887868881226,1.0136153607177734,-9.670435790996551
2026-09-11T19:02:14.778,3.2419290560000036,-1.046006679534912,-94.14060115814209,-376.56240463256836,-0.7165145754814148,-0.6242003877460957,-0.6958662867546082,-0.4766684064269066,-1.066276857612084,-11.860523433675095,0.0,-0.11942863464355469,-978.359375,-42.99430847167969,-0.1373291313648224,-49.43848729133606,-657.4566561081938,1,1789167733.8317633,38.990284896666665,-76.94088823833333,-7.759999999999998,0,1,8.850625,5.774409,48.539089,1,1,1789167734.7741113,-0.8599934448486325,0.5098120698524774,-0.0024382268362066165,-0.02229312225799977,177.94431313464895,-1.5428365633680803,-61.292026854078316,0.0032243212601343243,0.0332420645322596,-0.023259828408403228,0.2592878302764893,1.2799639791107178,-9.79262665201187
2026-09-11T19:02:14.811,3.2753548160000037,-1.0521601438522339,-94.69441294670105,-378.7776517868042,-0.7207296985387802,-0.6284155108034611,-0.2309018224477768,-0.15816774837672712,-0.3538111765764293,9.528598842634503,0.0,-0.12479400634765625,-1022.3125,-44.92584228515625,-0.2441406548023224,-87.89063572883606,-1150.3746941729944,1,1789167733.8317633,38.990284896666665,-76.94088823833333,-7.759999999999998,0,1,8.850625,5.774409,48.539089,1,1,1789167734.8021114,-0.859871800878836,0.5098983123560246,-0.0020821298192307976,-0.0248970248279039,177.66683042019625,-1.6601271831113897,-61.301514651662295,0.002667735761673333,0.007175746686649487,-0.030048984665735974,0.3398984946060181,1.392053990459442,-9.569819560337066
2026-09-11T19:02:14.845,3.3087768959999977,-1.0604089498519897,-95.43680548667908,-381.7472219467163,-0.7263801306486131,-0.6340659429132939,-0.2309018224477768,-0.15816774837672712,-0.3538111765764293,0.0,0.0,-0.13151168823242188,-1077.34375,-47.344207763671875,-0.04577639698982239,-16.47950291633606,2136.645379716426,1,1789167734.832066,38.990285373333336,-76.94088960166667,-7.765999999999998,0,1,8.850625,5.774409,48.525156,1,1,1789167734.8341112,-0.8596290061799602,0.5101880292367903,-0.00047096453509937235,-0.02731162298254146,177.33511278503383,-1.6433442598468713,-61.339859549419934,0.003287502179056519,-0.050208061125046076,-0.02269172373687908,0.13562597173690796,1.3219364418029786,-9.695540815410615
2026-09-11T19:02:14.878,3.342199616000002,-1.0879547595977783,-97.91592836380005,-391.6637134552002,-0.7452490103244782,-0.652934822589159,-0.6997745037078857,-0.4793455350399018,-1.0722654237649902,-9.609564591485459,0.0,-0.131439208984375,-1076.75,-47.318115234375,0.0,0.0,493.0628900440753,1,1789167734.832066,38.990285373333336,-76.94088960166667,-7.765999999999998,0,1,8.850625,5.774409,48.525156,1,1,1789167734.8741114,-0.858896822886171,0.5113962777648611,0.001091840835803288,-0.02772909316720554,177.2047655570127,-1.5176878686271345,-61.503004040122164,0.0029014353485153736,-0.08697656341096022,-0.029167767926404034,0.2792933966064453,0.8112061013793945,-9.541184141864775
2026-09-11T19:02:14.911,3.375620224000002,-1.1089692115783691,-99.80722904205322,-399.2289161682129,-0.7596439099311829,-0.6673297221958637,-0.647253155708313,-0.4433684116601944,-0.991786890793204,1.0764951786546564,0.0,-0.1316242218017578,-1078.265625,-47.38471984863281,0.0,0.0,0.0,1,1789167734.832066,38.990285373333336,-76.94088960166667,-7.765999999999998,0,1,8.850625,5.774409,48.525156,1,1,1789167734.9021113,-0.8583934509686767,0.5122183275782948,0.0029192023569008982,-0.02800975695324888,177.0713889363655,-1.3570383737780334,-61.615836482708374,0.004641354079828521,-0.10518610709579265,-0.03762755334374575,0.14092156282424928,1.1454167388916017,-9.582372072544098
2026-09-11T19:02:14.944,3.4090433279999957,-1.1261221170425415,-101.35099053382874,-405.40396213531494,-0.771393650174141,-0.6790794624388219,-0.5441592931747437,-0.37274911582469944,-0.8338160250194592,2.112888612485206,0.0,-0.13161659240722656,-1078.203125,-47.38197326660156,-0.0457763709127903,-16.479493528604507,-493.0569443402899,1,1789167734.832066,38.990285373333336,-76.94088960166667,-7.765999999999998,0,1,8.850625,5.774409,48.525156,1,1,1789167734.9341114,-0.85845392691528,0.511989587725899,0.005500118097786774,-0.029887558028544186,176.7347256922833,-1.2125288477201883,-61.58989391623079,-0.005613327940264163,-0.09501240835299252,-0.041012619427988756,-0.23104467781066895,2.4346970356559754,-9.975030345020294
2026-09-11T19:02:14.978,3.442467776000001,-1.1586307287216187,-104.27676558494568,-417.1070623397827,-0.7936620491743088,-0.7013478614389896,-0.9362744688987732,-0.6413480111956597,-1.4346546420804827,-8.036000934732515,0.0,-0.1317462921142578,-1079.265625,-47.42866516113281,0.0,0.0,493.0371184769285,1,1789167734.832066,38.990285373333336,-76.94088960166667,-7.765999999999998,0,1,8.850625,5.774409,48.525156,1,1,1789167734.9741113,-0.857674778846916,0.5131579559144099,0.007438224809784616,-0.03174206709269882,176.43993372372682,-1.1355754457266103,-61.74996986587819,-0.0104653432608084,-0.05749027289606722,-0.03904563336099115,0.2674273499107361,1.4001935100936889,-10.385830920295714
2026-09-11T19:02:15.011,3.475888544,-1.1873408555984497,-106.86067700386047,-427.4427080154419,-0.8133284860849381,-0.7210142983496189,-0.8587804436683655,-0.5882646039128304,-1.3159104418236172,1.5883359497552711,0.0,-0.1318683624267578,-1080.265625,-47.47261047363281,0.0,0.0,0.0,1,1789167734.832066,38.990285373333336,-76.94088960166667,-7.765999999999998,0,1,8.850625,5.774409,48.525156,1,1,1789167735.0021112,-0.8573504866526422,0.5135859615200765,0.008104335749103776,-0.03337548363757089,176.2405823098859,-1.1681039296969522,-61.80812813949167,-0.004710818184057894,-0.0458639366168322,-0.05025832660750351,-0.25026571212768556,1.5300335582351683,-9.339069082031251
2026-09-11T19:02:15.045,3.5093111679999964,-1.2218081951141357,-109.96273756027222,-439.85095024108887,-0.836938613653183,-0.7446244259178639,-1.06844162940979,-0.7318825161457062,-1.6371745618864204,-4.2970268352625824,0.0,-0.1319904327392578,-1081.265625,-47.51655578613281,0.0,0.0,0.0,1,1789167734.832066,38.990285373333336,-76.94088960166667,-7.765999999999998,0,1,8.850625,5.774409,48.525156,1,1,1789167735.0341113,-0.8574358651532293,0.5133360269273881,0.007857404643392038,-0.03504456876047073,176.0904727809576,-1.289541120052672,-61.77283487326176,-0.005291314693271209,-0.018805224558538104,-0.04955932224207978,1.1845452730369568,1.9335772123908999,-9.54147834136963
2026-09-11T19:02:15.078,3.542733951999992,-1.2595242261886597,-113.35718035697937,-453.4287214279175,-0.862774094939232,-0.7704599072039128,-1.0939555168151855,-0.7493595290184022,-1.676269526258056,-0.5229071543740453,0.0,-0.13173294067382812,-1079.15625,-47.423858642578125,0.015258789993822575,5.493164397776127,164.3538849958423,1,1789167734.832066,38.990285373333336,-76.94088960166667,-7.765999999999998,0,1,8.850625,5.774409,48.525156,1,1,1789167735.0741112,-0.8572235221389625,0.5136399450926882,0.008931462992174283,-0.03552560858974455,175.98040610156423,-1.2137427530287621,-61.81666306394978,0.08069180730745384,-0.0028178340773448453,-0.06298317311794377,-0.051681046352386475,1.3968592490386964,-10.07329297964096
2026-09-11T19:02:15.112,3.5761598400000025,-1.3028593063354492,-117.25733757019043,-469.0293502807617,-0.8924586248397828,-0.8001444371044636,-1.3026946783065796,-0.892345854640007,-1.9961208273085318,-4.277712102115558,0.0,-0.1308135986328125,-1071.625,-47.0928955078125,0.0762939602136612,27.46582567691803,657.3546012939099,1,1789167734.832066,38.990285373333336,-76.94088960166667,-7.765999999999998,0,1,8.850625,5.774409,48.525156,1,1,1789167735.1021113,-0.8573416490323676,0.5133558653409969,0.008731839961909717,-0.03680770741755356,175.865535197937,-1.3075209448536504,-61.77715285612889,0.09105469974117018,0.04193851659617174,-0.04322168266223798,0.9693873684883118,1.9008230008506775,-7.773731583213806
2026-09-11T19:02:15.145,3.6095805439999964,-1.3497252464294434,-121.4752721786499,-485.9010887145996,-0.9245617938041688,-0.8322476060688496,-1.4335739612579346,-0.9819981634616852,-2.1966673305782125,-2.682538010620442,0.0,-0.13007545471191406,-1065.578125,-46.82716369628906,0.0,0.0,-821.8206796877491,1,1789167734.832066,38.990285373333336,-76.94088960166667,-7.765999999999998,0,1,8.850625,5.774409,48.525156,1,1,1789167735.1341114,-0.8573778157804515,0.5132060451903476,0.008477862017302698,-0.038091495681327685,175.7538361251069,-1.4073321591491028,-61.75530446350551,-0.022971325483048567,0.0574637438914369,-0.041915129184195016,1.2850634371948242,0.8436661134147644,-10.209017017879486
2026-09-11T19:02:15.179,3.643003071999999,-1.3998225927352905,-125.98403334617615,-503.9361333847046,-0.958878476023674,-0.866564288288355,-1.4851207733154297,-1.0173077297210693,-2.275652580800528,-1.0564600696686157,0.0,-0.128997802734375,-1056.75,-46.439208984375,0.0,0.0,0.0,1,1789167734.832066,38.990285373333336,-76.94088960166667,-7.765999999999998,0,1,8.850625,5.774409,48.525156,1,1,1789167735.1741114,-0.8575944003058074,0.5127433446172931,0.009397971824632699,-0.039214604937162015,175.58843506981566,-1.3806616341830835,-61.69600910766605,-0.013802412790621556,0.03270363045801935,-0.08521378086644595,-0.9228057802200318,0.84994236951828,-8.955040661697387
2026-09-11T19:02:15.212,3.6764264959999906,-1.4532761573791504,-130.79485416412354,-523.1794166564941,-0.9954941678047181,-0.9031799800693989,-1.5633410215377808,-1.07088859975338,-2.3955095735356537,-1.6030933884070093,0.0,-0.13040924072265625,-1068.3125,-46.94732666015625,-0.0305175818502903,-10.986329466104507,-328.7014958762839,1,1789167734.832066,38.990285373333336,-76.94088960166667,-7.765999999999998,0,1,8.850625,5.774409,48.525156,1,1,1789167735.2061114,-0.8575185547616658,0.5129167904339939,0.00841304622820082,-0.03882673027073923,175.68476096907176,-1.4555310724750063,-61.715886214252436,-0.0281018953522111,0.04275480708732949,-0.08964255384338156,0.11767980194091797,0.7827668159103394,-9.533142688732147
2026-09-11T19:02:15.246,3.709850367999991,-1.507800817489624,-135.70207357406616,-542.8082942962646,-1.0328435599803925,-0.9405293722450734,-1.6153751611709595,-1.1065319854021074,-2.4752415564649835,-1.0664050427409275,0.0,-0.1308917999267578,-1072.265625,-47.12104797363281,0.0,0.0,328.6970900949012,1,1789167734.832066,38.990285373333336,-76.94088960166667,-7.765999999999998,0,1,8.850625,5.774409,48.525156,1,1,1789167735.2341113,-0.8577691182933721,0.5125179352039092,0.006930471663971695,-0.038851954378732255,175.76859752519485,-1.6007748846477257,-61.65758093137943,-0.01543569190463785,0.01966165762249172,-0.06523080812866207,1.3986244460678101,0.29194397531509403,-10.581767790527344
2026-09-11T19:02:15.279,3.743273247999994,-1.5630607604980469,-140.67546844482422,-562.7018737792969,-1.0706966209411621,-0.9783824332058431,-1.641408085823059,-1.1243645387887955,-2.5151318423156637,-0.5335432909039047,0.0,-0.1308917999267578,-1072.265625,-47.12104797363281,-0.015258789993822575,-5.493164397776127,-164.35341292478603,1,1789167734.832066,38.990285373333336,-76.94088960166667,-7.765999999999998,0,1,8.850625,5.774409,48.525156,1,1,1789167735.2741113,-0.8580090614753707,0.5121515880032057,0.007737880045553777,-0.03822730103406393,175.78212648346698,-1.482865917751957,-61.61193435443015,-0.05526986502168003,-0.04614109490204889,-0.07510570650352079,1.3990167120742798,-0.00029419950485229493,-15.609931527957915
2026-09-11T19:02:15.312,3.776700415999997,-1.6188867092132568,-145.69980382919312,-582.7992153167725,-1.108937395811081,-1.0166232080757618,-1.6681561470031738,-1.1426869606971741,-2.5561179328408485,-0.5481296503603608,0.0,-0.1315326690673828,-1077.515625,-47.35176086425781,0.015258789993822575,5.493164397776127,328.6646597028891,1,1789167734.832066,38.990285373333336,-76.94088960166667,-7.765999999999998,0,1,8.850625,5.774409,48.525156,1,1,1789167735.3021114,-0.8582092146790868,0.5117703818936927,0.008477879974882143,-0.038680041460943684,175.6934838185982,-1.4347795314579417,-61.56329071749892,-0.2028350098168478,-0.08396813937929759,-0.04957153954684375,4.469380811214447,-0.9347698934173584,-11.524383004074096
2026-09-11T19:02:15.345,3.810121952000003,-1.673627257347107,-150.62645316123962,-602.5058126449585,-1.1464346712827684,-1.0541204835474491,-1.6421232223510742,-1.124854407310486,-2.5162276469901683,0.5335647465958768,0.0,-0.13142776489257812,-1076.65625,-47.313995361328125,-0.1068115308880806,-38.452151119709015,-1314.8801873581585,1,1789167734.832066,38.990285373333336,-76.94088960166667,-7.765999999999998,0,1,8.850625,5.774409,48.525156,1,1,1789167735.3341112,-0.8588013479958002,0.5106337936881802,0.011971352091955014,-0.03962398457126547,175.3941828413523,-1.1405285888693109,-61.42462985445974,-0.042118809107902756,-0.04080213272019824,-0.11432517465801056,-1.4843345684814453,1.1040326752090455,-10.207153754348754
2026-09-11T19:02:15.379,3.8435448639999947,-1.7273187637329102,-155.4586887359619,-621.8347549438477,-1.1832133531570435,-1.0908991654217244,-1.6429870128631592,-1.1254461038112642,-2.5175512343666404,-0.01770331982977176,0.0,-0.1326007843017578,-1086.265625,-47.73628234863281,0.0,0.0,1150.4727990104045,1,1789167734.832066,38.990285373333336,-76.94088960166667,-7.765999999999998,0,1,8.850625,5.774409,48.525156,1,1,1789167735.3741114,-0.8593358121835533,0.5097647082866017,0.017092645389368052,-0.03727929127413651,175.32518886722642,-0.49450822009205364,-61.33331236946756,-0.06384327137332658,-0.14458098084010787,-0.07498667504853478,-1.5418996049308777,2.1817835279846194,-7.820607370986938
2026-09-11T19:02:15.412,3.8769691840000036,-1.7836319208145142,-160.52687287330627,-642.1074914932251,-1.2217878657579424,-1.129473678022623,-1.7218961715698242,-1.1794988775253297,-2.6384638455738374,-1.6171689869547439,0.0,-0.131805419921875,-1079.75,-47.449951171875,0.0,0.0,0.0,1,1789167734.832066,38.990285373333336,-76.94088960166667,-7.765999999999998,0,1,8.850625,5.774409,48.525156,1,1,1789167735.4021113,-0.8597332457098932,0.5090405253215686,0.019478148804167976,-0.03683872311354517,175.22897173791347,-0.2299160753121492,-61.24922921493532,-0.059574719621724045,-0.17319495579485408,-0.08989702284832232,0.08943664947509765,2.402531223125458,-7.536018383293152
2026-09-11T19:02:15.446,3.910394592000003,-1.8415309190750122,-165.7377827167511,-662.9511308670044,-1.2614486795663835,-1.1691344918310642,-1.8006783723831177,-1.2334646850824358,-2.759181919028352,-1.6145145500425042,0.0,-0.13127899169921875,-1075.4375,-47.26043701171875,-0.015258795581758022,-5.493166409432888,-164.3410428807029,1,1789167734.832066,38.990285373333336,-76.94088960166667,-7.765999999999998,0,1,8.850625,5.774409,48.525156,1,1,1789167735.4421113,-0.8599020797700356,0.5086593649034962,0.024356244844870593,-0.035225516890400106,175.10323787267785,0.34677869750227813,-61.2261506749728,-0.03906465744983788,-0.11535928223981722,-0.08107490707826659,-1.8249195285987854,2.0871493539237975,-10.307181585998535
2026-09-11T19:02:15.480,3.9438124480000027,-1.9042279720306396,-171.38051748275757,-685.5220699310303,-1.3043961608409882,-1.2120819731056691,-1.9053609371185303,-1.3051722419261933,-2.919587155346707,-2.145785679480992,0.0,-0.13229751586914062,-1083.78125,-47.627105712890625,-0.015258789993822575,-5.493164397776127,6.019706234802872e-05,1,1789167734.832066,38.990285373333336,-76.94088960166667,-7.765999999999998,0,1,8.850625,5.774409,48.525156,1,1,1789167735.4741113,-0.8602863387828174,0.5079749861814252,0.022973713459560185,-0.03662017487006825,175.04645257275035,0.13313706408295836,-61.12708042821148,-0.05513180947784728,-0.01738068682306033,-0.09782570457428218,2.6803536222076416,1.154831123046875,-9.69642341392517
2026-09-11T19:02:15.513,3.977235424,-1.9718793630599976,-177.46914267539978,-709.8765707015991,-1.3507373636960984,-1.2584231759607793,-2.0101916790008545,-1.3769813001155855,-3.0802194437088044,-2.148493844156739,0.0,-0.13365745544433594,-1094.921875,-48.11668395996094,-0.030517585575580597,-10.986330807209015,-164.35300104435234,1,1789167734.832066,38.990285373333336,-76.94088960166667,-7.765999999999998,0,1,8.850625,5.774409,48.525156,1,1,1789167735.5021112,-0.8607902210345374,0.5069997001085278,0.02396780704535431,-0.03764364071941017,174.8875732671187,0.1771518846563453,-61.003511670991685,-0.05507421361253147,0.013786181228578009,-0.10173384583534788,-3.0324123630142212,2.5499251750564573,-9.000935784454345
2026-09-11T19:02:15.547,4.010655200000002,-2.04116153717041,-183.7045383453369,-734.8181533813477,-1.398195652961731,-1.305881465226412,-2.088841438293457,-1.430856385231018,-3.2007345768410356,-1.6120719993882908,0.0,-0.133636474609375,-1094.75,-48.109130859375,0.0,0.0,328.7374160499533,1,1789167734.832066,38.990285373333336,-76.94088960166667,-7.765999999999998,0,1,8.850625,5.774409,48.525156,1,1,1789167735.5421114,-0.861258141307687,0.5061093700934641,0.022266799664952746,-0.03989873641490223,174.76359791396234,-0.1163863562691992,-60.87503900796484,-0.08490922091197294,0.025905398488576235,-0.09303529937633334,0.8800487855148316,1.8508090850257874,-9.644742367572784
2026-09-11T19:02:15.580,4.0440804480000025,-2.114445447921753,-190.30009031295776,-761.200361251831,-1.4483951318264008,-1.3560809440910817,-2.1669819355010986,-1.4843826258182526,-3.3204693669878558,-1.6013715317006467,0.0,-0.13230323791503906,-1083.828125,-47.62916564941406,0.0610351637005806,21.972658932209015,657.3671175815595,1,1789167734.832066,38.990285373333336,-76.94088960166667,-7.765999999999998,0,1,8.850625,5.774409,48.525156,1,1,1789167735.5741112,-0.8619010786782757,0.5049817394947339,0.024630884161471387,-0.03890106548054744,174.7250929719325,0.18163456162585612,-60.739837957633675,0.04803844233189193,0.017564819059145732,-0.10702184440304029,-2.1657986882209777,2.0797943663024903,-9.378589882183075
2026-09-11T19:02:15.613,4.077505344000002,-2.189666271209717,-197.0699644088745,-788.279857635498,-1.4999213957786561,-1.407607208043337,-2.2715210914611816,-1.5559919476509096,-3.4806548578447294,-2.1423947536787478,0.0,-0.1268634796142578,-1039.265625,-45.67085266113281,0.12207034230232239,43.94532322883606,657.3742008539765,1,1789167734.832066,38.990285373333336,-76.94088960166667,-7.765999999999998,0,1,8.850625,5.774409,48.525156,1,1,1789167735.6021113,-0.8623804430859896,0.5040474202874241,0.02682560791778246,-0.0389429870996863,174.59400894383472,0.40162005572643766,-60.63015130288644,-0.03451475862281386,0.08912401652261404,-0.09680957388377108,-1.7273433594894407,2.143537592353821,-9.091941497955323
2026-09-11T19:02:15.647,4.110925983999991,-2.26853084564209,-204.1677761077881,-816.6711044311523,-1.5539436292648316,-1.4616294415295126,-2.3500752449035645,-1.6098015427589418,-3.6010234940026398,-1.6100707559176184,0.0,-0.12372970581054688,-1013.59375,-44.542694091796875,0.1831054836511612,65.91797411441803,657.4575138474155,1,1789167734.832066,38.990285373333336,-76.94088960166667,-7.765999999999998,0,1,8.850625,5.774409,48.525156,1,1,1789167735.6421113,-0.8626339269467495,0.5035263410943239,0.025938359821726358,-0.04063414074828554,174.4780675085533,0.21943752519704288,-60.55548661199503,-0.06867818246720127,0.06704403068855898,-0.0814117556239015,-2.111469846324921,1.865715193271637,-8.338006233520508
2026-09-11T19:02:15.680,4.144344735999994,-2.3514864444732666,-211.633780002594,-846.535120010376,-1.6107682144641877,-1.5184540267288686,-2.4554572105407715,-1.6819881892204287,-3.76250042327404,-2.160064099984363,0.0,-0.11524581909179688,-944.09375,-41.488494873046875,0.2441406548023224,87.89063572883606,657.4949781014005,1,1789167734.832066,38.990285373333336,-76.94088960166667,-7.765999999999998,0,1,8.850625,5.774409,48.525156,1,1,1789167735.6741114,-0.8628583054584298,0.5030357899301404,0.027061123940979523,-0.041209638700403915,174.3562426668253,0.3002303866722373,-60.49811855762388,-0.09979687943148456,0.03500746507065187,-0.061953952458042715,1.8296267206764223,1.0886362344551086,-11.370124397029876
2026-09-11T19:02:15.714,4.177770015999997,-2.4369680881500244,-219.3271279335022,-877.3085117340088,-1.6693231403827669,-1.5770089526474478,-2.5596683025360107,-1.7533727872371674,-3.922183221271397,-2.135646971894694,0.0,-0.11442375183105469,-937.359375,-41.19255065917969,-0.015258791856467724,-5.493165068328381,-2793.8075850720193,1,1789167734.832066,38.990285373333336,-76.94088960166667,-7.765999999999998,0,1,8.850625,5.774409,48.525156,1,1,1789167735.7021112,-0.8630300145724833,0.5026369517843517,0.02764369124087442,-0.0420846169346216,174.23597984775512,0.3098630083309059,-60.44946299818721,-0.08455509360674328,0.0017444565873683323,-0.07970866333980543,-0.9168237236213684,2.5631641527748106,-11.906352027873993
2026-09-11T19:02:15.747,4.211190751999993,-2.5244698524475098,-227.20228672027588,-908.8091468811035,-1.7292618489265443,-1.6369476611912253,-2.6126294136047363,-1.7896511483192445,-4.0033356037921495,-1.0855045526849243,0.0,-0.114349365234375,-936.75,-41.165771484375,0.0,0.0,164.36397655422533,1,1789167734.832066,38.990285373333336,-76.94088960166667,-7.765999999999998,0,1,8.850625,5.774409,48.525156,1,1,1789167735.7421112,-0.8634180137119264,0.5018635869798042,0.02445712424017977,-0.04521197557524597,174.1097966814753,-0.18031270599760665,-60.325499821029624,-0.08296160799967246,0.030169063318273185,-0.05581789840680625,4.341502093105316,0.959678784828186,-11.830154356117248
2026-09-11T19:02:15.780,4.244642335999998,-2.618351697921753,-235.65165281295776,-942.606611251831,-1.7935709130764008,-1.7012567253410817,-2.770320415496826,-1.8976694846153261,-4.2449657404601915,-3.229094810459947,0.0,-0.113983154296875,-933.75,-41.033935546875,0.0,0.0,0.0,1,1789167734.832066,38.990285373333336,-76.94088960166667,-7.765999999999998,0,1,8.850625,5.774409,48.525156,1,1,1789167735.7741113,-0.8635828342760355,0.5015326480480798,0.024598142524861758,-0.04565766824944773,174.0573776377828,-0.18979578191158,-60.28259007012372,-0.0903645965549316,0.024910386282014266,-0.09572938960971178,-1.3722445571327209,1.9836891947174071,-7.701750771026611
2026-09-11T19:02:15.814,4.278061248,-2.7120871543884277,-244.0878438949585,-976.351375579834,-1.8577797007560732,-1.765465513020754,-2.79720139503479,-1.9160829555988312,-4.286155501965885,-0.5509895409971469,0.0,-0.114349365234375,-936.75,-41.165771484375,-0.0610351599752903,-21.972657591104507,-657.4917098169818,1,1789167734.832066,38.990285373333336,-76.94088960166667,-7.765999999999998,0,1,8.850625,5.774409,48.525156,1,1,1789167735.8021114,-0.86380554725985,0.5010956935386022,0.025223822502629587,-0.04590034006991598,173.99718404234486,-0.13888337980970852,-60.22896658043912,-0.025684788871124152,-0.007478561311870502,-0.10490964694227677,-2.0576313369369506,1.2382857159233092,-11.102108648109438
2026-09-11T19:02:15.848,4.311487839999998,-2.810105085372925,-252.90945768356323,-1011.6378307342529,-1.9249219834804536,-1.8326077957451345,-2.9028844833374023,-1.9884758710861208,-4.4480938419070295,-2.1657282766754733,0.0,-0.11396408081054688,-933.59375,-41.027069091796875,0.0305175818502903,10.986329466104507,986.0109896100421,1,1789167735.838287,38.99028633166667,-76.94089553,-7.792999999999999,0,1,12.559936,6.061444000000001,51.825601,1,1,1789167735.8421113,-0.864112970839527,0.5005622176444776,0.026844316157940574,-0.045006917065513304,173.99261114354954,0.0765196328979395,-60.169611135450246,-0.08495302867619799,-0.12621924444450153,-0.12163810422386681,0.05942829998016358,0.5601558572387695,-9.866274594726564
2026-09-11T19:02:15.881,4.344916576000003,-2.906299114227295,-261.56692028045654,-1046.2676811218262,-1.9908148932456973,-1.898500705510378,-2.904606342315674,-1.9896553444862368,-4.450732248761262,-0.03528321860915922,0.0,-0.113494873046875,-929.75,-40.858154296875,0.0,0.0,-328.64926349901333,1,1789167735.838287,38.99028633166667,-76.94089553,-7.792999999999999,0,1,12.559936,6.061444000000001,51.825601,1,1,1789167735.8741114,-0.8647972197030103,0.4995459935289544,0.027611278262163863,-0.04262847001526888,174.18495559983876,0.29602285723697247,-60.040382106992475,-0.045827284702540313,-0.14991383436957653,-0.11534689040212805,1.0044951760673522,-1.741268802719116,-9.691029756336212
2026-09-11T19:02:15.914,4.378333663999996,-2.9990503787994385,-269.91453409194946,-1079.6581363677979,-2.0543495094776154,-1.9620353217422963,-2.8013288974761963,-1.9189102947711947,-4.292480079570492,2.1170321517858395,0.0,-0.11429023742675781,-936.265625,-41.14448547363281,0.0,0.0,0.0,1,1789167735.838287,38.99028633166667,-76.94089553,-7.792999999999999,0,1,12.559936,6.061444000000001,51.825601,1,1,1789167735.9021113,-0.8650555393652639,0.49929637194560894,0.028132328470779785,-0.03988256348627038,174.42792662836868,0.5068229963259325,-60.01038877007509,-0.021789388513598008,-0.13857617554862137,-0.0772261070117687,0.017553903789520264,1.0211664813423156,-7.648402594146728
2026-09-11T19:02:15.948,4.411756416000003,-3.089050054550171,-278.0145049095154,-1112.0580196380615,-2.115999287366867,-2.0236850996315483,-2.69816255569458,-1.8482413506507875,-4.134398153746388,2.1143963285965306,0.0,-0.11506271362304688,-942.59375,-41.422576904296875,-0.0762939527630806,-27.465822994709015,-821.7702418610911,1,1789167735.838287,38.99028633166667,-76.94089553,-7.792999999999999,0,1,12.559936,6.061444000000001,51.825601,1,1,1789167735.9421113,-0.8658970160719033,0.4979317420243416,0.029855108361777138,-0.037349837310024996,174.58184454526975,0.8312510839205001,-59.84121057714547,-0.09913033819014794,-0.18552623055896963,-0.1000932363384732,2.9881843707847593,0.29518016986846923,-12.606546849422454
2026-09-11T19:02:15.981,4.445197055999998,-3.180157423019409,-286.2141680717468,-1144.8566722869873,-2.1784078347682954,-2.0860936470329765,-2.6998467445373535,-1.8493950200080873,-4.136978838600763,-0.03449902146908506,0.0,-0.11863136291503906,-971.828125,-42.70729064941406,-0.1983642727136612,-71.41113817691803,-1314.129011353123,1,1789167735.838287,38.99028633166667,-76.94089553,-7.792999999999999,0,1,12.559936,6.061444000000001,51.825601,1,1,1789167735.9741113,-0.8664573412002098,0.49699849504843974,0.02988883959916453,-0.036753626586565426,174.64011865643846,0.8744715242145598,-59.717954808997085,-0.11501196171867033,-0.10979552165030969,-0.133759939477743,0.832878798236847,0.7098053387069703,-6.041681031646728
2026-09-11T19:02:16.014,4.47861843199999,-3.2696335315704346,-294.2670178413391,-1177.0680713653564,-2.239698969125748,-2.1473847813904285,-2.673766613006592,-1.8315301299095155,-4.097016217585705,0.5345348467572306,0.0,-0.12717247009277344,-1041.796875,-45.78208923339844,-0.3051758110523224,-109.86329197883606,-1150.525753395866,1,1789167735.838287,38.99028633166667,-76.94089553,-7.792999999999999,0,1,12.559936,6.061444000000001,51.825601,1,1,1789167736.0021112,-0.8669651480818534,0.4959824007000835,0.032838311109683785,-0.03597965439877693,174.5497100535339,1.2175577238259567,-59.60487049366701,-0.03939452467846481,-0.13295778615352644,-0.12615990324993373,-4.007977921104431,1.9800607341575622,-7.425791635475159
2026-09-11T19:02:16.048,4.512037952,-3.3596081733703613,-302.3647356033325,-1209.45894241333,-2.3013315987586975,-2.2090174110233787,-2.6740212440490723,-1.8317045521736146,-4.097406389078411,-0.005219173228672609,0.0,-0.1326007843017578,-1086.265625,-47.73628234863281,0.0,0.0,3287.3988608694726,1,1789167735.838287,38.99028633166667,-76.94089553,-7.792999999999999,0,1,12.559936,6.061444000000001,51.825601,1,1,1789167736.0421114,-0.8679918110980177,0.4940326460288433,0.03609333624258386,-0.034917497095329986,174.47287611410607,1.6134718045254304,-59.372131293765804,-0.036645282040723336,-0.07041862479729002,-0.122685825373839,1.5681814273643493,1.0101830331611634,-7.108742635746003
2026-09-11T19:02:16.081,4.545463359999999,-3.4506852626800537,-310.56167364120483,-1242.2466945648193,-2.363719404935837,-2.2714052172005177,-2.726372718811035,-1.8675653123855591,-4.177624625057169,-1.072859311453885,0.0,-0.1323566436767578,-1084.265625,-47.64839172363281,0.0,0.0,0.0,1,1789167735.838287,38.99028633166667,-76.94089553,-7.792999999999999,0,1,12.559936,6.061444000000001,51.825601,1,1,1789167736.0741112,-0.8687488785945875,0.4926950881627314,0.037657721895349903,-0.03329912945735382,174.5478013586244,1.8691807687255357,-59.206908423669304,-0.04660238542335099,-0.016566839792855375,-0.148850056190486,-1.2156323540496827,0.6201725562286378,-8.37536957063675
2026-09-11T19:02:16.114,4.5788816000000025,-3.5440359115600586,-318.9632320404053,-1275.852928161621,-2.4276645994186405,-2.3353504116833212,-2.804969310760498,-1.9214039778709413,-4.298058289797198,-1.6110562819998033,0.0,-0.132537841796875,-1085.75,-47.713623046875,0.0,0.0,0.0,1,1789167735.838287,38.99028633166667,-76.94089553,-7.792999999999999,0,1,12.559936,6.061444000000001,51.825601,1,1,1789167736.1021113,-0.8692933861772874,0.4917391969508582,0.03815609515869068,-0.03264480560199074,174.5868494477754,1.961745077230296,-59.084426052153,0.024199339144751777,-0.03556300337156166,-0.12135379008871693,-3.6595476408576966,0.7423634172439576,-13.802271703643799
2026-09-11T19:02:16.149,4.6123004159999965,-3.639711856842041,-327.5740671157837,-1310.2962684631348,-2.493202621936798,-2.4008884342014793,-2.8577075004577637,-1.9575296378135683,-4.378869089597275,-1.0809976015497818,0.0,-0.13166427612304688,-1078.59375,-47.399139404296875,0.0762939602136612,27.46582567691803,821.8671085451678,1,1789167735.838287,38.99028633166667,-76.94089553,-7.792999999999999,0,1,12.559936,6.061444000000001,51.825601,1,1,1789167736.1421113,-0.8698731136544046,0.49061395280080056,0.03837251742678362,-0.03385654094405289,174.4561043868812,1.9219152918528453,-58.93961075486422,0.002511005194844242,0.030953065218269033,-0.14896193179553885,1.3978399140548705,0.21966896362304686,-12.144947826309204
2026-09-11T19:02:16.182,4.645743967999991,-3.739903450012207,-336.59131050109863,-1346.3652420043945,-2.561833863258362,-2.469519675523043,-2.9886083602905273,-2.047196726799011,-4.579448655151684,-2.681147295163454,0.0,-0.12827682495117188,-1050.84375,-46.179656982421875,0.2593994438648224,93.38379979133606,1971.0219211891524,1,1789167735.838287,38.99028633166667,-76.94089553,-7.792999999999999,0,1,12.559936,6.061444000000001,51.825601,1,1,1789167736.1741114,-0.8707206646680933,0.48895257864743924,0.03817493021155611,-0.036243270510763766,174.2323011897114,1.7785701533899818,-58.722319111869915,-0.17515216801804054,0.08597631521664227,-0.09084281676997806,0.4508117079353332,2.8212751850318907,-5.399639645557404
2026-09-11T19:02:16.215,4.679167968000002,-3.8416359424591064,-345.7472348213196,-1382.9889392852783,-2.6315206205844883,-2.539206432849169,-3.0681588649749756,-2.1016888225078585,-4.701344001672907,-1.630328378076523,0.0,-0.1224212646484375,-1002.875,-44.0716552734375,0.0610351637005806,21.972658932209015,-2136.522883529919,1,1789167735.838287,38.99028633166667,-76.94089553,-7.792999999999999,0,1,12.559936,6.061444000000001,51.825601,1,1,1789167736.2021112,-0.8712822005103547,0.48800525994056065,0.035758257235146265,-0.03794127546202515,174.20048676345954,1.4485906027324849,-58.57976589425766,-0.020328896995529155,0.14045746594934608,-0.119053969733364,0.7157873953056335,-0.08110099683761596,-13.920441838092803
2026-09-11T19:02:16.249,4.712584448000001,-3.9433248043060303,-354.8992323875427,-1419.596929550171,-2.701177490949631,-2.608863303214312,-3.0424540042877197,-2.0840809929370883,-4.661956408681742,0.5269205365367753,0.0,-0.11905860900878906,-975.328125,-42.86109924316406,0.1983642876148224,71.41114354133606,1479.4641628659745,1,1789167735.838287,38.99028633166667,-76.94089553,-7.792999999999999,0,1,12.559936,6.061444000000001,51.825601,1,1,1789167736.2421112,-0.8718273447214665,0.48702721285807155,0.031195022499380526,-0.041814417404513506,174.07046942242107,0.7829040927458012,-58.41844943631015,-0.021502979983345737,0.23794579837921775,-0.10419510914651028,-0.9107436005210876,2.4091997452354432,-7.880329870471955
2026-09-11T19:02:16.282,4.746006207999997,-4.045159339904785,-364.06434059143066,-1456.2573623657227,-2.770934147834778,-2.678619960099459,-3.069239377975464,-2.102428973913193,-4.702999673213114,-0.5489830869501455,0.0,-0.11568069458007812,-947.65625,-41.645050048828125,0.015258817933499813,5.493174456059933,-1972.3069367168,1,1789167735.838287,38.99028633166667,-76.94089553,-7.792999999999999,0,1,12.559936,6.061444000000001,51.825601,1,1,1789167736.2741113,-0.8723395090335991,0.486250971513747,0.02654246755945238,-0.04335056051324001,174.17753974435928,0.23775421240599076,-58.28357670864258,0.033223913108038856,0.23778679888436105,-0.09374180865754064,-0.9184908541488647,-4.076526405735016,-11.013848796653747
2026-09-11T19:02:16.315,4.779424223999996,-4.138418197631836,-372.45763778686523,-1489.830551147461,-2.834816465377808,-2.7425022776424886,-2.8625242710113525,-1.9608291256427766,-4.386249833667623,4.237230847888197,0.0,-0.11572265625,-948.0,-41.66015625,0.0457763709127903,16.479493528604507,328.75437825348337,1,1789167735.838287,38.99028633166667,-76.94089553,-7.792999999999999,0,1,12.559936,6.061444000000001,51.825601,1,1,1789167736.3021114,-0.8729429803318398,0.4854075335783401,0.02403992925065325,-0.04209704545905007,174.44305397007307,0.06317026897620058,-58.156321981396665,0.03682540001952916,0.1383848874626028,-0.07652448465246697,0.5203408575820924,2.0133052782058716,-6.549567443523407
2026-09-11T19:02:16.349,4.812843200000003,-4.238196849822998,-381.4377164840698,-1525.7508659362793,-2.9031648421287537,-2.810850654393435,-2.993425130844116,-2.05049621462822,-4.586829399222033,-2.6831189856153603,0.0,-0.10734176635742188,-879.34375,-38.643035888671875,0.2746582329273224,98.87696385383606,2465.5893204272265,1,1789167735.838287,38.99028633166667,-76.94089553,-7.792999999999999,0,1,12.559936,6.061444000000001,51.825601,1,1,1789167736.3421113,-0.8732365223020716,0.48467052754824264,0.021837287770104744,-0.045558629333393184,174.21841555955712,-0.34512982518874463,-58.04555499307388,-0.03131452290635706,0.0839393414466397,-0.043111901452287535,-2.6149432656288147,2.9810255161666865,-13.306545537967681
2026-09-11T19:02:16.382,4.846265055999993,-4.340180397033691,-390.6162357330322,-1562.464942932129,-2.9730235719680786,-2.88070938423276,-3.0982930660247803,-2.1223307502269746,-4.747518678925761,-2.1493281402079156,0.0,-0.09029579162597656,-739.703125,-32.50648498535156,0.9765625596046448,351.5625214576721,7560.488490044177,1,1789167735.838287,38.99028633166667,-76.94089553,-7.792999999999999,0,1,12.559936,6.061444000000001,51.825601,1,1,1789167736.3741114,-0.8730729046074689,0.4848430224130724,0.021978188886422726,-0.04677505821383024,174.08859565044037,-0.399927718453277,-58.06875056509034,-0.07109179828978424,0.00642350977903993,-0.014342068595338204,-0.9789978856468201,2.539039793376922,-11.02748004037857
2026-09-11T19:02:16.415,4.879687071999996,-4.446615219116211,-400.195369720459,-1600.781478881836,-3.045931425094605,-2.9536172373592855,-3.12459135055542,-2.1403450751304627,-4.787815576079233,-0.5389957596659191,0.0,-0.0669708251953125,-548.625,-24.1094970703125,0.0,0.0,-10518.890346340604,1,1789167735.838287,38.99028633166667,-76.94089553,-7.792999999999999,0,1,12.559936,6.061444000000001,51.825601,1,1,1789167736.4021113,-0.872779459231825,0.48541850836408523,0.021714380052605585,-0.04640444999696048,174.14072831849307,-0.40952094779354004,-58.14251721499655,-0.0007866198938738443,-0.01931119550869126,0.013785657629802411,0.17269510934829713,0.9450668760871886,-8.51472206943512
2026-09-11T19:02:16.449,4.913102815999991,-4.555351734161377,-409.9816560745239,-1639.9266242980957,-3.1204159379005434,-3.028101750165224,-3.25624942779541,-2.230530858039856,-4.989555426896594,-2.6989009405089166,0.0,-0.0513458251953125,-420.625,-18.4844970703125,0.5035400986671448,181.27443552017212,5424.8211717265995,1,1789167735.838287,38.99028633166667,-76.94089553,-7.792999999999999,0,1,12.559936,6.061444000000001,51.825601,1,1,1789167736.4421113,-0.8713760992424081,0.4878405641303359,0.026842473982174368,-0.04466272773350321,174.02892978725225,0.1835301524386221,-58.49420415835764,-0.04193415327304176,-0.11195431940210147,0.08463660048281141,-1.4812945069313048,2.0525318788528444,-7.659876374835967
2026-09-11T19:02:16.483,4.9465343039999965,-4.668405532836914,-420.15649795532227,-1680.625991821289,-3.1978577899932863,-3.1055436022579674,-3.361859083175659,-2.3028734719753268,-5.15138124547093,-2.1639064924498683,0.0,-0.033290863037109375,-272.71875,-11.984710693359375,0.3204346299171448,115.35646677017212,-1971.733018583858,1,1789167735.838287,38.99028633166667,-76.94089553,-7.792999999999999,0,1,12.559936,6.061444000000001,51.825601,1,1,1789167736.4741113,-0.8702513607759962,0.48969090081998334,0.029385950460370416,-0.04474211256948688,173.87737565706658,0.4197936565846806,-58.755412403228306,-0.00475864020556254,-0.04577911361518527,0.12124575420801847,-4.089961516456603,2.9542533612251285,-8.845696512393951
2026-09-11T19:02:16.516,4.9799573760000015,-4.782395839691162,-430.4156255722046,-1721.6625022888184,-3.275941150188446,-3.1836269624531273,-3.4669768810272217,-2.374879163503647,-5.3124533900851025,-2.154370834862498,0.0,-0.0307769775390625,-252.125,-11.0797119140625,-0.0457763709127903,-16.479493528604507,-3944.4596923573245,1,1789167735.838287,38.99028633166667,-76.94089553,-7.792999999999999,0,1,12.559936,6.061444000000001,51.825601,1,1,1789167736.5141113,-0.8687319811160471,0.4922538133372883,0.03304119037072728,-0.04357990339561704,173.78502410922198,0.8309972883642752,-59.11991941057382,0.034345112619520016,0.03070261047060785,0.13914707274694874,-2.8724658988761904,1.1868008025741577,-10.867729709243775
2026-09-11T19:02:16.549,5.013378079999995,-4.899796485900879,-440.9816837310791,-1763.9267349243164,-3.3563605928421025,-3.2640464051067832,-3.4934604167938232,-2.3930203855037693,-5.353034147959392,-0.5428138796874411,0.0,-0.030242919921875,-247.75,-10.887451171875,0.0,0.0,493.0923516335124,1,1789167735.838287,38.99028633166667,-76.94089553,-7.792999999999999,0,1,12.559936,6.061444000000001,51.825601,1,1,1789167736.5421114,-0.8672364021156432,0.49479390806622886,0.03122196906611329,-0.04588245888896247,173.6568416764603,0.5012833856819168,-59.44083619379208,-0.07999035948107731,0.02318163765791388,0.1647622229809183,0.07600153875350953,2.621905987243652,-9.704464867057801
2026-09-11T19:02:16.583,5.046811808000001,-5.020063400268555,-451.8057060241699,-1807.2228240966797,-3.43874342918396,-3.346429241448641,-3.546776533126831,-2.4295419251918795,-5.434730505529431,-1.0923561885801083,0.0,-0.0312957763671875,-256.375,-11.2664794921875,-0.0610351637005806,-21.972658932209015,-657.2003855569232,1,1789167735.838287,38.99028633166667,-76.94089553,-7.792999999999999,0,1,12.559936,6.061444000000001,51.825601,1,1,1789167736.5741112,-0.8657153160588147,0.49750784911476115,0.029888604493618978,-0.04614762108510692,173.70526924654428,0.33417597379080666,-59.788475207216074,-0.017198648982077323,0.06974091344874062,0.146814478683885,0.7094130727005005,1.8115824843788146,-9.989740320262909
2026-09-11T19:02:16.616,5.080248191999999,-5.142822265625,-462.85400390625,-1851.416015625,-3.5228332519531254,-3.430519064217806,-3.6511998176574707,-2.5010718750953678,-5.594738446437377,-2.139284855189259,0.0,-0.03431129455566406,-281.078125,-12.352066040039062,-0.0915527492761612,-32.95898973941803,-328.5741307196872,1,1789167735.838287,38.99028633166667,-76.94089553,-7.792999999999999,0,1,12.559936,6.061444000000001,51.825601,1,1,1789167736.6021113,-0.8644479137545117,0.4995932472606401,0.028258908208734272,-0.048351068280773075,173.5791881611887,0.03122471571307599,-60.05184774956854,-0.04498551240430344,0.07572512385505357,0.13021185964136375,-1.9372056729507445,1.5607283732414248,-8.197575003204346
2026-09-11T19:02:16.650,5.113675200000003,-5.2658586502075195,-473.92727851867676,-1895.709114074707,-3.607113175392151,-3.514798987656832,-3.650765895843506,-2.5007746386528016,-5.594073547451679,0.008892104329712968,0.0,-0.0373992919921875,-306.375,-13.4637451171875,-0.0915527492761612,-32.95898973941803,0.0,1,1789167735.838287,38.99028633166667,-76.94089553,-7.792999999999999,0,1,12.559936,6.061444000000001,51.825601,1,1,1789167736.6421113,-0.8630422811970627,0.5020252708928992,0.026974926598280373,-0.04900001618467892,173.58882532162576,-0.15111713045599295,-60.36402685990489,-0.03512248226835829,0.08029649023187713,0.0988023908236982,0.0328522780418396,0.5004333577537536,-9.599239510822295
2026-09-11T19:02:16.683,5.147107808000001,-5.388016700744629,-484.9215030670166,-1939.6860122680664,-3.690791440010071,-3.598477252274752,-3.6510252952575684,-2.5009523272514347,-5.594471025526646,-0.005314829122307957,0.0,-0.039306640625,-322.0,-14.150390625,-0.015258789993822575,-5.493164397776127,821.5280525420972,1,1789167735.838287,38.99028633166667,-76.94089553,-7.792999999999999,0,1,12.559936,6.061444000000001,51.825601,1,1,1789167736.6741114,-0.8620558722478949,0.5039338411813777,0.024109688814972503,-0.04826054019950481,173.82828122662082,-0.4052244074616699,-60.596886725902245,-0.046186298929675546,0.06704071456298019,0.08222996597723645,-0.06080123100280761,0.8840695120811461,-12.16191333108902
2026-09-11T19:02:16.717,5.180532287999995,-5.505751609802246,-495.51764488220215,-1982.0705795288086,-3.771439852714539,-3.6791256649792197,-3.5219993591308594,-2.4125695610046387,-5.396764408117027,2.64425254325012,0.0,-0.03914070129394531,-320.640625,-14.090652465820312,-0.015258789993822575,-5.493164397776127,0.0,1,1789167735.838287,38.99028633166667,-76.94089553,-7.792999999999999,0,1,12.559936,6.061444000000001,51.825601,1,1,1789167736.7141113,-0.8609778718669634,0.50593802293017,0.022987739168408943,-0.04706787606075698,174.0124178240944,-0.46083416802613675,-60.85560191072044,-0.032594198313919305,0.0022956315651481416,0.09917693848117617,-3.7654594626045226,-0.23604606939315798,-8.843539049358368
2026-09-11T19:02:16.750,5.213947519999991,-5.617672443389893,-505.59051990509033,-2022.3620796203613,-3.8481056237220765,-3.7557914359867577,-3.3671796321868896,-2.3065180480480194,-5.159533929957089,3.1737476177520616,0.0,-0.03897285461425781,-319.265625,-14.030227661132812,0.0457763709127903,16.479493528604507,657.5641290290416,1,1789167735.838287,38.99028633166667,-76.94089553,-7.792999999999999,0,1,12.559936,6.061444000000001,51.825601,1,1,1789167736.7421112,-0.860244293359958,0.5074728279458275,0.021823173543571293,-0.04443910141731383,174.34091709065365,-0.4329741131353045,-61.05276380859636,0.06001558979077781,-0.014069797232027087,0.10854097898397616,1.6366318454933169,-0.7521700674057007,-11.95567947818756
2026-09-11T19:02:16.783,5.247367359999998,-5.727832794189453,-515.5049514770508,-2062.019805908203,-3.923565464019776,-3.8312512762844566,-3.316009759902954,-2.271466685533524,-5.0811262650624585,1.0488189804166466,0.0,-0.03805351257324219,-311.734375,-13.699264526367188,-0.015258789993822575,-5.493164397776127,-657.4734626609707,1,1789167735.838287,38.99028633166667,-76.94089553,-7.792999999999999,0,1,12.559936,6.061444000000001,51.825601,1,1,1789167736.7741113,-0.8593755107117653,0.5091347059067405,0.02243760462728999,-0.04185853232901045,174.56061130891285,-0.2325417029742434,-61.27796692235743,0.002125636496003894,-0.07268074604079987,0.07765999586381449,-0.26301435733795164,0.16406525720596313,-8.762732252025604
2026-09-11T19:02:16.817,5.280791711999996,-5.832971572875977,-524.9674415588379,-2099.8697662353516,-3.9955855274200442,-3.903271339684725,-3.160295248031616,-2.164802244901657,-4.8425247067413535,3.1912194029034753,0.0,-0.038074493408203125,-311.90625,-13.706817626953125,-0.0915527418255806,-32.958987057209015,-821.7308942723895,1,1789167735.838287,38.99028633166667,-76.94089553,-7.792999999999999,0,1,12.559936,6.061444000000001,51.825601,1,1,1789167736.8141112,-0.858139735631457,0.5114197709972778,0.022567163327082626,-0.039201213027582844,174.81551472085255,-0.07820828409144977,-61.583238421094656,-0.04475652520644179,-0.08543648487900042,0.07403948486347744,-0.0905153809928894,1.3566519833755493,-17.904393466300963
2026-09-11T19:02:16.850,5.314207392,-5.938374996185303,-534.4537496566772,-2137.814998626709,-4.067786872386932,-3.9754726846516135,-3.1351892948150635,-2.1476046669483186,-4.804054820482096,0.5146559325842273,0.0,-0.042835235595703125,-350.90625,-15.420684814453125,-0.3509521782398224,-126.34278416633606,-2794.6101084614907,1,1789167736.837944,38.99028873333334,-76.94090772833333,-7.745999999999999,0,1,13.198689,6.365529,54.937744,1,1,1789167736.8461113,-0.8573478596598162,0.5127726291908213,0.022403928665768298,-0.038947943075389624,174.85018719549657,-0.0874882694586292,-61.76265181457042,0.03745668560997551,-0.05287509875501862,0.07989105024663884,-0.4916073726081848,2.043411694202423,-7.008322538089752
2026-09-11T19:02:16.884,5.347629087999991,-6.043251037597656,-543.8925933837891,-2175.5703735351562,-4.139626960754395,-4.047312773019076,-3.1362059116363525,-2.1483010494709016,-4.8056125838200145,-0.020836241302151948,0.0,-0.05548858642578125,-454.5625,-19.97589111328125,-0.5187988877296448,-186.76759958267212,-1807.9517992250578,1,1789167736.837944,38.99028873333334,-76.94090772833333,-7.745999999999999,0,1,13.198689,6.365529,54.937744,1,1,1789167736.8741114,-0.8569402286800977,0.5136015691779067,0.02192357375421341,-0.03723210337246217,175.04741250824887,-0.038419620161880455,-61.87052112870987,0.03697218220962188,-0.034883023094984665,0.027610061568999096,-0.016965504779815673,0.513672335472107,-10.677480696105956
2026-09-11T19:02:16.917,5.381063871999999,-6.14473819732666,-553.0264377593994,-2212.1057510375977,-4.209145665168762,-4.116831477433443,-3.0592565536499023,-2.0955907392501834,-4.687702977921844,1.576511163365255,0.0,-0.07745933532714844,-634.546875,-27.885360717773438,-0.13732916116714478,-49.43849802017212,4107.372177504365,1,1789167736.837944,38.99028873333334,-76.94090772833333,-7.745999999999999,0,1,13.198689,6.365529,54.937744,1,1,1789167736.9141114,-0.8562286136741946,0.5148600289338018,0.02037047267138651,-0.037104657052662575,175.15177830130648,-0.19044272439274593,-62.02988377672903,0.009389347776953895,-0.06086853219622744,0.0017722073224750424,0.24408752252578733,1.1229595100212098,-9.785761996898652
2026-09-11T19:02:16.950,5.4145077759999936,-6.248220920562744,-562.339882850647,-2249.359531402588,-4.28003133058548,-4.187717142850161,-3.08667254447937,-2.1143706929683685,-4.7297125379571545,-0.561535929483233,0.0,-0.07619667053222656,-624.203125,-27.430801391601562,-0.2288818508386612,-82.39746630191803,-985.5000266042764,1,1789167736.837944,38.99028873333334,-76.94090772833333,-7.745999999999999,0,1,13.198689,6.365529,54.937744,1,1,1789167736.9421113,-0.8556873155788627,0.5155868785831167,0.021443128156522155,-0.03885332476405973,174.91665912038707,-0.19293263407438388,-62.13282814763177,0.00404759306830005,-0.08079006934434113,-0.01549433496750486,0.03108708101272583,1.538075011367798,-9.776837945251465
2026-09-11T19:02:16.984,5.4479264,-6.352309703826904,-571.7078733444214,-2286.8314933776855,-4.35133214712143,-4.259017959386111,-3.114157199859619,-2.133197681903839,-4.771827312777015,-0.5633681666685909,0.0,-0.07930183410644531,-649.640625,-28.548660278320312,-0.1983642727136612,-71.41113817691803,328.7486679582577,1,1789167736.837944,38.99028873333334,-76.94090772833333,-7.745999999999999,0,1,13.198689,6.365529,54.937744,1,1,1789167736.9741113,-0.8555883643822405,0.5158087702052903,0.022526055815012717,-0.03744916717962222,174.99052869267553,-0.0049936271209391125,-62.16883127773046,0.007724827269326903,-0.10456564254670868,-0.030993905922765703,0.6353728639793396,0.8495501035118103,-8.02939095293045
2026-09-11T19:02:17.017,5.48136268799999,-6.453311920166016,-580.7980728149414,-2323.1922912597656,-4.420518665313721,-4.328204477578402,-3.0373411178588867,-2.0805786657333374,-4.654121925853023,1.5737098618877006,0.0,-0.08349037170410156,-683.953125,-30.056533813476562,-0.2288818508386612,-82.39746630191803,-328.574993880997,1,1789167736.837944,38.99028873333334,-76.94090772833333,-7.745999999999999,0,1,13.198689,6.365529,54.937744,1,1,1789167737.0141113,-0.8554170745840135,0.5159842265627831,0.02592109551742351,-0.03674239044634378,174.858728736072,0.36839764516572376,-62.21297003704,-0.01157624532970279,-0.09911655008905718,-0.04302585672016421,1.0866749044227602,1.514440984477997,-10.502824256725312
2026-09-11T19:02:17.051,5.514778784000001,-6.558221340179443,-590.2399206161499,-2360.9596824645996,-4.492381618022919,-4.4000674302876,-3.1427648067474365,-2.152793892621994,-4.8156627877192015,-2.1610910768461395,0.0,-0.08750534057617188,-716.84375,-31.501922607421875,-0.1373291164636612,-49.43848192691803,986.3206155198275,1,1789167736.837944,38.99028873333334,-76.94090772833333,-7.745999999999999,0,1,13.198689,6.365529,54.937744,1,1,1789167737.0421114,-0.8555369294803822,0.5156801187141156,0.02837458897894152,-0.0364068696615279,174.74636425109088,0.6304049337264209,-62.188379607695225,-0.038196181614045505,-0.09841283333465306,-0.07736555881900305,-1.092362761516571,1.4530513544654846,-6.058450403423309
2026-09-11T19:02:17.084,5.548203615999995,-6.663445472717285,-599.7100925445557,-2398.8403701782227,-4.5644601488113405,-4.472145961076022,-3.169985294342041,-2.171439926624298,-4.857372777881835,-0.5578497448336367,0.0,-0.08987617492675781,-736.265625,-32.35542297363281,-0.015258789993822575,-5.493164397776127,1314.7505881001684,1,1789167736.837944,38.99028873333334,-76.94090772833333,-7.745999999999999,0,1,13.198689,6.365529,54.937744,1,1,1789167737.0741112,-0.8554272748619056,0.5158845818674449,0.028702304085538588,-0.03582531722073958,174.78388027129077,0.6957030196471408,-62.21772837599568,-0.018511485645427456,-0.06931156245275001,-0.06696392007589244,-0.6593991568756103,1.7579401079940795,-8.293778241291045
2026-09-11T19:02:17.117,5.581658144000002,-6.77155065536499,-609.4395589828491,-2437.7582359313965,-4.638512198925019,-4.546198011189699,-3.222501754760742,-2.2074137020111086,-4.937843821606805,-1.075303629655241,0.0,-0.09077072143554688,-743.59375,-32.677459716796875,-0.0305175818502903,-10.986329466104507,-164.19795455871346,1,1789167736.837944,38.99028873333334,-76.94090772833333,-7.745999999999999,0,1,13.198689,6.365529,54.937744,1,1,1789167737.1141114,-0.8555170676296188,0.5154333032647517,0.03071807523654013,-0.03841167444627801,174.4106385196433,0.7427094813079449,-62.17263712865702,0.013370618333678159,0.025823018947882102,-0.06960687216218744,-0.1289574496269226,2.211007345466614,-10.282763027095795
2026-09-11T19:02:17.151,5.615072159999997,-6.884459018707275,-619.6013116836548,-2478.405246734619,-4.715854427814484,-4.623540240079165,-3.353672742843628,-2.2972658288478853,-5.138837305046266,-2.6890550012542906,0.0,-0.08836746215820312,-723.90625,-31.812286376953125,0.1220703274011612,43.94531786441803,1643.9702228708823,1,1789167736.837944,38.99028873333334,-76.94090772833333,-7.745999999999999,0,1,13.198689,6.365529,54.937744,1,1,1789167737.1421113,-0.8553749473515172,0.5156755866036475,0.03180031008270264,-0.037431659100510474,174.44244643432802,0.9051500562254488,-62.2125395794833,-0.03972648630219413,0.02838149709838059,-0.04857984346586057,-1.6717396530723574,2.8915888666915897,-13.299484749851228
2026-09-11T19:02:17.184,5.648492703999992,-6.9998860359191895,-629.989743232727,-2519.958972930908,-4.794921934604645,-4.702607746869326,-3.458038091659546,-2.3687560927867892,-5.298756470979749,-2.1391113184427804,0.0,-0.08519935607910156,-697.953125,-30.671768188476562,0.1525879055261612,54.93164598941803,328.72978144825225,1,1789167736.837944,38.99028873333334,-76.94090772833333,-7.745999999999999,0,1,13.198689,6.365529,54.937744,1,1,1789167737.1741114,-0.8556700456420117,0.5150311991437049,0.032993151039329864,-0.03851089305756337,174.26633867014147,0.9622636381014703,-62.13599295713715,0.03063855688705966,0.0671600950838166,-0.048593282501100926,-2.8867836081123355,2.6765290286445618,-8.488047980995178
