timestamp,time_s,drive_pos_turns,drive_encoder_count,drive_wheel_angle_deg,drive_distance_m,drive_distance_since_start_m,drive_velocity_turns_s,drive_velocity_mps,drive_velocity_mph,drive_acceleration_mps2,drive_iq_A,steer_pos_turns,steer_encoder_count,steer_angle_deg,steer_velocity_turns_s,steer_velocity_deg_s,steer_acceleration_deg_s2,gps_received,gps_ros_stamp_s,gps_latitude_deg,gps_longitude_deg,gps_altitude_m,gps_status,gps_service,gps_cov_x_m2,gps_cov_y_m2,gps_cov_z_m2,gps_covariance_type,imu_received,imu_ros_stamp_s,imu_qx,imu_qy,imu_qz,imu_qw,imu_roll_deg,imu_pitch_deg,imu_yaw_deg,imu_gyro_x_rad_s,imu_gyro_y_rad_s,imu_gyro_z_rad_s,imu_accel_x_mps2,imu_accel_y_mps2,imu_accel_z_mps2
2026-09-11T19:19:29.026,6.81599999552418e-06,-1.9128426313400269,-172.15583682060242,-688.6233472824097,-1.3102972024679185,-6.295859813690185e-05,-0.02630305476486683,-0.01801759251393378,-0.040304206589866144,0.0,0.0,0.07076837122440338,579.7344970703125,25.476613640785217,0.0,0.0,0.0,1,1789168768.7501032,38.99021080666667,-76.93874722166667,-11.361,0,1,9.381969000000002,11.458224999999999,86.025625,1,1,1789168769.0230458,-0.8670244022118484,0.49720285361410216,-0.018060766471073346,-0.027052117138180884,178.338238158542,-3.3375919671067984,-59.61657976000281,0.0006344271830999388,0.03295199081057814,0.0035124751196385882,0.6771491936683655,0.20250732583999637,-9.712996652698518
2026-09-11T19:19:29.060,0.033420863999936046,-1.9137232303619385,-172.23509073257446,-688.9403629302979,-1.310900412797928,-0.0006661689281463624,-0.02630305476486683,-0.01801759251393378,-0.040304206589866144,0.0,0.0,0.07076837122440338,579.7344970703125,25.476613640785217,0.0,0.0,0.0,1,1789168768.7501032,38.99021080666667,-76.93874722166667,-11.361,0,1,9.381969000000002,11.458224999999999,86.025625,1,1,1789168769.0560458,-0.867143962582396,0.4969384313027158,-0.01855984016682256,-0.027732219245460932,178.2979203102871,-3.4254927956198458,-59.58097874227743,0.0003481931857728687,0.03184388126848694,-0.0026412067570430187,0.591144871749878,0.31744126573562625,-9.646703697605133
2026-09-11T19:19:29.094,0.06683526400001938,-1.914607048034668,-172.31463432312012,-689.2585372924805,-1.3115058279037477,-0.0012715840339660646,-0.02630305476486683,-0.01801759251393378,-0.040304206589866144,0.0,0.0,0.07076837122440338,579.7344970703125,25.476613640785217,0.0,0.0,0.0,1,1789168768.7501032,38.99021080666667,-76.93874722166667,-11.361,0,1,9.381969000000002,11.458224999999999,86.025625,1,1,1789168769.084046,-0.8672593325666343,0.4967305319191428,-0.018412693575587977,-0.027946403179886614,178.26738694819147,-3.4226404681554645,-59.552850101398676,-0.00039793506945470715,0.01945832676463438,-0.0016924457756589014,0.6105620390701294,0.28556965270996093,-9.632778254375458
2026-09-11T19:19:29.127,0.10027555200008464,-1.9154876470565796,-172.39388823509216,-689.5755529403687,-1.312109038233757,-0.001874794363975525,-0.02630305476486683,-0.01801759251393378,-0.040304206589866144,0.0,0.0,0.0706043392419815,578.3907470703125,25.417562127113342,-0.015258789993822575,-5.493164397776127,-164.2678555210232,1,1789168768.7501032,38.99021080666667,-76.93874722166667,-11.361,0,1,9.381969000000002,11.458224999999999,86.025625,1,1,1789168769.1220458,-0.8674007410334945,0.4964379333837825,-0.018316802114836807,-0.02880672686143997,178.17506491833961,-3.4614823200906826,-59.51230171623587,0.0009342747485925646,-0.00428443424779568,-0.0008922123136195012,0.6429239846038818,0.3476457482337952,-9.677496579113006
2026-09-11T19:19:29.162,0.13369292800007315,-1.9163682460784912,-172.4731421470642,-689.8925685882568,-1.3127122485637666,-0.0024780046939849856,-0.02630305476486683,-0.01801759251393378,-0.040304206589866144,0.0,0.0,0.07028008997440338,575.7344970703125,25.300832390785217,0.0,0.0,164.38048270989367,1,1789168768.7501032,38.99021080666667,-76.93874722166667,-11.361,0,1,9.381969000000002,11.458224999999999,86.025625,1,1,1789168769.156046,-0.8675181311399603,0.4962321260951683,-0.017724073711579528,-0.029186064920878576,178.10273563328454,-3.4236284393805367,-59.483576681387326,-7.120943348136865e-05,-0.017831156303000067,-0.002267706297116232,0.588202876701355,0.35068580978393554,-9.66818026145935
2026-09-11T19:19:29.195,0.1671121920001042,-1.9172422885894775,-172.55180597305298,-690.2072238922119,-1.3133109676837922,-0.00307672381401062,-0.02630305476486683,-0.01801759251393378,-0.040304206589866144,0.0,0.0,0.06930352747440338,567.7344970703125,24.949269890785217,-0.0457763709127903,-16.479493528604507,-493.11359844995997,1,1789168768.7501032,38.99021080666667,-76.93874722166667,-11.361,0,1,9.381969000000002,11.458224999999999,86.025625,1,1,1789168769.1830459,-0.867594289847904,0.4960879079356646,-0.017555980726074755,-0.029474113456939788,178.063905209757,-3.422962799726223,-59.463737793008754,-0.00040194932673429405,-0.016576962702516945,-0.001473057888683214,0.6511615707397461,0.34136949213027956,-9.693285285873413
2026-09-11T19:19:29.229,0.2005290879999393,-1.918126106262207,-172.63134956359863,-690.5253982543945,-1.3139163827896119,-0.0036821389198303228,-0.02630305476486683,-0.01801759251393378,-0.040304206589866144,0.0,0.0,0.06834031641483307,559.8438720703125,24.602513909339905,-0.015258789993822575,-5.493164397776127,328.765697774042,1,1789168768.7501032,38.99021080666667,-76.93874722166667,-11.361,0,1,9.381969000000002,11.458224999999999,86.025625,1,1,1789168769.2230458,-0.8677639075050027,0.49581126866684117,-0.016752302176064,-0.029603159737240706,178.00429141948163,-3.3496570284789375,-59.42604501204804,0.00034348079679248405,-0.02854451085051686,-0.006628062367373666,0.5833976181221009,0.33489710302352904,-9.626600064773559
2026-09-11T19:19:29.262,0.23405135999996673,-1.9190099239349365,-172.7108931541443,-690.8435726165771,-1.3145217978954316,-0.0042875540256500245,-0.02630305476486683,-0.01801759251393378,-0.040304206589866144,0.0,0.0,0.06832696497440338,559.7344970703125,24.597707390785217,0.0,0.0,163.86611258841972,1,1789168768.7501032,38.99021080666667,-76.93874722166667,-11.361,0,1,9.381969000000002,11.458224999999999,86.025625,1,1,1789168769.255046,-0.8678566685109795,0.4956957542018676,-0.016027072942936673,-0.029217377023732873,178.00110818046895,-3.255249655643221,-59.41082436398873,-0.0009164723902222225,-0.04806322600727025,-4.136430327226561e-05,0.6040896499633789,0.3090075465965271,-9.765756430568695
2026-09-11T19:19:29.295,0.2674763840000196,-1.9198839664459229,-172.78955698013306,-691.1582279205322,-1.3151205170154572,-0.00488627314567566,-0.02630305476486683,-0.01801759251393378,-0.040304206589866144,0.0,0.0,0.06832696497440338,559.7344970703125,24.597707390785217,0.0,0.0,0.0,1,1789168768.7501032,38.99021080666667,-76.93874722166667,-11.361,0,1,9.381969000000002,11.458224999999999,86.025625,1,1,1789168769.2830458,-0.8679168905997284,0.49562950568334185,-0.015452145824738138,-0.02885992545376055,178.00384055606412,-3.1775346576524983,-59.40223695689638,-0.0002373647782712288,-0.04688059090611889,-0.00022357667718047363,0.6148769651412964,0.3169509332275391,-9.714957982730866
2026-09-11T19:19:29.330,0.3009053440000571,-1.920761227607727,-172.86851048469543,-691.4740419387817,-1.3157214409112932,-0.0054871970415115365,-0.02630305476486683,-0.01801759251393378,-0.040304206589866144,0.0,0.0,0.06832696497440338,559.7344970703125,24.597707390785217,0.0,0.0,0.0,1,1789168768.7501032,38.99021080666667,-76.93874722166667,-11.361,0,1,9.381969000000002,11.458224999999999,86.025625,1,1,1789168769.323046,-0.8679748197614203,0.4955751807303814,-0.014757635333771156,-0.028410644194300477,178.00898998453766,-3.0827241906851244,-59.3953263918058,0.0014514158059584844,-0.022055725757452342,-0.0027773424386985765,0.5473091455268859,0.3343087040138245,-9.722312970352172
2026-09-11T19:19:29.363,0.334320383999966,-1.9216450452804565,-172.9480540752411,-691.7922163009644,-1.3163268560171129,-0.006092612147331238,-0.02630305476486683,-0.01801759251393378,-0.040304206589866144,0.0,0.0,0.06772615015506744,554.8126220703125,24.38141405582428,-0.0457763709127903,-16.479493528604507,-493.1759330124827,1,1789168768.7501032,38.99021080666667,-76.93874722166667,-11.361,0,1,9.381969000000002,11.458224999999999,86.025625,1,1,1789168769.356046,-0.8680174178389248,0.49548579352934635,-0.014428791341620586,-0.028834020171656368,177.94780729227114,-3.0738217411061703,-59.38251765920984,0.00031642819338657195,-0.007114660162829685,-0.0036981781520507846,0.5327953032875061,0.40854504573822026,-9.614832084579467
2026-09-11T19:19:29.396,0.36773638399995434,-1.9225190877914429,-173.02671790122986,-692.1068716049194,-1.3169255751371385,-0.006691331267356873,-0.02630305476486683,-0.01801759251393378,-0.040304206589866144,0.0,0.0,0.06592561304569244,540.0626220703125,23.73322069644928,-0.0762939527630806,-27.465822994709015,-328.774523165799,1,1789168768.7501032,38.99021080666667,-76.93874722166667,-11.361,0,1,9.381969000000002,11.458224999999999,86.025625,1,1,1789168769.3940458,-0.86802012057319,0.4954773221054768,-0.0141318960233776,-0.029044501615184747,177.90994646272438,-3.0561920963179627,-59.380826188040174,0.001381428102953512,0.01695081222829413,-0.002419899007890138,0.43404233615875243,0.39834612957000737,-9.67847724412918
2026-09-11T19:19:29.430,0.40115497600004346,-1.9233996868133545,-173.1059718132019,-692.4238872528076,-1.317528785467148,-0.007294541597366333,-0.02630305476486683,-0.01801759251393378,-0.040304206589866144,0.0,0.0,0.06324578821659088,518.1094970703125,22.768483757972717,-0.0610351637005806,-21.972658932209015,164.37449137549993,1,1789168768.7501032,38.99021080666667,-76.93874722166667,-11.361,0,1,9.381969000000002,11.458224999999999,86.025625,1,1,1789168769.4230459,-0.8680469358693308,0.4954237387628525,-0.01397476937656115,-0.029232550675140183,177.8820964184146,-3.051096229244433,-59.373317751758215,0.00014102260356114183,0.03820263933227788,-0.0013611822836303777,0.45071364143371584,0.3856955508613586,-9.636112515430451
2026-09-11T19:19:29.463,0.4345660480000788,-1.9242736101150513,-173.18462491035461,-692.7384996414185,-1.3181274229288102,-0.007893179059028626,-0.02630305476486683,-0.01801759251393378,-0.040304206589866144,0.0,0.0,0.061843886971473694,506.6251220703125,22.26379930973053,-0.015258795581758022,-5.493166409432888,493.23447397194235,1,1789168768.7501032,38.99021080666667,-76.93874722166667,-11.361,0,1,9.381969000000002,11.458224999999999,86.025625,1,1,1789168769.455046,-0.8680610456084599,0.4953635591823043,-0.014247246594361685,-0.02969816990769752,177.85093018007728,-3.1045289275621806,-59.36469011837437,-4.415683007545654e-05,0.039297135306203525,-0.002068040630688081,0.4489484444046021,0.383047755317688,-9.652097355194092
2026-09-11T19:19:29.497,0.4679876800000784,-1.925154209136963,-173.26387882232666,-693.0555152893066,-1.3187306332588198,-0.008496389389038086,-0.02630305476486683,-0.01801759251393378,-0.040304206589866144,0.0,0.0,0.06161309778690338,504.7344970703125,22.180715203285217,0.0,0.0,164.3596102498213,1,1789168768.7501032,38.99021080666667,-76.93874722166667,-11.361,0,1,9.381969000000002,11.458224999999999,86.025625,1,1,1789168769.4960458,-0.8680379182534433,0.4953825708133154,-0.013960441869572671,-0.030189187988834906,177.78577603361276,-3.1038999894131503,-59.36614350597899,0.0018729128203151151,0.032005673290146815,0.004908563988308853,0.5125936039543152,0.5295591087341308,-9.687205162773132
2026-09-11T19:19:29.530,0.5014095040000939,-1.9260348081588745,-173.3431327342987,-693.3725309371948,-1.319333843588829,-0.009099599719047547,-0.02630305476486683,-0.01801759251393378,-0.040304206589866144,0.0,0.0,0.061996474862098694,507.8751220703125,22.31873095035553,0.0610351599752903,21.972657591104507,657.4344234202877,1,1789168768.7501032,38.99021080666667,-76.93874722166667,-11.361,0,1,9.381969000000002,11.458224999999999,86.025625,1,1,1789168769.5220459,-0.8679677468290108,0.495412637901991,-0.013831595631218642,-0.03173319451072195,177.62464696676204,-3.178842503343369,-59.36720359039035,-0.0016852899257257248,0.008919156076466622,0.005378057557095328,0.5821227536010742,0.561626854763031,-9.768306159610749
2026-09-11T19:19:29.563,0.5348272640001142,-1.9287205934524536,-173.58485341072083,-694.3394136428833,-1.3211736065149309,-0.010939362645149232,-0.07796577364206314,-0.05340655494481326,-0.11946706098965014,-1.0589866714842049,0.0,0.06400682032108307,524.3438720703125,23.042455315589905,0.0610351637005806,21.972658932209015,4.013149018502363e-05,1,1789168768.7501032,38.99021080666667,-76.93874722166667,-11.361,0,1,9.381969000000002,11.458224999999999,86.025625,1,1,1789168769.5550458,-0.8678197729376369,0.49570330317114836,-0.01323861997742793,-0.03149310821075111,177.6159812112913,-3.1069507133978704,-59.40581480236526,-0.003064623633576843,0.004448495197483147,0.01330848461230716,0.45630343202590945,0.42315695447921753,-9.795176381053924
2026-09-11T19:19:29.597,0.568246304000013,-1.9313127994537354,-173.81815195083618,-695.2726078033447,-1.3229492676258088,-0.012715023756027222,-0.07796577364206314,-0.05340655494481326,-0.11946706098965014,0.0,0.0,0.06583406031131744,539.3126220703125,23.70026171207428,0.030517585575580597,10.986330807209015,-328.74457569796334,1,1789168768.7501032,38.99021080666667,-76.93874722166667,-11.361,0,1,9.381969000000002,11.458224999999999,86.025625,1,1,1789168769.5950458,-0.867602418250655,0.4960240594956001,-0.014230048653174369,-0.03199503027736471,177.62342761065815,-3.2350718232719005,-59.447654301674014,0.0013892820845874865,-0.01513409900989323,0.0045179593017125215,0.45473436800003053,0.4945493676567078,-9.657589079284667
2026-09-11T19:19:29.630,0.601664479999954,-1.9339147806167603,-174.05233025550842,-696.2093210220337,-1.324731624722481,-0.014497380852699282,-0.07796577364206314,-0.05340655494481326,-0.11946706098965014,0.0,0.0,0.0664367824792862,544.2501220703125,23.91724169254303,0.0,0.0,-328.75315538551257,1,1789168768.7501032,38.99021080666667,-76.93874722166667,-11.361,0,1,9.381969000000002,11.458224999999999,86.025625,1,1,1789168769.623046,-0.8675569062053613,0.49611433355507595,-0.01346366618500485,-0.03216072495208075,177.56371036978854,-3.1684547422586387,-59.458960938989755,-9.983283321407566e-05,-0.01364463502624127,0.007036469412340339,0.5296571752357483,0.48886151056289673,-9.684459300727845
2026-09-11T19:19:29.663,0.6350878400000965,-1.9365265369415283,-174.28738832473755,-697.1495532989502,-1.326520677804947,-0.016286433935165406,-0.07796577364206314,-0.05340655494481326,-0.11946706098965014,0.0,0.0,0.0666809231042862,546.2501220703125,24.00513231754303,0.0,0.0,0.0,1,1789168768.7501032,38.99021080666667,-76.93874722166667,-11.361,0,1,9.381969000000002,11.458224999999999,86.025625,1,1,1789168769.655046,-0.867389883337465,0.4963532247340779,-0.014308067985753589,-0.032612049466656044,177.56760861242236,-3.2788523341269933,-59.49000919636939,-0.002571219054038046,-0.010729237043709941,0.007081498907041793,0.71745452583313,0.42629508253097537,-9.686322564258575
2026-09-11T19:19:29.697,0.668509696000001,-1.9391286373138428,-174.52157735824585,-698.0863094329834,-1.3283031165599823,-0.018068872690200806,-0.07796577364206314,-0.05340655494481326,-0.11946706098965014,0.0,0.0,0.0666809231042862,546.2501220703125,24.00513231754303,0.0,0.0,0.0,1,1789168768.7501032,38.99021080666667,-76.93874722166667,-11.361,0,1,9.381969000000002,11.458224999999999,86.025625,1,1,1789168769.695046,-0.8673126687311238,0.49649105516341835,-0.013933520415062607,-0.03272955560429218,177.5351263739686,-3.2486521375833615,-59.50784381177573,-0.0010468484853461987,-0.012435470920459598,0.0032466614745598516,0.47925099340438837,0.4721902052879333,-9.617087614116668
2026-09-11T19:19:29.731,0.7019292800000585,-1.959841012954712,-176.38569116592407,-705.5427646636963,-1.3424910938739778,-0.03225685000419617,-0.4686930179595947,-0.32105471730232243,-0.7181789488688307,-8.008722141994603,0.0,0.0666809231042862,546.2501220703125,24.00513231754303,0.0,0.0,0.0,1,1789168768.7501032,38.99021080666667,-76.93874722166667,-11.361,0,1,9.381969000000002,11.458224999999999,86.025625,1,1,1789168769.7240458,-0.8672469608280119,0.4965765840282727,-0.013539166802141638,-0.03333310804129505,177.45288972295359,-3.2440142581857003,-59.517868347275524,-0.0030328586411905467,-0.010330080243778838,0.006113888369736136,0.6030109184455872,0.5233809191322327,-9.64454623456955
2026-09-11T19:19:29.763,0.7353416959999777,-1.9687625169754028,-177.18862652778625,-708.754506111145,-1.348602324128151,-0.03836808025836945,-0.23234668374061584,-0.15915747836232186,-0.3560251395005406,4.845421502605265,0.0,0.0666809231042862,546.2501220703125,24.00513231754303,0.0,0.0,0.0,1,1789168769.750971,38.990210768333334,-76.93874744,-11.431000000000001,0,1,9.381969000000002,11.451455999999999,85.988529,1,1,1789168769.755046,-0.8671307795408145,0.4967374065905459,-0.014198541505955972,-0.033683252303506,177.45611290446254,-3.3300400555391967,-59.53867132966048,-0.001433962513438541,-0.015217525748138559,0.005135631323993315,0.713139599761963,0.4168806983757019,-9.870491454296113
2026-09-11T19:19:29.797,0.7687561919999553,-1.9688620567321777,-177.197585105896,-708.790340423584,-1.3486705088615418,-0.038436264991760255,-0.04852177947759628,-0.03323741894215346,-0.07434998868591942,3.768426117223281,0.0,0.0666809231042862,546.2501220703125,24.00513231754303,0.0,0.0,0.0,1,1789168769.750971,38.990210768333334,-76.93874744,-11.431000000000001,0,1,9.381969000000002,11.451455999999999,85.988529,1,1,1789168769.7960458,-0.8670355805824489,0.49695589733923967,-0.013185475463121397,-0.03332088445132605,177.43540063452562,-3.209242959853715,-59.567940115826175,0.0011856021608797481,-0.02264337811659883,0.006659303760984364,0.45306723747253413,0.5221060546112061,-9.688381960792542
2026-09-11T19:19:29.830,0.8021760640001503,-1.9701297283172607,-177.31167554855347,-709.2467021942139,-1.3495388638973238,-0.03930462002754212,-0.04852177947759628,-0.03323741894215346,-0.07434998868591942,0.0,0.0,0.06649591028690338,544.7344970703125,23.938527703285217,0.0,0.0,0.0,1,1789168769.750971,38.990210768333334,-76.93874744,-11.431000000000001,0,1,9.381969000000002,11.451455999999999,85.988529,1,1,1789168769.823046,-0.8668905288186258,0.49717247573802403,-0.013833386235549795,-0.03360026545051885,177.44526167322704,-3.2902602522116067,-59.5962257404809,-0.0024420646893904656,-0.02928295965703566,0.004967556117026261,0.7589366560173034,0.42472601850509645,-9.663375002880096
2026-09-11T19:19:29.863,0.8355887360000906,-1.9717429876327515,-177.45686888694763,-709.8274755477905,-1.3506439465284348,-0.04040970265865326,-0.04852177947759628,-0.03323741894215346,-0.07434998868591942,0.0,0.0,0.06649591028690338,544.7344970703125,23.938527703285217,0.0,0.0,0.0,1,1789168769.750971,38.990210768333334,-76.93874744,-11.431000000000001,0,1,9.381969000000002,11.451455999999999,85.988529,1,1,1789168769.8550458,-0.8668775639133042,0.4973139122524565,-0.012798004059096122,-0.03222379487265062,177.52390760985804,-3.1092080644511446,-59.6172088158897,-0.0013674654689375572,-0.03754028688114604,0.006778684281820777,0.38500908535003664,0.2750765370368957,-9.696227280921935
2026-09-11T19:19:29.897,0.8690058239999416,-1.9733682870864868,-177.6031458377838,-710.4125833511353,-1.3517572766542436,-0.041523032784461976,-0.04852177947759628,-0.03323741894215346,-0.07434998868591942,0.0,0.0,0.06649591028690338,544.7344970703125,23.938527703285217,0.0,0.0,0.0,1,1789168769.750971,38.990210768333334,-76.93874744,-11.431000000000001,0,1,9.381969000000002,11.451455999999999,85.988529,1,1,1789168769.8950458,-0.8668141190375441,0.497551089203572,-0.012720240073037408,-0.030238918002961124,177.71792040366978,-2.9889281903857983,-59.652080894741246,0.003164980065566517,-0.0445060704587806,0.007637037207951588,0.5317165717697143,0.15671026958465578,-9.573938353404998
2026-09-11T19:19:29.930,0.9024244160000308,-2.0039892196655273,-180.35902976989746,-721.4361190795898,-1.3727326154708863,-0.06249837160110474,-0.7701783776283264,-0.5275721886754037,-1.1801453755265816,-14.792208173579901,0.0,0.06649591028690338,544.7344970703125,23.938527703285217,0.0,0.0,0.0,1,1789168769.750971,38.990210768333334,-76.93874744,-11.431000000000001,0,1,9.381969000000002,11.451455999999999,85.988529,1,1,1789168769.9240458,-0.8667656117102684,0.49771781890082,-0.013070569642794875,-0.028696817146639853,177.89194452069142,-2.9362083221814026,-59.676940196169554,0.0010197958819402868,-0.025967357677022032,0.002904402408243764,0.5758464974975586,0.15425860704421998,-9.706622330093383
2026-09-11T19:19:29.964,0.9358416320001197,-2.010242223739624,-180.92180013656616,-723.6872005462646,-1.3770159232616426,-0.06678167939186097,-0.19745303690433502,-0.1352553302794695,-0.3025575569959497,11.73996237133847,0.0,0.06649591028690338,544.7344970703125,23.938527703285217,0.0,0.0,0.0,1,1789168769.750971,38.990210768333334,-76.93874744,-11.431000000000001,0,1,9.381969000000002,11.451455999999999,85.988529,1,1,1789168769.955046,-0.8667298997388612,0.4978117545869198,-0.01274069865772501,-0.02829156219562409,177.9137811954689,-2.880511449079587,-59.68989280820096,0.0031243138939950495,-0.00984313338247242,0.009554804990042957,0.37422177017211916,0.432571338634491,-9.798314509105682
2026-09-11T19:19:29.997,0.9692592960000184,-2.0100278854370117,-180.90250968933105,-723.6100387573242,-1.376869101524353,-0.06663485765457154,-0.041255250573158264,-0.028259846642613412,-0.06321547656275363,3.201764301573581,0.0,0.06649591028690338,544.7344970703125,23.938527703285217,0.0,0.0,0.0,1,1789168769.750971,38.990210768333334,-76.93874744,-11.431000000000001,0,1,9.381969000000002,11.451455999999999,85.988529,1,1,1789168769.995046,-0.8666549018969688,0.4978883055598928,-0.012666649165585393,-0.029258711584247254,177.81357336847273,-2.928537418826095,-59.69834847439856,0.004616570404450201,0.0025813419636996136,0.010027614684408222,0.7642322471046448,0.4112909077835083,-9.7128985861969
2026-09-11T19:19:30.031,1.0026752640001177,-2.0127265453338623,-181.1453890800476,-724.5815563201904,-1.3787176835536958,-0.0684834396839142,-0.06728821247816086,-0.04609242554754019,-0.10310581949610804,-0.5336544165015285,0.0,0.06649591028690338,544.7344970703125,23.938527703285217,0.0,0.0,0.0,1,1789168769.750971,38.990210768333334,-76.93874744,-11.431000000000001,0,1,9.381969000000002,11.451455999999999,85.988529,1,1,1789168770.024046,-0.8665883690516629,0.49795108010059486,-0.012708273272172955,-0.030130055450822084,177.72945119361512,-2.9825763730185244,-59.70516639205747,0.004753229684881358,0.031182226949055893,0.007878765309352801,0.3926582724761963,0.5517221380996704,-9.662198204860687
2026-09-11T19:19:30.064,1.0360929280000164,-2.0149641036987305,-181.34676933288574,-725.387077331543,-1.3802504110336304,-0.07001616716384888,-0.06728821247816086,-0.04609242554754019,-0.10310581949610804,0.0,0.0,0.06292344629764557,515.4688720703125,22.652440667152405,-0.2899170219898224,-104.37012791633606,-3123.2023853209066,1,1789168769.750971,38.990210768333334,-76.93874744,-11.431000000000001,0,1,9.381969000000002,11.451455999999999,85.988529,1,1,1789168770.0550458,-0.8665087834011905,0.4979726754763369,-0.012590392024412797,-0.032050347832731564,177.5316961028087,-3.080545718653354,-59.70459709937387,0.005753303346274108,0.05402090740895289,0.0061091759807557515,0.6458659796524048,0.718631323852539,-9.756440112915039
2026-09-11T19:19:30.097,1.0695167359999687,-2.042332887649536,-183.80995988845825,-735.239839553833,-1.3989980280399323,-0.08876378417015077,-0.7774706482887268,-0.5325673940777779,-1.1913193317774187,-14.554743987607054,0.0,0.05270196497440338,431.7344970703125,18.972707390785217,-0.3967285454273224,-142.82227635383606,-1150.4418777643446,1,1789168769.750971,38.990210768333334,-76.93874744,-11.431000000000001,0,1,9.381969000000002,11.451455999999999,85.988529,1,1,1789168770.096046,-0.8664439217799593,0.4978157105924178,-0.013754252292650305,-0.03557062329788521,177.24701796355131,-3.396753254342551,-59.67743387968299,-0.000335801348083709,0.07425747648705154,-0.010695028590370852,0.8434699804115295,0.662733417930603,-9.691029756336212
2026-09-11T19:19:30.131,1.1029326079999464,-2.0518524646759033,-184.6667218208313,-738.6668872833252,-1.4055189383029938,-0.09528469443321229,-0.26084351539611816,-0.17867780804634095,-0.3996908734035897,10.59046389786484,0.0,0.03591538965702057,294.2188720703125,12.929540276527405,-0.3204346299171448,-115.35646677017212,821.9390349496857,1,1789168769.750971,38.990210768333334,-76.93874744,-11.431000000000001,0,1,9.381969000000002,11.451455999999999,85.988529,1,1,1789168770.1240458,-0.8664608305255773,0.49778865394822747,-0.014116285667221635,-0.03539513588474981,177.28501860738882,-3.4226512123621973,-59.674290767240315,0.006592108584782583,0.0708872457014505,-0.011970340674803109,0.5841821501350403,0.5623133202743531,-9.872060518321991
2026-09-11T19:19:30.164,1.136356448000015,-2.055615186691284,-185.00536680221558,-740.0214672088623,-1.4080964028835297,-0.09786215901374817,-0.15751808881759644,-0.10789989084005357,-0.24136518172882393,2.117587841676544,0.0,0.03178025782108307,260.3438720703125,11.440892815589905,-0.16784673929214478,-60.42482614517212,1643.4868233239288,1,1789168769.750971,38.990210768333334,-76.93874744,-11.431000000000001,0,1,9.381969000000002,11.451455999999999,85.988529,1,1,1789168770.155046,-0.8665058027591074,0.49762893483324644,-0.013581926497071071,-0.036724219176882594,177.1215835265712,-3.444846941744541,-59.6503955033609,0.007992211710732434,0.02189358466994207,-0.016767727189759923,0.5032772863006592,0.8089505718421935,-9.441058243713378
2026-09-11T19:19:30.198,1.1697778879999987,-2.0730862617492676,-186.57776355743408,-746.3110542297363,-1.4200640892982483,-0.1098298454284668,-0.7305846810340881,-0.5004505065083504,-1.1194759003855357,-11.745472836253862,0.0,0.02839471399784088,232.6094970703125,10.222097039222717,-0.09155279397964478,-32.95900583267212,821.8024212156446,1,1789168769.750971,38.990210768333334,-76.93874744,-11.431000000000001,0,1,9.381969000000002,11.451455999999999,85.988529,1,1,1789168770.1960459,-0.8664752811792753,0.49769842739520814,-0.011919542848848818,-0.03707811985399081,176.99191411306978,-3.2999653018722817,-59.65895489860154,0.006855653301833726,-0.0488166846453562,0.0010044369845227366,0.5858492806625366,0.7088246736907958,-9.801060371150971
2026-09-11T19:19:30.231,1.203193247999934,-2.093897819519043,-188.45080375671387,-753.8032150268555,-1.4343200063705446,-0.12408576250076295,-0.5467599630355835,-0.37453057467937473,-0.8378010349842839,3.7683248610584825,0.0,0.027603164315223694,226.1251220703125,9.93713915348053,-0.0457763709127903,-16.479493528604507,493.17177202638175,1,1789168769.750971,38.990210768333334,-76.93874744,-11.431000000000001,0,1,9.381969000000002,11.451455999999999,85.988529,1,1,1789168770.2240458,-0.8663826618626151,0.49789790307306125,-0.012525652619707648,-0.03635752144671681,177.09896442133794,-3.319780384222714,-59.68666441805182,0.013578312514665486,-0.0875095869645193,-0.008237779536488037,0.6658715459823609,0.5274016456985474,-9.837933375759125
2026-09-11T19:19:30.264,1.2366138879999653,-2.1015360355377197,-189.13824319839478,-756.5529727935791,-1.439552184343338,-0.12931794047355652,-0.33667436242103577,-0.23062193825840951,-0.5158865834341653,4.305980867536674,0.0,0.02161981165409088,177.1094970703125,7.783132195472717,-0.3356933891773224,-120.84962010383606,-3122.9242341000686,1,1789168769.750971,38.990210768333334,-76.93874744,-11.431000000000001,0,1,9.381969000000002,11.451455999999999,85.988529,1,1,1789168770.255046,-0.8664084722257586,0.49786728025358234,-0.011181374693911832,-0.036599280980398594,176.9981719582908,-3.1998243724716677,-59.682367771385216,0.014341370463637405,-0.1057896419511323,-0.020296782937292455,0.2635046898460388,0.8533746970748901,-9.731138955497741
2026-09-11T19:19:30.298,1.270037056000092,-2.1217031478881836,-190.95328330993652,-763.8131332397461,-1.4533666563034058,-0.1431324124336243,-0.6201822757720947,-0.42482485890388494,-0.95030614464899,-5.810428282703165,0.0,-0.00177001953125,-14.5,-0.63720703125,-0.6103516221046448,-219.72658395767212,-2958.3360815306705,1,1789168769.750971,38.990210768333334,-76.93874744,-11.431000000000001,0,1,9.381969000000002,11.451455999999999,85.988529,1,1,1789168770.2950459,-0.8664911226336843,0.49760797697581516,-0.011927605694464596,-0.037909996959263156,176.90917973555995,-3.3479189106466394,-59.645375481008855,0.0015095352700498956,-0.05248170154161909,-0.035759876511186624,1.4309863916015624,0.32685564989089966,-9.779387674293519
2026-09-11T19:19:30.331,1.303456512000139,-2.1393163204193115,-192.53846883773804,-770.1538753509521,-1.4654316794872284,-0.15519743561744692,-0.5160503387451172,-0.3534944820404053,-0.7907446359171548,2.1343967078153367,0.0,-0.0076446533203125,-62.625,-2.7520751953125,-0.5187988877296448,-186.76759958267212,986.2214506110969,1,1789168769.750971,38.990210768333334,-76.93874744,-11.431000000000001,0,1,9.381969000000002,11.451455999999999,85.988529,1,1,1789168770.324046,-0.8668538543940808,0.4971087319724561,-0.012066668427866137,-0.036079069166409565,177.0975648215073,-3.255608504155025,-59.58286384023595,0.009928305449969744,-0.028294405168706075,-0.05656804091931341,0.6733246001052856,0.09316317653656006,-9.217760819530486
2026-09-11T19:19:30.365,1.3368769920000432,-2.158384323120117,-194.25458908081055,-777.0183563232422,-1.4784932613372803,-0.1682590174674988,-0.5949594974517822,-0.40754725575447087,-0.9116572471243523,-1.6173547990400021,0.0,-0.022474288940429688,-184.109375,-8.090744018554688,-0.6713867783546448,-241.69924020767212,-1643.6520548225922,1,1789168769.750971,38.990210768333334,-76.93874744,-11.431000000000001,0,1,9.381969000000002,11.451455999999999,85.988529,1,1,1789168770.3550458,-0.8671601154873828,0.4966690016324996,-0.010737178049381865,-0.035184512684143326,177.10946360841422,-3.0709091953741847,-59.526653772410896,0.011149686860515375,-0.022707780765997426,-0.04377826816069896,0.6404723220634461,0.7382446241760254,-9.847445826416015
2026-09-11T19:19:30.398,1.3702993920001063,-2.1776859760284424,-195.99173784255981,-783.9669513702393,-1.491714893579483,-0.18148064970970154,-0.569128155708313,-0.3898527866601944,-0.8720758470387302,0.5294194640194313,0.0,-0.04380226135253906,-358.828125,-15.768814086914062,-0.2593994736671448,-93.38381052017212,4437.6056084308675,1,1789168769.750971,38.990210768333334,-76.93874744,-11.431000000000001,0,1,9.381969000000002,11.451455999999999,85.988529,1,1,1789168770.3950458,-0.8674825631945161,0.49590187720170437,-0.012149232315770236,-0.03751968677155196,176.95409449512542,-3.341703068606617,-59.42056296819232,0.012540539741429657,0.06970391246859833,-0.05582697411891663,0.5860454136657715,0.8539630960845948,-10.099672868576048
2026-09-11T19:19:30.432,1.403717024000116,-2.198434352874756,-197.85909175872803,-791.4363670349121,-1.5059275317192078,-0.19569328784942627,-0.647273600101471,-0.4433824160695076,-0.9918182177646455,-1.601837898307627,0.0,-0.05623626708984375,-460.6875,-20.24505615234375,-0.5493164658546448,-197.75392770767212,-3123.2050549682795,1,1789168769.750971,38.990210768333334,-76.93874744,-11.431000000000001,0,1,9.381969000000002,11.451455999999999,85.988529,1,1,1789168770.4240458,-0.8680278888189613,0.4949911213486592,-0.010710114599361635,-0.03737201444613734,176.88379996532277,-3.1867717513355776,-59.30101846928004,0.0163746790422108,0.09229702510273974,-0.06727965013757821,-0.5655495148277283,0.8085583058357239,-9.617283747119902
2026-09-11T19:19:30.465,1.4371364159999303,-2.221261739730835,-199.91355657577515,-799.6542263031006,-1.521564291715622,-0.21133004784584047,-0.6997949481010437,-0.479359539449215,-1.0722967507364318,-1.0765343480787244,0.0,-0.06607246398925781,-541.265625,-23.786087036132812,0.0,0.0,5917.340677794834,1,1789168769.750971,38.990210768333334,-76.93874744,-11.431000000000001,0,1,9.381969000000002,11.451455999999999,85.988529,1,1,1789168770.455046,-0.8682765722965489,0.4945575787181162,-0.009465752459412276,-0.03766954822940598,176.78209941827473,-3.078109299059784,-59.24392555661451,0.018524575614817414,0.07074273243938536,-0.03319476610953055,-0.20976424695968626,0.6853867798042297,-9.975520677528381
2026-09-11T19:19:30.499,1.4705576000001201,-2.2446043491363525,-202.01439142227173,-808.0575656890869,-1.5375539791584016,-0.22731973528862,-0.6997949481010437,-0.479359539449215,-1.0722967507364318,0.0,0.0,-0.062435150146484375,-511.46875,-22.476654052734375,0.0762939602136612,27.46582567691803,821.8088765724749,1,1789168769.750971,38.990210768333334,-76.93874744,-11.431000000000001,0,1,9.381969000000002,11.451455999999999,85.988529,1,1,1789168770.495046,-0.8681752579923787,0.4945428345443307,-0.009534150482310686,-0.04010244612621278,176.54312947372108,-3.2228325215533817,-59.2374105427769,0.005158495137194441,-0.029627138585528946,-0.012015195636579363,0.3909911419487,0.9000543518447875,-9.075270192680359
2026-09-11T19:19:30.532,1.5039767360001406,-2.268779993057251,-204.1901993751526,-816.7607975006104,-1.554114295244217,-0.24388005137443544,-0.7258279323577881,-0.49719213366508486,-1.1121871279193905,-0.5336042863543494,0.0,-0.0560150146484375,-458.875,-20.1654052734375,0.1983642727136612,71.41113817691803,1314.9745253729216,1,1789168769.750971,38.990210768333334,-76.93874744,-11.431000000000001,0,1,9.381969000000002,11.451455999999999,85.988529,1,1,1789168770.5230458,-0.8682243738434657,0.4945440001614234,-0.009545078260241707,-0.03900717946052856,176.65305936363737,-3.1618146839811456,-59.23961800249953,-0.016901593943387888,-0.060855616759762685,-0.023381826923117632,1.116192921409607,0.0963993710899353,-11.017084991207122
2026-09-11T19:19:30.565,1.537395712000034,-2.298182964324951,-206.8364667892456,-827.3458671569824,-1.5742553305625917,-0.2640210866928101,-0.8573431968688965,-0.5872800898551941,-1.3137081465980527,-2.695712645127016,0.0,-0.05138587951660156,-420.953125,-18.498916625976562,0.1068115383386612,38.45215380191803,-986.2356158101618,1,1789168769.750971,38.990210768333334,-76.93874744,-11.431000000000001,0,1,9.381969000000002,11.451455999999999,85.988529,1,1,1789168770.5550458,-0.8683127185711071,0.49447811359942967,-0.010433387434716179,-0.03762395999147208,176.84111781305762,-3.171642350290373,-59.23296138738409,-0.04785588089213332,-0.05657502223632139,-0.041795748663358605,1.0241084763908386,-0.12454445705413818,-8.317020002174377
2026-09-11T19:19:30.599,1.570821695999939,-2.3219797611236572,-208.97817850112915,-835.9127140045166,-1.5905561363697054,-0.28032189249992373,-0.7800663113594055,-0.5343454232811928,-1.1952966698308702,1.5836382430552176,0.0,-0.05119514465332031,-419.390625,-18.430252075195312,-0.015258791856467724,-5.493165068328381,-1314.7053163901294,1,1789168769.750971,38.990210768333334,-76.93874744,-11.431000000000001,0,1,9.381969000000002,11.451455999999999,85.988529,1,1,1789168770.5950458,-0.8685863468017755,0.4938810339288191,-0.010342920779377372,-0.039144686289432934,176.68200212305038,-3.2465732638862974,-59.15134733286555,-0.02116037185117925,0.01992974019559805,-0.035555323922852884,0.8186591555023193,0.980566949672699,-8.979557287101747
2026-09-11T19:19:30.632,1.6042405759999383,-2.351513147354126,-211.63618326187134,-846.5447330474854,-1.6107865059375763,-0.30055226206779484,-0.885109007358551,-0.6062996700406075,-1.3562537357744426,-2.1531016826242,0.0,-0.05081367492675781,-416.265625,-18.292922973632812,0.0610351599752903,21.972657591104507,821.865444306736,1,1789168769.750971,38.990210768333334,-76.93874744,-11.431000000000001,0,1,9.381969000000002,11.451455999999999,85.988529,1,1,1789168770.6240458,-0.8688366385057974,0.49353974698071895,-0.01018542468807284,-0.03791663044203075,176.79446723918693,-3.1600700295268647,-59.10874838900762,-0.00509409248779585,-0.020559804055568003,-0.03650303770668581,0.005295591087341308,0.08286619386672973,-10.915095829524994
2026-09-11T19:19:30.665,1.637659488000054,-2.3762598037719727,-213.86338233947754,-855.4535293579102,-1.6277379655838013,-0.3175037217140198,-0.7562416791915894,-0.5180255502462388,-1.1587901535572616,2.641442061131834,0.0,-0.050628662109375,-414.75,-18.226318359375,0.0,0.0,-657.4917098147451,1,1789168769.750971,38.990210768333334,-76.93874744,-11.431000000000001,0,1,9.381969000000002,11.451455999999999,85.988529,1,1,1789168770.655046,-0.869085709393349,0.4932568866188219,-0.01078300276079806,-0.03565670179400705,177.05285697303515,-3.090803309126124,-59.07535381594343,0.003582986421419159,-0.022903606708071185,-0.0476169453175353,0.400307459602356,0.34048689361572265,-9.739866874141693
2026-09-11T19:19:30.699,1.6710819520001223,-2.4014968872070312,-216.1347198486328,-864.5388793945312,-1.6450253677368165,-0.3347911238670349,-0.7562416791915894,-0.5180255502462388,-1.1587901535572616,0.0,0.0,-0.05081367492675781,-416.265625,-18.292922973632812,0.0,0.0,0.0,1,1789168769.750971,38.990210768333334,-76.93874744,-11.431000000000001,0,1,9.381969000000002,11.451455999999999,85.988529,1,1,1789168770.695046,-0.8694227153386251,0.49263139987355037,-0.010957027902839653,-0.03603317154198816,177.0228373981982,-3.127307855827288,-58.992138997219655,-0.014459180188147024,-0.014173120723745153,-0.05052379118673185,1.7059648621368408,0.6750897971343994,-10.523320155563354
2026-09-11T19:19:30.734,1.7044965120001052,-2.4309370517730713,-218.78433465957642,-875.1373386383057,-1.665191880464554,-0.35495763659477236,-0.8097912073135376,-0.5547069770097733,-1.2408441683289475,-1.0977677624231286,0.0,-0.04699897766113281,-385.015625,-16.919631958007812,0.2136230617761612,76.90430223941803,2301.520721489597,1,1789168769.750971,38.990210768333334,-76.93874744,-11.431000000000001,0,1,9.381969000000002,11.451455999999999,85.988529,1,1,1789168770.7240458,-0.8696128010311028,0.49231109810879264,-0.010319942118618185,-0.03601191131309999,176.98791513932335,-3.0614427600498417,-58.950215962497445,-0.01648550744971244,-0.013254204872570138,-0.03250536105499279,0.23379053985595702,0.39344280448913577,-9.412128625736237
2026-09-11T19:19:30.766,1.737915712000131,-2.4588170051574707,-221.29353046417236,-885.1741218566895,-1.6842896485328676,-0.37405540466308596,-0.8358396887779236,-0.5725501868128777,-1.2807582919042526,-0.5339209138187223,0.0,-0.03833961486816406,-314.078125,-13.802261352539062,0.2899170219898224,104.37012791633606,821.8576649619642,1,1789168770.751716,38.99020971833333,-76.93874902,-11.490000000000002,0,1,10.504081000000001,11.648568999999998,133.17159999999998,1,1,1789168770.7630458,-0.8697391253514397,0.49208456051861427,-0.010953902197493825,-0.035869919971513384,177.037010674222,-3.1159132019974076,-58.92037615847954,-0.018296112015731357,-0.030350577560480593,-0.01379211534803479,1.1772883519172668,0.14023509731292724,-9.517844314479827
2026-09-11T19:19:30.800,1.7713373440001305,-2.488830804824829,-223.99477243423462,-895.9790897369385,-1.704849101305008,-0.39461485743522645,-0.862587571144104,-0.5908724862337112,-1.3217441084326025,-0.5482167783079458,0.0,-0.03357505798339844,-275.046875,-12.087020874023438,0.12207034230232239,43.94532322883606,-1807.9549403063484,1,1789168770.751716,38.99020971833333,-76.93874902,-11.490000000000002,0,1,10.504081000000001,11.648568999999998,133.17159999999998,1,1,1789168770.7950459,-0.8698824148605068,0.4918260548325503,-0.010956179595733924,-0.035939925333376206,177.02921610876197,-3.1192078331720454,-58.886186940888884,0.0076318012201956045,-0.08448720029884071,-0.023646767903570374,1.347727931728363,0.9221193147087098,-9.544812602424622
2026-09-11T19:19:30.833,1.8047546560001138,-2.5178592205047607,-226.60732984542847,-906.4293193817139,-1.7247335660457612,-0.4144993221759796,-0.8886205554008484,-0.6087050804495812,-1.361634485615561,-0.5336334118040036,0.0,-0.025789260864257812,-211.265625,-9.284133911132812,0.2746582329273224,98.87696385383606,1643.8078749430115,1,1789168770.751716,38.99020971833333,-76.93874902,-11.490000000000002,0,1,10.504081000000001,11.648568999999998,133.17159999999998,1,1,1789168770.824046,-0.8697648713559981,0.4919508326147886,-0.010856018981227082,-0.03708899697456613,176.9091760853919,-3.1744517584619905,-58.90051515302575,-0.01432426623696786,-0.06935275222309707,-0.002448347874697645,0.6744033316230774,1.0794179833030701,-9.776543745746613
2026-09-11T19:19:30.866,1.8381732479999755,-2.5517590045928955,-229.6583104133606,-918.6332416534424,-1.7479549181461336,-0.437720674276352,-0.9680014252662659,-0.6630809763073922,-1.483269900472869,-1.6271151058080469,0.0,-0.012220382690429688,-100.109375,-4.3993377685546875,0.6408692002296448,230.71291208267212,3944.988114082768,1,1789168770.751716,38.99020971833333,-76.93874902,-11.490000000000002,0,1,10.504081000000001,11.648568999999998,133.17159999999998,1,1,1789168770.8550458,-0.8697630265322057,0.49195406884242016,-0.009478238384235848,-0.03746511476101962,176.79403381876676,-3.0581744842226897,-58.901005788676066,0.0012185888837424408,-0.06145269389686995,-0.0054593899002382635,-0.1670072522544861,0.9003485513496399,-10.005627093524932
2026-09-11T19:19:30.900,1.8715927040000224,-2.5836703777313232,-232.5303339958191,-930.1213359832764,-1.7698142087459565,-0.459579964876175,-0.9680014252662659,-0.6630809763073922,-1.483269900472869,0.0,0.0,0.0016822817269712687,13.781251907348633,0.6056214217096567,-0.2899170219898224,-104.37012791633606,-10026.58571098637,1,1789168770.751716,38.99020971833333,-76.93874902,-11.490000000000002,0,1,10.504081000000001,11.648568999999998,133.17159999999998,1,1,1789168770.896046,-0.8697810484616252,0.4919570502223618,-0.0069741086386538465,-0.037557293329057,176.64387813276534,-2.8134964972640795,-58.90344718263711,-0.026831644722609623,-0.05531245105542869,-0.019728678265768306,-1.0410739811706544,1.2069044354057312,-9.943747131004335
2026-09-11T19:19:30.933,1.9050096640000902,-2.6187994480133057,-235.6919503211975,-942.76780128479,-1.7938776218891146,-0.48364337801933294,-1.021010160446167,-0.6993919599056244,-1.564495257483947,-1.0866034372414073,0.0,0.0008029938326217234,6.578125476837158,0.28907777974382043,0.061035171151161194,21.97266161441803,3780.7984188417454,1,1789168770.751716,38.99020971833333,-76.93874902,-11.490000000000002,0,1,10.504081000000001,11.648568999999998,133.17159999999998,1,1,1789168770.9240458,-0.8697736630514407,0.4919716100852181,-0.006537068085912933,-0.03761617568383787,176.61344083316567,-2.773265719932622,-58.90575933102839,0.03544467004827644,-0.040065952841707025,0.006151936547429613,0.8647504112625122,1.081673512840271,-8.000461334953307
2026-09-11T19:19:30.967,1.9384249600000203,-2.6539857387542725,-238.85871648788452,-955.4348659515381,-1.8179802310466768,-0.5077459871768952,-1.1522552967071533,-0.7892948782444,-1.765602358277557,-2.690472002371719,0.0,0.0009002686128951609,7.375000476837158,0.32409670064225793,0.015258795581758022,5.493166409432888,-493.1722048794545,1,1789168770.751716,38.99020971833333,-76.93874902,-11.490000000000002,0,1,10.504081000000001,11.648568999999998,133.17159999999998,1,1,1789168770.9630458,-0.869734878358404,0.4921250006495526,-0.003612765551909219,-0.03689407849014679,176.5214223092088,-2.4413838271028565,-58.93111249570379,-0.009183224392293363,-0.009514836950172287,-0.015562402808332638,-0.16445752321243287,0.40628951620101933,-9.823517600021361
2026-09-11T19:19:31.000,1.9718480320000253,-2.6927056312561035,-242.34350681304932,-969.3740272521973,-1.844503357410431,-0.5342691135406494,-1.1005926132202148,-0.7539059400558472,-1.6864395581063134,1.0588176391609807,0.0,0.0013732911320403218,11.250000953674316,0.49438480753451586,0.0,0.0,-164.35252897854687,1,1789168770.751716,38.99020971833333,-76.93874902,-11.490000000000002,0,1,10.504081000000001,11.648568999999998,133.17159999999998,1,1,1789168770.9960458,-0.8696471490928053,0.492404002931358,-0.004099225496888572,-0.03514726621313505,176.72408835881618,-2.3923967883123973,-58.96963313127907,-0.009774367409943844,0.012218701027361903,-0.001311789465798938,0.8168939584732056,0.13395884120941162,-9.205502506828308
2026-09-11T19:19:31.033,2.0052629439999237,-2.7305381298065186,-245.74843168258667,-982.9937267303467,-1.8704186189174654,-0.5601843750476838,-1.1533262729644775,-0.7900284969806671,-1.767243416653244,-1.0810310356325292,0.0,0.0014324189396575093,11.734375953674316,0.5156708182767034,0.0,0.0,0.0,1,1789168770.751716,38.99020971833333,-76.93874902,-11.490000000000002,0,1,10.504081000000001,11.648568999999998,133.17159999999998,1,1,1789168771.024046,-0.8698157328541105,0.49219152430417124,-0.003223581144006041,-0.03402503206774207,176.7862764809181,-2.240922662645532,-58.94445967793973,0.0022951079663725434,0.01390905240791841,-0.010112612218980344,-0.9664453734397888,1.4353993841743469,-11.88320833349228
2026-09-11T19:19:31.066,2.038690496000072,-2.7697465419769287,-249.27718877792358,-997.1087551116943,-1.8972763812541964,-0.5870421373844147,-1.1793591976165771,-0.8078610503673554,-1.807133702503925,-0.5334687202523589,0.0,0.0014953614445403218,12.250000953674316,0.5383301200345159,0.0,0.0,0.0,1,1789168770.751716,38.99020971833333,-76.93874902,-11.490000000000002,0,1,10.504081000000001,11.648568999999998,133.17159999999998,1,1,1789168771.0620458,-0.8698110734314929,0.49213843405939806,-0.0043913720561207905,-0.034773180886746864,176.7771802042647,-2.399432958188984,-58.9347856887622,0.0015573572915545404,-0.00967697803768256,-0.01138513177660941,3.125967805557251,1.2533879571723938,-10.06446699449539
2026-09-11T19:19:31.100,2.072104895999928,-2.810037136077881,-252.90334224700928,-1011.6133689880371,-1.9248754382133486,-0.6146411943435669,-1.180302619934082,-0.8085072946548463,-1.8085793098041458,-0.019340293032154184,0.0,0.0013580323429778218,11.125000953674316,0.48889164347201586,-0.0457763709127903,-16.479493528604507,-493.1853790184934,1,1789168770.751716,38.99020971833333,-76.93874902,-11.490000000000002,0,1,10.504081000000001,11.648568999999998,133.17159999999998,1,1,1789168771.096046,-0.8698415528433967,0.4921756129233669,-0.003586053951375923,-0.03355561365187946,176.8535373503188,-2.250532754426819,-58.94246642290056,0.009016545448727906,0.00443523069516799,0.01567933986821626,-0.32440398735046383,0.08727918643951416,-8.527666847648621
2026-09-11T19:19:31.133,2.105521824000107,-2.8516385555267334,-256.647469997406,-1026.589879989624,-1.9533724105358126,-0.643138166666031,-1.2590848207473755,-0.8624731022119523,-1.92929738325866,-1.6149242550607055,0.0,0.0006999970646575093,5.734375953674316,0.25199894327670336,0.0,0.0,493.1480694011229,1,1789168770.751716,38.99020971833333,-76.93874902,-11.490000000000002,0,1,10.504081000000001,11.648568999999998,133.17159999999998,1,1,1789168771.123046,-0.86985505818701,0.49215665287876326,-0.004346971708572496,-0.03339327193628498,176.91256268318264,-2.3172095782575464,-58.939174466000026,-0.012323246249556363,0.018194359320340088,-0.017081711922193703,2.4129262722969056,0.5275977787017823,-11.14663083984375
2026-09-11T19:19:31.170,2.138937855999984,-2.891601085662842,-260.24409770965576,-1040.976390838623,-1.9807467436790467,-0.6705124998092652,-1.2075380086898804,-0.8271635359525681,-1.850312133036344,1.0566654430877322,0.0,0.0008220673771575093,6.734375953674316,0.29594425577670336,0.0,0.0,0.0,1,1789168770.751716,38.99020971833333,-76.93874902,-11.490000000000002,0,1,10.504081000000001,11.648568999999998,133.17159999999998,1,1,1789168771.163046,-0.8698932915497039,0.4921880733906138,-0.0031691692177997096,-0.03203932108092681,176.98151787069528,-2.1234334332943257,-58.94665416880432,-0.0018559831265707702,-0.0069940579115168764,-0.019067198479262453,0.3889317454147339,0.4711114737701416,-8.625635282764435
2026-09-11T19:19:31.201,2.1723629440000423,-2.93453049659729,-264.1077446937561,-1056.4309787750244,-2.010153390169144,-0.6999191462993622,-1.234784483909607,-0.8458273714780808,-1.8920619440722977,-0.558378052003342,0.0,0.0005779267521575093,4.734375953674316,0.20805363077670336,0.0,0.0,0.0,1,1789168770.751716,38.99020971833333,-76.93874902,-11.490000000000002,0,1,10.504081000000001,11.648568999999998,133.17159999999998,1,1,1789168771.1960459,-0.870001823830459,0.4920580253978787,-0.0015994875455217698,-0.03119563772079552,176.977046781657,-1.918807100546281,-58.932868268900954,0.01506672930076625,-0.015501141751587637,-0.0003310889591033243,-1.3830318723106383,0.3496070782661438,-10.400442829036713
2026-09-11T19:19:31.234,2.205779200000052,-2.976717948913574,-267.9046154022217,-1071.6184616088867,-2.0390517950057987,-0.7288175511360169,-1.3137788772583008,-0.8999385309219361,-2.0131051604373997,-1.61930646700336,0.0,0.0010261536808684468,8.406250953674316,0.36941532511264086,0.015258791856467724,5.493165068328381,164.38601225483833,1,1789168770.751716,38.99020971833333,-76.93874902,-11.490000000000002,0,1,10.504081000000001,11.648568999999998,133.17159999999998,1,1,1789168771.2230458,-0.8700604997247752,0.4919857376727171,-0.002547489621276678,-0.03063121025908798,177.08664434748366,-1.9812919873759482,-58.92259014591325,0.0037648497294769686,-0.04048483186218567,-0.010540916017419752,1.657814209842682,1.0767701877593994,-9.894125481185913
2026-09-11T19:19:31.267,2.2391972160000932,-3.016563892364502,-271.4907503128052,-1085.9630012512207,-2.066346266269684,-0.7561120223999024,-1.2104257345199585,-0.8291416281461716,-1.8547369992532452,2.118525012845664,0.0,0.0012512208195403218,10.250000953674316,0.45043949503451586,0.0,0.0,-164.37735466766085,1,1789168770.751716,38.99020971833333,-76.93874902,-11.490000000000002,0,1,10.504081000000001,11.648568999999998,133.17159999999998,1,1,1789168771.2630458,-0.8700734087233865,0.49191382014102086,-0.004336845059016558,-0.03121295823321185,177.12913497434465,-2.192380314487854,-58.9101283609819,0.01703074830803547,-0.011373961669396648,-0.029957005814155873,-1.5976994443511965,0.3230310563278198,-9.998370172405242
2026-09-11T19:19:31.301,2.272621375999961,-3.0605947971343994,-275.45353174209595,-1101.8141269683838,-2.0965074360370637,-0.7862731921672822,-1.2639752626419067,-0.8658230549097062,-1.9367910140249314,-1.0974524644353,0.0,0.000274658203125,2.25,0.098876953125,0.0,0.0,0.0,1,1789168770.751716,38.99020971833333,-76.93874902,-11.490000000000002,0,1,10.504081000000001,11.648568999999998,133.17159999999998,1,1,1789168771.2960458,-0.870145041522293,0.4917789682287682,-0.005577085087860864,-0.03114400815466587,177.20549932563242,-2.311806172683916,-58.89117586940567,0.004050909193878839,-0.06932081269778557,-0.01693196267237259,2.1592282326126098,0.231731143321991,-8.926405243225098
2026-09-11T19:19:31.334,2.306039712000029,-3.1058642864227295,-279.52778577804565,-1118.1111431121826,-2.1275170361995697,-0.8172827923297883,-1.395491123199463,-0.9559114193916322,-2.138312946026376,-2.695776488743867,0.0,-0.0019855499267578125,-16.265625,-0.7147979736328125,0.0,0.0,0.0,1,1789168770.751716,38.99020971833333,-76.93874902,-11.490000000000002,0,1,10.504081000000001,11.648568999999998,133.17159999999998,1,1,1789168771.324046,-0.8703652341172434,0.491317864712293,-0.003720869632112707,-0.032515691346946186,176.96282220561818,-2.2023108472536985,-58.830733649194876,-0.009227032156518421,-0.00396765698855871,-0.039879028078818435,-2.0308591819953916,1.5088511938858031,-8.837655059261323
2026-09-11T19:19:31.367,2.339454048000107,-3.1472151279449463,-283.24936151504517,-1132.9974460601807,-2.1558423626422885,-0.8456081187725067,-1.2395530939102173,-0.849093869328499,-1.8993688916618154,3.1967581239047735,0.0,-0.003749847412109375,-30.71875,-1.349945068359375,-0.1983642727136612,-71.41113817691803,-2137.1407223759065,1,1789168770.751716,38.99020971833333,-76.93874902,-11.490000000000002,0,1,10.504081000000001,11.648568999999998,133.17159999999998,1,1,1789168771.363046,-0.8706995918330449,0.49082902696039477,-0.006114440934005145,-0.030523772488757515,177.29516668149842,-2.327512774740731,-58.7665201057959,-0.02910179448067865,0.01541701688164151,-0.024262869129524373,2.215420338039398,-1.2055315043830872,-10.569411411323546
2026-09-11T19:19:31.401,2.3729816960001244,-3.187783718109131,-286.9005346298218,-1147.602138519287,-2.183631846904755,-0.8733976030349732,-1.163474202156067,-0.7969798284769058,-1.7827931023552814,1.554360176161653,0.0,-0.0039386749267578125,-32.265625,-1.4179229736328125,0.0,0.0,2129.9179166066388,1,1789168770.751716,38.99020971833333,-76.93874902,-11.490000000000002,0,1,10.504081000000001,11.648568999999998,133.17159999999998,1,1,1789168771.396046,-0.8709751548871124,0.49043093325491055,-0.008068865759397045,-0.02854247153707693,177.60192207454156,-2.410100482262996,-58.71575553142454,0.02463898758332915,0.04380462263240408,-0.04563477488604534,1.0881459019470214,-1.1230575765228272,-9.655725815753936
2026-09-11T19:19:31.434,2.406397760000118,-3.226574420928955,-290.39169788360596,-1161.5667915344238,-2.2102034783363345,-0.8999692344665529,-1.2166322469711304,-0.8333930891752244,-1.8642472467233882,-1.089693289380983,0.0,-0.005184173583984375,-42.46875,-1.866302490234375,0.0457763709127903,16.479493528604507,493.1608201554691,1,1789168770.751716,38.99020971833333,-76.93874902,-11.490000000000002,0,1,10.504081000000001,11.648568999999998,133.17159999999998,1,1,1789168771.4240458,-0.8712242963132902,0.4899470871413199,-0.00821092676763288,-0.029200308162151637,177.5427644763901,-2.459909394195077,-58.65109324994408,0.03582515182521121,0.06351549853980204,-0.023360708439168505,-2.1307889471435546,2.3429067901420595,-7.944857628536225
2026-09-11T19:19:31.468,2.43981344000008,-3.2662229537963867,-293.9600658416748,-1175.8402633666992,-2.237362723350525,-0.9271284794807435,-1.1908588409423828,-0.8157383060455323,-1.8247546216122303,0.5283382869871925,0.0,-0.003749847412109375,-30.71875,-1.349945068359375,0.0457763746380806,16.479494869709015,4.013398821893852e-05,1,1789168770.751716,38.99020971833333,-76.93874902,-11.490000000000002,0,1,10.504081000000001,11.648568999999998,133.17159999999998,1,1,1789168771.4630458,-0.8714040018687228,0.48961318826057215,-0.00812927955998388,-0.029460248171532692,177.51124306728056,-2.4653974341632443,-58.6068324774285,-0.010393261162701032,0.041689283578986956,-0.05086430492379594,0.33450483701705935,0.4259028165245056,-9.649155360145569
2026-09-11T19:19:31.501,2.473236159999942,-3.3092610836029053,-297.8334975242615,-1191.333990097046,-2.26684384226799,-0.9566095983982087,-1.244408369064331,-0.8524197328090668,-1.906808636383916,-1.0974997475874395,0.0,-0.0021800994873046875,-17.859375,-0.7848358154296875,0.0762939602136612,27.46582567691803,328.70845961233255,1,1789168770.751716,38.99020971833333,-76.93874902,-11.490000000000002,0,1,10.504081000000001,11.648568999999998,133.17159999999998,1,1,1789168771.495046,-0.8714033043308399,0.4895428367223958,-0.010793082682882456,-0.0297926430731435,177.62709617818822,-2.7500962137713514,-58.59643459484117,0.025218960493766863,0.015813206621844225,0.007625692567813624,1.2805523781204224,-0.14082349632263183,-9.45782761548996
2026-09-11T19:19:31.535,2.5066559360000156,-3.350282907485962,-301.5254616737366,-1206.1018466949463,-2.294943791627884,-0.9847095477581025,-1.2713056802749634,-0.87084439098835,-1.9480234229338516,-0.5513100440662055,0.0,-0.001068115234375,-8.75,-0.384521484375,-0.0457763709127903,-16.479493528604507,-1314.9495438098095,1,1789168770.751716,38.99020971833333,-76.93874902,-11.490000000000002,0,1,10.504081000000001,11.648568999999998,133.17159999999998,1,1,1789168771.5230458,-0.8715676487588363,0.48923072763723874,-0.012457982682006818,-0.02946060827658359,177.75261051854346,-2.8970786996367375,-58.55613778239028,0.028352873698647883,0.03740310400193928,-0.02182988015224428,0.7275553754997254,0.29596470188140866,-7.295755454330444
2026-09-11T19:19:31.568,2.5400795840000683,-3.389301300048828,-305.03711700439453,-1220.1484680175781,-2.3216713905334476,-1.0114371466636658,-1.167693018913269,-0.7998697179555894,-1.7892576010101746,2.1234867310907743,0.0,-6.67572021484375e-05,-0.546875,-0.0240325927734375,0.0,0.0,493.0489193931949,1,1789168770.751716,38.99020971833333,-76.93874902,-11.490000000000002,0,1,10.504081000000001,11.648568999999998,133.17159999999998,1,1,1789168771.563046,-0.8715202810977617,0.4891956912005933,-0.014194450196149781,-0.03063483196756586,177.73225407444278,-3.1364680446864677,-58.55003680946983,0.012448386356924355,0.04082709092850176,-0.006888640024696419,-0.18093269548416138,0.3088114135932922,-9.059481485919953
2026-09-11T19:19:31.602,2.5735083199999735,-3.4311530590057373,-308.80377531051636,-1235.2151012420654,-2.3503398454189304,-1.0401056015491486,-1.1958829164505005,-0.8191797977685928,-1.832453019346349,-0.5776491164086553,0.0,0.002576828235760331,21.109376907348633,0.9276581648737192,0.0762939602136612,27.46582567691803,821.6232189274483,1,1789168770.751716,38.99020971833333,-76.93874902,-11.490000000000002,0,1,10.504081000000001,11.648568999999998,133.17159999999998,1,1,1789168771.5950458,-0.8714914996513102,0.4893134910889971,-0.013548796816425403,-0.02985470781359959,177.77457311298136,-3.028457440502361,-58.56668804991403,-0.04094821677859016,0.03581275998752204,0.022418056110166364,-1.0397010501480102,-0.926041974773407,-11.235479090309143
2026-09-11T19:19:31.635,2.6069287360001,-3.4702701568603516,-312.32431411743164,-1249.2972564697266,-2.377135057449341,-1.0669008135795595,-1.1963073015213013,-0.8194705015420914,-1.8331033051675254,-0.008698388838053444,0.0,0.0019207003060728312,15.734376907348633,0.6914521101862192,0.0,0.0,-821.8277617135044,1,1789168770.751716,38.99020971833333,-76.93874902,-11.490000000000002,0,1,10.504081000000001,11.648568999999998,133.17159999999998,1,1,1789168771.6240458,-0.8716199111816435,0.4890750829638106,-0.014914494444821744,-0.029357307626913836,177.90003465738155,-3.1365276026110225,-58.536981159239424,-0.05578578434856955,0.07580156927629093,-0.03242141071797187,-1.605544764480591,0.0963993710899353,-8.175608106842041
2026-09-11T19:19:31.669,2.64034940800002,-3.5073680877685547,-315.6631278991699,-1262.6525115966797,-2.40254714012146,-1.0923128962516786,-1.1189870834350586,-0.7665061521530152,-1.7146254298340515,1.5847781094647877,0.0,0.002737045520916581,22.421876907348633,0.9853363875299692,0.0610351637005806,21.972658932209015,657.457125106925,1,1789168770.751716,38.99020971833333,-76.93874902,-11.490000000000002,0,1,10.504081000000001,11.648568999999998,133.17159999999998,1,1,1789168771.6640458,-0.8716302265930932,0.48886846938860434,-0.016890966019598105,-0.03135383539283731,177.81007729588814,-3.445619064338516,-58.507365157306076,-0.036127617384581825,0.09922318970635402,-0.008341626626981699,0.29194397531509403,0.1466094199180603,-10.362687225914001
2026-09-11T19:19:31.702,2.673768480000035,-3.544358491897583,-318.99226427078247,-1275.9690570831299,-2.4278855669498447,-1.1176513230800629,-1.1192572116851807,-0.7666911900043488,-1.7150393477191033,-0.0055368937633435734,0.0,0.0038414003793150187,31.468751907348633,1.3829041365534067,0.1525879055261612,54.93164598941803,986.2328629949412,1,1789168770.751716,38.99020971833333,-76.93874902,-11.490000000000002,0,1,10.504081000000001,11.648568999999998,133.17159999999998,1,1,1789168771.6960459,-0.871637625649191,0.48888561596375907,-0.017024668969596066,-0.030803647557595334,177.8727246615607,-3.4281955000224524,-58.5108736549005,-0.023514122880418802,0.01429110498117997,0.013715844459722638,0.4157039003562927,0.07992419881820678,-9.033101596984864
2026-09-11T19:19:31.735,2.7071848959999443,-3.5783050060272217,-322.04745054244995,-1288.1898021697998,-2.451138929128647,-1.1409046852588653,-1.0152802467346191,-0.6954669690132141,-1.5557153029107313,2.131414122667388,0.0,0.009599686600267887,78.64063262939453,3.4558871760964394,0.2288818657398224,82.39747166633606,821.9261358546878,1,1789168770.751716,38.99020971833333,-76.93874902,-11.490000000000002,0,1,10.504081000000001,11.648568999999998,133.17159999999998,1,1,1789168771.7240458,-0.8717096859173228,0.4887674723149002,-0.016456593560385507,-0.03094773034026879,177.82602421663526,-3.3791570502075485,-58.49454989646072,-0.0027241098965127496,-0.05395947181928269,0.0006262241356155655,0.7159835283088685,0.7962019266319275,-9.760264706478118
2026-09-11T19:19:31.770,2.74060518400006,-3.6161229610443115,-325.45106649398804,-1301.8042659759521,-2.4770442283153535,-1.166809984445572,-1.1198358535766602,-0.7670875597000123,-1.7159260014764035,-2.14302733377253,0.0,0.021017076447606087,172.17189025878906,7.566147521138191,0.3051758110523224,109.86329197883606,821.8307488075765,1,1789168771.7544856,38.99020789833333,-76.93875315166666,-11.539000000000001,0,1,10.195249,11.444689,116.76963599999998,1,1,1789168771.7630458,-0.8716929969029873,0.4889442087192097,-0.01366692097717874,-0.02996823620499257,177.768540062973,-3.045691267903172,-58.51796376534869,0.006681294909559493,-0.04716682490344595,0.008468686596526885,-1.2882015652465821,2.0241906598854067,-10.305906721477509
2026-09-11T19:19:31.802,2.7740207040001224,-3.6543009281158447,-328.887083530426,-1315.548334121704,-2.503196135759354,-1.1929618918895721,-1.1984748840332031,-0.8209552955627442,-1.8364246947985488,-1.6120573871850985,0.0,0.03435707464814186,281.4531555175781,12.36854687333107,0.4119873344898224,148.31544041633606,1150.7272200889972,1,1789168771.7544856,38.99020789833333,-76.93875315166666,-11.539000000000001,0,1,10.195249,11.444689,116.76963599999998,1,1,1789168771.7950459,-0.8714588501698817,0.48931801335453506,-0.01148674388510687,-0.031550102730044806,177.48937422242565,-2.9174160808863547,-58.56386545777109,0.02545719793666409,-0.04825032530308404,0.031679645785874275,0.28507932020187376,1.6101538900566101,-10.912448033981322
2026-09-11T19:19:31.835,2.8074362879999626,-3.698681592941284,-332.8813433647156,-1331.5253734588623,-2.53359689116478,-1.2233626472949983,-1.3020174503326416,-0.8918819534778596,-1.995083109962998,-2.1225622726047386,0.0,0.0392150916159153,321.2500305175781,14.117432981729507,0.0,0.0,-4438.511097607786,1,1789168771.7544856,38.99020789833333,-76.93875315166666,-11.539000000000001,0,1,10.195249,11.444689,116.76963599999998,1,1,1789168771.824046,-0.8712801783806702,0.48962341514853613,-0.008469504413389974,-0.0326807220578601,177.2081510415791,-2.680191956938495,-58.603046935136895,0.011183720780929265,-0.027435528643799664,0.03887720908817369,-0.08423912488937378,1.3118355921363831,-9.199814649734497
2026-09-11T19:19:31.869,2.840854464000131,-3.7466275691986084,-337.19648122787476,-1348.785924911499,-2.566439884901047,-1.2562056410312654,-1.4323464632034302,-0.9811573272943498,-2.194786433639828,-2.671461596708341,0.0,0.04202652350068092,344.2812805175781,15.129548460245132,0.1068115383386612,38.45215380191803,1150.6359234484933,1,1789168771.7544856,38.99020789833333,-76.93875315166666,-11.539000000000001,0,1,10.195249,11.444689,116.76963599999998,1,1,1789168771.8640459,-0.8707826092487094,0.49032070549221324,-0.007622080199160335,-0.03556904678319755,176.87384938978553,-2.760135964300991,-58.690694226786675,-0.0024338616419060924,0.004730016805829832,0.04577963721396087,1.2774142500686645,1.1213904459953308,-10.318557300186157
2026-09-11T19:19:31.902,2.8742700160000823,-3.797166109085083,-341.74494981765747,-1366.9797992706299,-2.601058784723282,-1.2908245408535004,-1.5109854936599731,-1.0350250631570816,-2.315285126961973,-1.6120558434231582,0.0,0.044355396181344986,363.3594055175781,15.967942625284195,0.1373291164636612,49.43848192691803,328.7788908893685,1,1789168771.7544856,38.99020789833333,-76.93875315166666,-11.539000000000001,0,1,10.195249,11.444689,116.76963599999998,1,1,1789168771.8950458,-0.8703645154786577,0.4909478964520707,-0.0059000839419449825,-0.03742942925515414,176.59307857860753,-2.6951701030686386,-58.772051752895386,0.011288266003123725,-0.013098172437441845,0.05109940077403958,-0.29518016986846923,1.203472107849121,-10.189795983562469
2026-09-11T19:19:31.935,2.907686080000076,-3.852140426635742,-346.6926383972168,-1386.7705535888672,-2.6387161922454836,-1.328481948375702,-1.6414353847503662,-1.124383238554001,-2.5151736724991043,-2.6741083389395075,0.0,0.04734230414032936,387.8281555175781,17.04322949051857,0.1220703274011612,43.94531786441803,-164.3869266739807,1,1789168771.7544856,38.99020789833333,-76.93875315166666,-11.539000000000001,0,1,10.195249,11.444689,116.76963599999998,1,1,1789168771.9230459,-0.8699148271289062,0.4916779499713728,-0.005303939261112472,-0.03837779672607158,176.46701378751905,-2.692000271583846,-58.86743728637415,-0.004565955856142365,-0.038941262671721884,0.05259671873932552,1.8471806244659423,0.8606316181945801,-8.86756534225464
2026-09-11T19:19:31.969,2.9411039999999957,-3.910489082336426,-351.9440174102783,-1407.7760696411133,-2.678685021400452,-1.3684507775306702,-1.7461073398590088,-1.1960835278034212,-2.675562651671931,-2.145564094042726,0.0,0.050779346376657486,415.9844055175781,18.280564695596695,0.1220703274011612,43.94531786441803,0.0,1,1789168771.7544856,38.99020789833333,-76.93875315166666,-11.539000000000001,0,1,10.195249,11.444689,116.76963599999998,1,1,1789168771.9640458,-0.8691507439960205,0.492876585151044,-0.003372486747694996,-0.040475700786349454,176.15228497665174,-2.622853865870636,-59.025150904144624,0.004845732135237056,-0.03978582749676194,0.055465167364978196,0.018828768310546876,1.7224400344085693,-9.416639684810638
2026-09-11T19:19:32.002,2.97452419199999,-3.9719512462615967,-357.4756121635437,-1429.9024486541748,-2.720786603689194,-1.4105523598194123,-1.8502964973449707,-1.267453100681305,-2.8352118393908903,-2.135522527156527,0.0,0.05561066046357155,455.5625305175781,20.019837766885757,0.2441406548023224,87.89063572883606,1314.9331357649216,1,1789168771.7544856,38.99020789833333,-76.93875315166666,-11.539000000000001,0,1,10.195249,11.444689,116.76963599999998,1,1,1789168771.995046,-0.868590918326158,0.4937995515798823,7.640153501662013e-05,-0.0413740694594366,175.8705864008458,-2.334203638375827,-59.152857084316935,0.010759431239769442,-0.028522170636091335,0.06947160914515789,-0.8186591555023193,1.5270915631866455,-9.79380345003128
2026-09-11T19:19:32.036,3.0079427519999626,-4.036653518676758,-363.2988166809082,-1453.1952667236328,-2.7651076602935794,-1.4548734164237977,-1.9547089338302612,-1.338975619673729,-2.9952031578241938,-2.140203497472131,0.0,0.06878472119569778,563.4844360351562,24.762499630451202,0.3967285752296448,142.82228708267212,1643.7468087757459,1,1789168771.7544856,38.99020789833333,-76.93875315166666,-11.539000000000001,0,1,10.195249,11.444689,116.76963599999998,1,1,1789168772.0230458,-0.8679285865646161,0.49507480650000213,0.0011634158976628723,-0.039994387811070196,175.9500341106101,-2.153734341910671,-59.325542293637746,0.019486077499741093,-0.07573489769886474,0.08892243099400869,-0.5320107712745666,1.2864363682174682,-9.728098893947601
2026-09-11T19:19:32.069,3.0413614720000623,-4.103185653686523,-369.2867088317871,-1477.1468353271484,-2.8106821727752687,-1.5004479289054873,-2.007230281829834,-1.3749527430534363,-3.07568169079598,-1.0765559955497972,0.0,0.07037735730409622,576.5313110351562,25.33584862947464,0.0610351599752903,21.972657591104507,-3616.2255613382868,1,1789168771.7544856,38.99020789833333,-76.93875315166666,-11.539000000000001,0,1,10.195249,11.444689,116.76963599999998,1,1,1789168772.063046,-0.8669043126190932,0.49684592135554495,0.0010532363259450797,-0.04024840230392674,175.9353940424057,-2.1874194980259003,-59.55870793267924,-0.024513847475961154,-0.09524366447888176,0.10684923134001806,-0.05550563991546631,0.5227925201225281,-10.35170377773285
2026-09-11T19:19:32.102,3.07477734400004,-4.171618938446045,-375.44570446014404,-1501.7828178405762,-2.857558972835541,-1.5473247289657595,-2.0601065158843994,-1.4111729633808137,-3.1567040161524966,-1.0839226439280556,0.0,0.07439804822206497,609.4688110351562,26.78329735994339,0.2136230617761612,76.90430223941803,1643.8788324407662,1,1789168771.7544856,38.99020789833333,-76.93875315166666,-11.539000000000001,0,1,10.195249,11.444689,116.76963599999998,1,1,1789168772.0950458,-0.8660236098859485,0.49839897881300493,0.003302755737409317,-0.03988303953817367,175.84738087111634,-1.9504272706865786,-59.77037315163042,-0.02059872489788748,-0.09565189699092323,0.12051446125143285,1.9655468919181824,1.3557693848609926,-10.333169208927155
2026-09-11T19:19:32.136,3.108193920000076,-4.242508888244629,-381.8257999420166,-1527.3031997680664,-2.906118588447571,-1.5958843445777895,-2.1128978729248047,-1.4473350429534912,-3.2375962843447783,-1.0821599308271028,0.0,0.08056069165468216,659.9531860351562,29.001848995685577,0.12207034230232239,43.94532322883606,-986.3062873511176,1,1789168771.7544856,38.99020789833333,-76.93875315166666,-11.539000000000001,0,1,10.195249,11.444689,116.76963599999998,1,1,1789168772.1240458,-0.865165164080328,0.49996920637792286,0.0067998481830584935,-0.0383900195412378,175.7991606767578,-1.5254896554982658,-59.99031569289412,0.0006988298324985295,-0.11624049897914915,0.1063999835905547,-2.233170374832153,0.05511337390899658,-9.523237972068786
2026-09-11T19:19:32.170,3.141612544000054,-4.316127777099609,-388.45149993896484,-1553.8059997558594,-2.9565475273132327,-1.646313283443451,-2.191605567932129,-1.5012498140335084,-3.3582001924514735,-1.6133151107613692,0.0,0.08755875378847122,717.2813110351562,31.52115136384964,0.015258817933499813,5.493174456059933,-1150.6203478874938,1,1789168771.7544856,38.99020789833333,-76.93875315166666,-11.539000000000001,0,1,10.195249,11.444689,116.76963599999998,1,1,1789168772.1640458,-0.863525759206899,0.5026705321349684,0.009604330567455601,-0.0394126393895113,175.5411022746469,-1.3199806834495702,-60.35718747107583,-0.05396366060948747,-0.08121261355624894,0.1340124886205066,0.492097705116272,1.5261108981704712,-9.70142480550766
2026-09-11T19:19:32.203,3.1750309760000164,-4.391948223114014,-395.27534008026123,-1581.101360321045,-3.0084845328330996,-1.698250288963318,-2.2703874111175537,-1.5552153766155243,-3.478917717912318,-1.614844244699361,0.0,0.08765412122011185,718.0625610351562,31.555483639240265,-0.0762939527630806,-27.465822994709015,-986.2520614613586,1,1789168771.7544856,38.99020789833333,-76.93875315166666,-11.539000000000001,0,1,10.195249,11.444689,116.76963599999998,1,1,1789168772.195046,-0.8620347113750523,0.5050330811423309,0.011173323298524435,-0.04138719829706695,175.25845188507134,-1.2915690578252355,-60.675328593686665,-0.044793351653658865,-0.04512862940296698,0.18124633416722916,-0.08571012241363525,1.4263772660255432,-9.272874193439485
2026-09-11T19:19:32.236,3.208455008000101,-4.472344875335693,-402.5110387802124,-1610.0441551208496,-3.0635562396049503,-1.7533219957351687,-2.401346206665039,-1.6449221515655519,-3.679586058441191,-2.6839004626910605,0.0,0.08761406689882278,717.7344360351562,31.541064083576202,0.0457763709127903,16.479493528604507,1314.7820263935378,1,1789168771.7544856,38.99020789833333,-76.93875315166666,-11.539000000000001,0,1,10.195249,11.444689,116.76963599999998,1,1,1789168772.2360458,-0.8601302661420137,0.508219360570587,0.011772762861410538,-0.04183788788049791,175.18382320082486,-1.2762790742443764,-61.10088515395859,-0.1217046012683678,-0.010089050274078422,0.1646405735320543,-3.5161744154930115,0.3367603665542603,-10.045638226184845
2026-09-11T19:19:32.271,3.241866944000094,-4.556665420532227,-410.0998878479004,-1640.3995513916016,-3.1213158130645753,-1.811081569194794,-2.506028890609741,-1.7166297900676728,-3.839991477424103,-2.1461683184756377,0.0,0.09144402295351028,749.1094360351562,32.9198482632637,0.06103518605232239,21.97266697883606,164.4075174282831,1,1789168771.7544856,38.99020789833333,-76.93875315166666,-11.539000000000001,0,1,10.195249,11.444689,116.76963599999998,1,1,1789168772.2630458,-0.8587870467820153,0.5103268054475414,0.014159296500637384,-0.043021788011879676,174.93063014669562,-1.1225363787736165,-61.391374565704055,-0.10379315981977598,-0.060515626621474194,0.18111717980258157,-3.0692853676223755,3.2223671766471864,-8.038609204082489
2026-09-11T19:19:32.304,3.2752883519999614,-4.640700340270996,-417.66303062438965,-1670.6521224975586,-3.1788797330856324,-1.868645489215851,-2.4807262420654297,-1.6992974758148194,-3.801220194646603,0.5185991641322293,0.0,0.10017586499452591,820.6406860351562,36.06331139802933,0.3356934189796448,120.84963083267212,2958.4918700680846,1,1789168771.7544856,38.99020789833333,-76.93875315166666,-11.539000000000001,0,1,10.195249,11.444689,116.76963599999998,1,1,1789168772.2950459,-0.8570526451910866,0.5132802773453796,0.014494587604452786,-0.042355958133286645,174.98035294342955,-1.0678091479167757,-61.78713582880389,-0.04169504316551854,-0.18654131405192953,0.17318134222668854,6.77933725681305,-0.08875018396377564,-12.661464090328217
2026-09-11T19:19:32.337,3.308711807999998,-4.7230544090271,-425.07489681243896,-1700.2995872497559,-3.2352922701835634,-1.925058026313782,-2.456050157546997,-1.6823943579196932,-3.763408996778121,0.505726215000256,0.0,0.11320114880800247,927.3438110351562,40.75241357088089,0.030517637729644775,10.98634958267212,-3287.011410486066,1,1789168771.7544856,38.99020789833333,-76.93875315166666,-11.539000000000001,0,1,10.195249,11.444689,116.76963599999998,1,1,1789168772.336046,-0.8551435052518646,0.5167194448743146,0.0165489607488974,-0.03816716668113601,175.27437362413283,-0.6382859946330915,-62.2585030059336,0.023821126295844604,-0.33100605596385463,0.15778579289484657,0.8500404360198974,-0.8184630224990845,-9.22952879972458
2026-09-11T19:19:32.371,3.3421284799999285,-4.802839279174805,-432.2555351257324,-1729.0221405029297,-3.2899449062347417,-1.9797106623649599,-2.405785083770752,-1.6479627823829652,-3.686387755867402,1.0303711733113277,0.0,0.11374474316835403,931.7969360351562,40.94810754060745,0.1220703199505806,43.945315182209015,986.3030525483113,1,1789168771.7544856,38.99020789833333,-76.93875315166666,-11.539000000000001,0,1,10.195249,11.444689,116.76963599999998,1,1,1789168772.363046,-0.8536229590692704,0.5191316923744348,0.018858911295322252,-0.03839884356374227,175.11596529518525,-0.4395382243370006,-62.59309352300279,-0.0034363787642516354,-0.19737492178490873,0.23473823227990256,1.4057833006858826,2.261315460796356,-12.081498799762725
2026-09-11T19:19:32.404,3.375541280000107,-4.880450248718262,-439.24052238464355,-1756.9620895385742,-3.3431084203720096,-2.032874176502228,-2.3291637897491455,-1.5954771959781648,-3.568980842828747,1.5708227506979444,0.0,0.11362839490175247,930.8438110351562,40.90622216463089,-0.0762939602136612,-27.46582567691803,-2137.2390478722505,1,1789168771.7544856,38.99020789833333,-76.93875315166666,-11.539000000000001,0,1,10.195249,11.444689,116.76963599999998,1,1,1789168772.3950458,-0.8521004773113267,0.5218694054402307,0.019969433181619648,-0.03432669470942817,175.44922141201843,-0.10291338381303201,-62.96672876969723,-0.003925070954810048,-0.1602044701722603,0.17052809269780678,1.303892205505371,-3.254729122180939,-9.42154300989151
2026-09-11T19:19:32.437,3.4089606720001484,-4.949561595916748,-445.4605436325073,-1781.8421745300293,-3.3904496932029726,-2.080215449333191,-2.07017183303833,-1.4180677056312563,-3.1721271153168726,5.308579232880346,0.0,0.11168671399354935,914.9375610351562,40.207217037677765,-0.0915527492761612,-32.95898973941803,-164.37055654672466,1,1789168771.7544856,38.99020789833333,-76.93875315166666,-11.539000000000001,0,1,10.195249,11.444689,116.76963599999998,1,1,1789168772.436046,-0.8503712318418548,0.524892109629386,0.02086305215936166,-0.030360737131611817,175.782777431901,0.20686434055447717,-63.37758034407012,0.012196884411711972,-0.10442671433824992,0.11369388906756421,-3.4546867189788815,-1.7727481497383117,-10.825364980545043
2026-09-11T19:19:32.471,3.442383040000095,-5.016383171081543,-451.47448539733887,-1805.8979415893555,-3.4362224721908574,-2.125988228321076,-1.9419872760772705,-1.3302612841129304,-2.9757097443471032,2.6271753550934993,0.0,0.10666275769472122,873.7813110351562,38.39859277009964,-0.2593994438648224,-93.38379979133606,-1807.9152875108732,1,1789168771.7544856,38.99020789833333,-76.93875315166666,-11.539000000000001,0,1,10.195249,11.444689,116.76963599999998,1,1,1789168772.4630458,-0.8492521531851007,0.5267861740005358,0.020341188783491154,-0.02921203914863962,175.92580578064195,0.21615457452471018,-63.62986174020717,0.040899696625384716,-0.09545851450980225,0.17468756137115965,1.447265430870056,0.3890298119163513,-8.672216871032715
2026-09-11T19:19:32.504,3.4758085119999578,-5.081447601318359,-457.33028411865234,-1829.3211364746094,-3.4807916069030767,-2.170557363033295,-1.917353868484497,-1.3133873999118806,-2.937963940389851,0.5048211196873817,0.0,0.09821701794862747,804.5938110351562,35.35812646150589,-0.2593994438648224,-93.38379979133606,0.0,1,1789168771.7544856,38.99020789833333,-76.93875315166666,-11.539000000000001,0,1,10.195249,11.444689,116.76963599999998,1,1,1789168772.495046,-0.8482100093878684,0.5284538025125642,0.01834594414162578,-0.030655911628857956,175.9058658038788,-0.07322627411327914,-63.84504096290833,-0.01942359471251969,0.014171898993268756,0.12516279664826935,2.7801853208541867,1.2791794470977784,-8.950921868629456
2026-09-11T19:19:32.537,3.5092302079999627,-5.147544860839844,-463.27903747558594,-1853.1161499023438,-3.5260682296752934,-2.215833985805512,-1.9443297386169434,-1.3318658709526063,-2.979299102882527,-0.552888490180841,0.0,0.08266831189393997,677.2188110351562,29.76059228181839,-0.5187988877296448,-186.76759958267212,-2794.1071509752946,1,1789168771.7544856,38.99020789833333,-76.93875315166666,-11.539000000000001,0,1,10.195249,11.444689,116.76963599999998,1,1,1789168772.5350459,-0.8470078034065822,0.5304334876956134,0.014405895750487958,-0.03178940494961294,176.03555097271166,-0.5340340563422448,-64.09472867982375,-0.00013596114873035828,0.13123933497201282,0.1033887670320889,0.09433997455596924,-0.5392676923942565,-9.837835309257507
2026-09-11T19:19:32.571,3.5426482880000094,-5.213842868804932,-469.24585819244385,-1876.9834327697754,-3.5714823651313785,-2.261248121261597,-1.9453054666519165,-1.332534244656563,-2.980794212277562,-0.020000362197817003,0.0,0.07823563367128372,640.9063110351562,28.16482812166214,-0.1068115308880806,-38.452151119709015,4438.1798254943305,1,1789168771.7544856,38.99020789833333,-76.93875315166666,-11.539000000000001,0,1,10.195249,11.444689,116.76963599999998,1,1,1789168772.563053,-0.8460921945056855,0.5318132282804776,0.014800827702874891,-0.03291844652713495,175.90271484979954,-0.5710880098971016,-64.28259387517717,0.015740600924961257,0.04741291632797716,0.13359622759390594,-3.47577101682663,1.3575345818901061,-8.535512167778016
2026-09-11T19:19:32.604,3.5760762560000785,-5.286013126373291,-475.7411813735962,-1902.9647254943848,-3.6209189915657047,-2.310684747695923,-2.1295275688171387,-1.45872638463974,-3.26307798997794,-3.775046690930072,0.0,0.07843590527772903,642.5469360351562,28.236925899982452,0.1678466945886612,60.42481005191803,2957.9112069098155,1,1789168771.7544856,38.99020789833333,-76.93875315166666,-11.539000000000001,0,1,10.195249,11.444689,116.76963599999998,1,1,1789168772.595053,-0.8449700865038468,0.533439184620129,0.013901802141923806,-0.035706149648208785,175.6883891223127,-0.8365999487232029,-64.497870163866,-0.011904716294928123,0.0976967247425598,0.14250473716193543,2.252881741657257,2.209536347942352,-8.07979713476181
2026-09-11T19:19:32.638,3.6094943360001253,-5.361900329589844,-482.57102966308594,-1930.2841186523438,-3.672901725769043,-2.3626674818992615,-2.2597601413726807,-1.5479356968402864,-3.462633538028554,-2.6694924484118054,0.0,0.08403588086366653,688.4219360351562,30.252917110919952,0.1678467094898224,60.42481541633606,0.000160524423598772,1,1789168771.7544856,38.99020789833333,-76.93875315166666,-11.539000000000001,0,1,10.195249,11.444689,116.76963599999998,1,1,1789168772.635053,-0.8433725295305635,0.5358561062589237,0.012238317125354005,-0.03783164564466318,175.5870985895772,-1.1403596025797686,-64.81760888722592,0.017561677466492145,-0.045020418989343336,0.14338351044031455,2.3318252754592894,0.1689685822868347,-10.697584328937532
2026-09-11T19:19:32.671,3.642964928000083,-5.439797878265381,-489.5818090438843,-1958.327236175537,-3.726261546611786,-2.4160273027420045,-2.33772611618042,-1.6013423895835879,-3.582100907264643,-1.5956303594322065,0.0,0.09069252759218216,742.9531860351562,32.64930993318558,0.1678467094898224,60.42481541633606,0.0,1,1789168771.7544856,38.99020789833333,-76.93875315166666,-11.539000000000001,0,1,10.195249,11.444689,116.76963599999998,1,1,1789168772.664053,-0.8419797795195055,0.5379478650670584,0.012770213919045103,-0.03897520989732844,175.44657303615662,-1.1705619031763725,-65.10315368125008,0.03724026478272821,-0.050173852671706994,0.17268706498252376,1.361555308456421,1.58151847158432,-7.549649627017975
2026-09-11T19:19:32.704,3.6763865919999716,-5.520909786224365,-496.88188076019287,-1987.5275230407715,-3.7818232035636905,-2.471588959693909,-2.4162330627441406,-1.6551196479797365,-3.7023972082581755,-1.6090538878114504,0.0,0.09712601453065872,795.6563110351562,34.96536523103714,0.2136230766773224,76.90430760383606,493.07814798075145,1,1789168771.7544856,38.99020789833333,-76.93875315166666,-11.539000000000001,0,1,10.195249,11.444689,116.76963599999998,1,1,1789168772.6950529,-0.8404182658365774,0.5403151343163325,0.015305032994022538,-0.039018585853607686,175.28875865968666,-0.9419510317928037,-65.43616505367265,0.03356739390483134,-0.10008136809955964,0.2047121114273677,-1.6093693580436708,1.6194702077102663,-8.00762018957138
2026-09-11T19:19:32.738,3.709800704000145,-5.605306148529053,-504.47755336761475,-2017.910213470459,-3.8396347117424012,-2.5294004678726196,-2.5204596519470215,-1.7265148615837098,-3.862103752647879,-2.13667846697836,0.0,0.10619736462831497,869.9688110351562,38.23105126619339,0.2899170219898224,104.37012791633606,821.9826494972435,1,1789168771.7544856,38.99020789833333,-76.93875315166666,-11.539000000000001,0,1,10.195249,11.444689,116.76963599999998,1,1,1789168772.735053,-0.83810714130254,0.543881958678144,0.015417888458173485,-0.03912957241781769,175.27507360167598,-0.9580330621719108,-65.92284658266797,-0.04135505302723004,-0.13233993959832044,0.18952547800698943,7.100603116111755,0.20780291692733766,-4.9532409301948555
2026-09-11T19:19:32.771,3.7432235200001287,-5.6915717124938965,-512.2414541244507,-2048.9658164978027,-3.8987266230583195,-2.588492379188538,-2.5467047691345215,-1.7444927668571473,-3.9023191814091476,-0.5378931946801291,0.0,0.10779000073671341,883.0156860351562,38.80440026521683,-0.015258795581758022,-5.493166409432888,-3287.074743367584,1,1789168772.7529693,38.99020534833333,-76.938760215,-11.611,0,1,10.195249,11.437924,116.726416,1,1,1789168772.7640529,-0.8364323077255753,0.5464709216644253,0.017832865671943525,-0.03784858346131373,175.2498193325793,-0.6608831175607845,-66.28861024736919,-0.027031310389037777,-0.10678011630163908,0.21262787771686278,2.209536347942352,-1.0381319861221312,-9.767031295089721
2026-09-11T19:19:32.805,3.7766454719999274,-5.775566101074219,-519.8009490966797,-2079.2037963867188,-3.95626277923584,-2.6460285353660584,-2.520719051361084,-1.7266925501823427,-3.8625012307228452,0.532590576244972,0.0,0.10574723035097122,866.2813110351562,38.06900292634964,-0.1525879055261612,-54.93164598941803,-1479.2217875330239,1,1789168772.7529693,38.99020534833333,-76.938760215,-11.611,0,1,10.195249,11.437924,116.726416,1,1,1789168772.795053,-0.8346993743711406,0.5493140704600418,0.01657058701926636,-0.03544604441801059,175.56181976716903,-0.6462587960454813,-66.6726344843011,0.10304772969624922,-0.02759156107892796,0.2086186818921066,-1.5233650361251831,-1.849141954498291,-13.36891583299637
2026-09-11T19:19:32.838,3.810066175999964,-5.854893684387207,-526.9404315948486,-2107.7617263793945,-4.010602173805237,-2.7003679299354557,-2.442885160446167,-1.6733763349056245,-3.743236253815369,1.5953049725301995,0.0,0.10269928723573685,841.3125610351562,36.971743404865265,-0.1831054836511612,-65.91797411441803,-328.7282076699522,1,1789168772.7529693,38.99020534833333,-76.938760215,-11.611,0,1,10.195249,11.437924,116.726416,1,1,1789168772.835053,-0.8328449629520516,0.5521805772952579,0.020307366501794426,-0.03245748925954338,175.61310726022847,-0.11568108879844174,-67.08474291452711,-0.1080329136387206,-0.10838581921347386,0.15427471403860957,-0.6500828392219543,0.95036246717453,-5.256168353691101
2026-09-11T19:19:32.871,3.843486111999937,-5.938777446746826,-534.4899702072144,-2137.9598808288574,-4.068062551021576,-2.7578283071517946,-2.521322727203369,-1.727106068134308,-3.8634262440370124,-1.6077150246106682,0.0,0.08480644971132278,694.7344360351562,30.530321896076202,-0.9002686142921448,-324.0967011451721,-7725.290887180726,1,1789168772.7529693,38.99020534833333,-76.938760215,-11.611,0,1,10.195249,11.437924,116.726416,1,1,1789168772.863053,-0.8312364831003441,0.5544178509578027,0.020013867701391002,-0.03558371540373971,175.33379685872023,-0.3543182154099517,-67.39052837182679,-0.16173110966897974,0.021152168803694877,0.21424300540665833,0.22584715322494506,2.7210512203788757,-10.769074808616637
2026-09-11T19:19:32.905,3.8769084479999947,-6.022193908691406,-541.9974517822266,-2167.9898071289062,-4.125202827453614,-2.814968583583832,-2.4704432487487793,-1.692253625392914,-3.78546355000204,1.0427889523142182,0.0,0.06708336621522903,549.5469360351562,24.150011837482452,0.1525879055261612,54.93164598941803,11340.570184380116,1,1789168772.7529693,38.99020534833333,-76.938760215,-11.611,0,1,10.195249,11.437924,116.726416,1,1,1789168772.895053,-0.8296315912645662,0.5567206982368018,0.020809467563575833,-0.036612197288227316,175.1860174789152,-0.35736484297000226,-67.71181040274544,0.0026453955472478053,0.10110709810095671,0.1323432557238992,-0.6238990832901,-0.36215959047317503,-10.976191260032653
2026-09-11T19:19:32.938,3.9103289920001316,-6.105902671813965,-549.5312404632568,-2198.1249618530273,-4.1825433301925665,-2.8723090863227845,-2.5241198539733887,-1.7290220999717714,-3.867712285190966,-1.1001758253458351,0.0,0.05236244946718216,428.95318603515625,18.850481808185577,-0.8239746689796448,-296.6308808326721,-10519.353808862286,1,1789168772.7529693,38.99020534833333,-76.938760215,-11.611,0,1,10.195249,11.437924,116.726416,1,1,1789168772.936053,-0.8283393513167061,0.5586758199890266,0.01674895369651156,-0.038140788794663955,175.30160681935143,-0.851964519699267,-67.96066225465741,-0.051880784680157443,0.269690195880341,0.12980240539884588,-2.0190912018013,0.022359162368774412,-8.776363495750427
2026-09-11T19:19:32.972,3.943745759999956,-6.187252998352051,-556.8527698516846,-2227.4110794067383,-4.2382683038711555,-2.9280340600013735,-2.4467520713806152,-1.6760251688957215,-3.7491615266994445,1.585938265374083,0.0,0.03379441052675247,276.84381103515625,12.16598778963089,-0.21362310647964478,-76.90431833267212,6575.338539656315,1,1789168772.7529693,38.99020534833333,-76.938760215,-11.611,0,1,10.195249,11.437924,116.726416,1,1,1789168772.963053,-0.8279011218781763,0.559335443988763,0.01466385955692357,-0.03884024605541521,175.36943623348307,-1.0983701272025945,-68.04202847180113,-0.04841909864175189,0.17469524081986842,0.07409952418974605,3.3295538629150387,-1.080104448814392,-8.700165823993682
2026-09-11T19:19:33.005,3.97716319999995,-6.264920711517334,-563.8428640365601,-2255.3714561462402,-4.291470687389374,-2.9812364435195926,-2.2910261154174805,-1.5693528890609743,-3.5105424325809156,3.1921140528648224,0.0,0.036329276859760284,297.60943603515625,13.078539669513702,-0.015258795581758022,-5.493166409432888,2136.9426240685243,1,1789168772.7529693,38.99020534833333,-76.938760215,-11.611,0,1,10.195249,11.437924,116.726416,1,1,1789168772.995053,-0.8277251916248968,0.5596577742622698,0.010087550283364891,-0.039400814542480886,175.6099436002539,-1.570244462384991,-68.06817506039224,0.03375990372132631,0.20107275087110912,0.0022572343216042665,-1.482471304950714,-2.115490572891235,-15.117441556835175
2026-09-11T19:19:33.039,4.010581696000145,-6.342402458190918,-570.8162212371826,-2283.2648849487305,-4.344545683860779,-3.0343114399909976,-2.3180129528045654,-1.5878388726711274,-3.55189440021279,-0.5531662349510102,0.0,0.03774262219667435,309.18756103515625,13.587343990802765,0.1678466945886612,60.42481005191803,1972.499793556435,1,1789168772.7529693,38.99020534833333,-76.938760215,-11.611,0,1,10.195249,11.437924,116.726416,1,1,1789168773.035053,-0.8270475283443168,0.5605198240474728,0.008595135647001992,-0.041665769554352444,175.49212419883366,-1.8619711990223526,-68.18051635107464,-0.026492178183096727,0.046817235454271494,0.08093091741497706,-1.5075763293647766,1.2774142500686645,-8.022330164813996
2026-09-11T19:19:33.072,4.043994143999953,-6.422119140625,-577.99072265625,-2311.962890625,-4.399151611328126,-3.0889173674583437,-2.370089530944824,-1.6235113286972047,-3.631691411724237,-1.0676397020141148,0.0,0.04573822766542435,374.68756103515625,16.465761959552765,0.12207034230232239,43.94532322883606,-493.2139908807819,1,1789168772.7529693,38.99020534833333,-76.938760215,-11.611,0,1,10.195249,11.437924,116.726416,1,1,1789168773.063053,-0.8266729406144528,0.5611601397074106,0.008404657770196427,-0.040503192308494404,175.6162304902029,-1.8086553080355083,-68.2694712635084,0.12759246949997066,0.01977196243121776,0.04998884777099559,-4.092315112495422,1.8765025084495544,-10.760346889972688
2026-09-11T19:19:33.105,4.077411360000042,-6.5050201416015625,-585.4518127441406,-2341.8072509765625,-4.455938796997071,-3.145704553127289,-2.4742157459259033,-1.6948377859592438,-3.7912441525573595,-2.13442248635701,0.0,0.05260468274354935,430.93756103515625,18.937685787677765,0.2899170219898224,104.37012791633606,1808.1938569430545,1,1789168772.7529693,38.99020534833333,-76.938760215,-11.611,0,1,10.195249,11.437924,116.726416,1,1,1789168773.095053,-0.8259292868705618,0.5622429427627588,0.009965061516780881,-0.04030364688120748,175.53707989784832,-1.6537863826686092,-68.42490852701233,-0.04003977290292711,0.012999037735928566,0.09257941937571242,-0.10169496217727662,0.44463351833343506,-7.827275893096924
2026-09-11T19:19:33.139,4.110829312000078,-6.58794641494751,-592.9151773452759,-2371.6607093811035,-4.512743294239044,-3.202509050369263,-2.4749574661254883,-1.6953458642959596,-3.7923806914279656,-0.015203754458537253,0.0,0.07014084607362747,574.5938110351562,25.25070458650589,0.6408692002296448,230.71291208267212,3780.686026666126,1,1789168772.7529693,38.99020534833333,-76.938760215,-11.611,0,1,10.195249,11.437924,116.726416,1,1,1789168773.135053,-0.8246263279212067,0.5640665132694453,0.011905327754947587,-0.040971344599419125,175.35213914479652,-1.5234584828958193,-68.68451910555227,-0.07283258968572337,-0.02202518249554244,0.11296294517682899,-0.4593434935760498,0.837193724308014,-8.561107524700166
2026-09-11T19:19:33.172,4.144248287999972,-6.676322937011719,-600.8690643310547,-2403.4762573242188,-4.573281211853027,-3.263046967983246,-2.581001043319702,-1.7679857146739961,-3.954871408987997,-2.1736108963442806,0.0,0.07303429394960403,598.2969360351562,26.292345821857452,-0.0762939602136612,-27.46582567691803,-7725.5131264468655,1,1789168772.7529693,38.99020534833333,-76.938760215,-11.611,0,1,10.195249,11.437924,116.726416,1,1,1789168773.163053,-0.8237178006731465,0.5654444455371388,0.013925560262189888,-0.039593467097191526,175.35422453502235,-1.251115431778983,-68.88486768344924,0.06328738400656639,0.0051886893332539425,0.1363775842898841,-1.282513708152771,0.8262102761268616,-10.786040313396454
2026-09-11T19:19:33.206,4.177673248000019,-6.763472557067871,-608.7125301361084,-2434.8501205444336,-4.632978701591492,-3.3227444577217105,-2.582202911376953,-1.768808994293213,-3.956713033046732,-0.024630683752971977,0.0,0.07795143872499466,638.5781860351562,28.062517940998077,0.030517607927322388,10.98633885383606,1150.4027089546064,1,1789168772.7529693,38.99020534833333,-76.938760215,-11.611,0,1,10.195249,11.437924,116.726416,1,1,1789168773.1950529,-0.8223547394331726,0.5674336865561551,0.015218539438710344,-0.03898833095225213,175.33035211444496,-1.101092617829955,-69.16729665393642,0.02102859949265368,-0.034967322497855995,0.15460981725499248,0.24438172203063965,0.5258325816726684,-12.312249278068544
2026-09-11T19:19:33.239,4.211088991999986,-6.85515022277832,-616.9635200500488,-2467.8540802001953,-4.69577790260315,-3.385543658733368,-2.7396769523620605,-1.8766787123680115,-4.198010720221926,-3.228110619799592,0.0,0.08450890332460403,692.2969360351562,30.423205196857452,0.015258817933499813,5.493174456059933,-164.38851093010302,1,1789168772.7529693,38.99020534833333,-76.938760215,-11.611,0,1,10.195249,11.437924,116.726416,1,1,1789168773.236053,-0.8201528891318209,0.5704959483645486,0.016045929597952254,-0.04032541991968441,175.1544128458905,-1.1282695776187786,-69.59698346259076,-0.025151067185864285,-0.02540117286767507,0.1866172358743913,1.242110309486389,0.7836494144248962,-11.99088535226822
2026-09-11T19:19:33.272,4.244515999999976,-6.947673320770264,-625.2905988693237,-2501.162395477295,-4.759156224727631,-3.4489219808578495,-2.740525007247925,-1.8772596299648285,-4.199310195876938,-0.017378689615809427,0.0,0.0853576734662056,699.2500610351562,30.728762447834015,0.0,0.0,-164.33341733910592,1,1789168772.7529693,38.99020534833333,-76.938760215,-11.611,0,1,10.195249,11.437924,116.726416,1,1,1789168773.263053,-0.8187654513750575,0.5724012241284314,0.018449460786463957,-0.040491871376365,174.98370413907332,-0.9250021215231106,-69.87449155901555,-0.03591049842563373,0.01085856594128272,0.17678265460525364,0.13778343477249144,1.5295432257270813,-8.486184717464447
2026-09-11T19:19:33.306,4.27793974400015,-7.04365348815918,-633.9288139343262,-2535.7152557373047,-4.824902639389038,-3.514668395519257,-2.898226737976074,-1.985285315513611,-4.440956772355066,-3.232004336444744,0.0,0.08402062207460403,688.2969360351562,30.247423946857452,-0.1373291313648224,-49.43848729133606,-1479.1427103761382,1,1789168772.7529693,38.99020534833333,-76.938760215,-11.611,0,1,10.195249,11.437924,116.726416,1,1,1789168773.295053,-0.8170010844356128,0.5747497133931485,0.01891941965098864,-0.042591672256394146,174.7582851213332,-1.0339429931795223,-70.20445349951447,-0.04732268280564905,0.08111923844126724,0.18010768136322802,0.018044236297607423,2.534332601299286,-10.751913170833587
2026-09-11T19:19:33.340,4.311362528000018,-7.142262935638428,-642.8036642074585,-2571.214656829834,-4.892450110912323,-3.582215867042542,-2.924922466278076,-2.003571889400482,-4.4818626731399425,-0.5471289850343896,0.0,0.08283043652772903,678.5469360351562,29.818957149982452,-0.0915527492761612,-32.95898973941803,493.06178539715137,1,1789168772.7529693,38.99020534833333,-76.938760215,-11.611,0,1,10.195249,11.437924,116.726416,1,1,1789168773.336053,-0.8146819014472642,0.5778286918101858,0.018265807658748145,-0.045538584143265455,174.5295217291377,-1.3102025331677405,-70.63120140957882,-0.12328901116332823,0.045294610214831645,0.18601701714463045,-0.2738997390174866,1.0402894491577148,-10.49860739715576
2026-09-11T19:19:33.372,4.344780544000059,-7.243772506713867,-651.939525604248,-2607.758102416992,-4.961984167099,-3.6517499232292177,-3.0305166244506836,-2.0759038877487184,-4.643664745321931,-2.16446118010556,0.0,0.0769500806927681,630.3750610351562,27.702029049396515,-0.2899170219898224,-104.37012791633606,-2136.90537992529,1,1789168772.7529693,38.99020534833333,-76.938760215,-11.611,0,1,10.195249,11.437924,116.726416,1,1,1789168773.363053,-0.8132610346345784,0.5797133634434537,0.020071943992220002,-0.046217127285739554,174.34911623419512,-1.1997417029877395,-70.90528220856335,-0.018796148846427732,0.05366939809760123,0.18779254059268427,-0.32764018190383914,1.7641182975959777,-11.201351947746277
2026-09-11T19:19:33.407,4.378226111999993,-7.344977378845215,-661.0479640960693,-2644.1918563842773,-5.031309504508973,-3.721075260639191,-3.004950523376465,-2.0583911085128785,-4.604489773874544,0.5236203264921242,0.0,0.07466698437929153,611.6719360351562,26.880114376544952,0.0457763709127903,16.479493528604507,3613.3224421597542,1,1789168772.7529693,38.99020534833333,-76.938760215,-11.611,0,1,10.195249,11.437924,116.726416,1,1,1789168773.403053,-0.8111058697945213,0.5826373821023556,0.015849115136548766,-0.0488851154358385,174.38644376601877,-1.7910122763532694,-71.29342696440548,0.016741896316830405,0.19131409142443323,0.17250275821351316,0.6803853882217407,0.41992075992584227,-9.751536787834167
2026-09-11T19:19:33.440,4.411647968000125,-7.4451775550842285,-670.0659799575806,-2680.2639198303223,-5.099946625232697,-3.789712381362915,-3.004542827606201,-2.058111836910248,-4.6038650610912795,0.008355957330120296,0.0,0.07468605786561966,611.8281860351562,26.886980831623077,-0.0457763709127903,-16.479493528604507,-986.1507109922031,1,1789168772.7529693,38.99020534833333,-76.938760215,-11.611,0,1,10.195249,11.437924,116.726416,1,1,1789168773.4350529,-0.8097944104914665,0.5845339938646625,0.012709477201839679,-0.04890288276431966,174.59910742139917,-2.09672958950754,-71.54686444098519,-0.08753105451431882,0.17814837474493922,0.15674138787045316,-1.2174956175804137,-0.5878106106948853,-7.967020657901764
2026-09-11T19:19:33.473,4.445067551999955,-7.5411906242370605,-678.7071561813354,-2714.828624725342,-5.165715577602387,-3.8554813337326053,-2.9004321098327637,-1.9867959952354433,-4.444336066650504,2.133953602629142,0.0,0.07396317273378372,605.9063110351562,26.62674218416214,-0.1068115383386612,-38.45215380191803,-657.4785692552367,1,1789168772.7529693,38.99020534833333,-76.938760215,-11.611,0,1,10.195249,11.437924,116.726416,1,1,1789168773.464053,-0.8082687113846314,0.5865607551211274,0.00973015917057643,-0.050532116034017756,174.65283998795385,-2.4960863299970475,-71.82022083707773,-0.004750611691003366,0.0788216870139419,0.14574476638533768,2.019973800315857,2.3081912485694884,-4.989525535793304
2026-09-11T19:19:33.507,4.478490208000039,-7.640012741088867,-687.601146697998,-2750.404586791992,-5.233408727645874,-3.923174483776093,-2.9264912605285645,-2.004646513462067,-4.484266538703616,-0.5340843715884969,0.0,0.07538796216249466,617.5781860351562,27.139666378498077,0.1068115308880806,38.452151119709015,2300.963302301081,1,1789168772.7529693,38.99020534833333,-76.938760215,-11.611,0,1,10.195249,11.437924,116.726416,1,1,1789168773.503053,-0.8068396650061906,0.5886798608838132,0.012320376288061893,-0.04810389475534122,174.7102722911017,-2.106349377079403,-72.13256182319392,-0.018191741326462098,0.0033241540933484,0.16712173359668941,-1.5114989894294737,-0.5749638989830017,-9.44635383480072
2026-09-11T19:19:33.540,4.5119070400000965,-7.733335018157959,-696.0001516342163,-2784.0006065368652,-5.297334487438202,-3.987100243568421,-2.8233823776245117,-1.9340169286727906,-4.326272657195751,2.1135930775590968,0.0,0.0757141187787056,620.2500610351562,27.257082760334015,0.0,0.0,-1150.6821209037175,1,1789168772.7529693,38.99020534833333,-76.938760215,-11.611,0,1,10.195249,11.437924,116.726416,1,1,1789168773.536053,-0.8058792276167241,0.590079965225059,0.01139758848261626,-0.04726944163670705,174.85361072980015,-2.144241636962502,-72.32820757784897,-0.010350151530176772,-0.06572334004357487,0.14529394783954755,2.11568670589447,0.5735909679603577,-7.668113960971833
2026-09-11T19:19:33.573,4.545323840000037,-7.827774524688721,-704.4997072219849,-2817.9988288879395,-5.362025549411774,-4.051791305541992,-2.850013494491577,-1.9522592437267305,-4.367079553790999,-0.5459025117297949,0.0,0.0755310133099556,618.7500610351562,27.191164791584015,0.1068115308880806,38.452151119709015,1150.6832228034127,1,1789168772.7529693,38.99020534833333,-76.938760215,-11.611,0,1,10.195249,11.437924,116.726416,1,1,1789168773.563053,-0.8045280764622599,0.5917854580936232,0.01220305304102568,-0.04874044798044549,174.66742941403746,-2.1807672242949665,-72.57248394910084,-0.011545178469017292,-0.022242301454490535,0.1961961264081118,4.533320170269013,0.017750036792755126,-11.331486195392607
2026-09-11T19:19:33.607,4.5787516160000905,-7.921349048614502,-712.9214143753052,-2851.6856575012207,-5.426124098300934,-4.115889854431153,-2.7989749908447266,-1.917297868728638,-4.288873185237643,1.0458779847644353,0.0,0.0748596265912056,613.2500610351562,26.949465572834015,0.0,0.0,-1150.3053963161599,1,1789168772.7529693,38.99020534833333,-76.938760215,-11.611,0,1,10.195249,11.437924,116.726416,1,1,1789168773.604053,-0.8027876565493405,0.594120864188178,0.011875727787175282,-0.04910544081703445,174.66231295212015,-2.251258197526118,-72.90327827418827,-0.02693758620820568,0.005818229594448296,0.15425027942908165,-1.1397288817977906,-0.44659484836578367,-9.431643859558106
2026-09-11T19:19:33.640,4.6121692480001,-8.012386322021484,-721.1147689819336,-2884.4590759277344,-5.4884846305847175,-4.178250386714936,-2.7480220794677734,-1.882395124435425,-4.21079796983586,1.0444409793369838,0.0,0.06934738904237747,568.0938110351562,24.96506005525589,-0.2441406548023224,-87.89063572883606,-2630.0677357632812,1,1789168772.7529693,38.99020534833333,-76.938760215,-11.611,0,1,10.195249,11.437924,116.726416,1,1,1789168773.635053,-0.8018405436891682,0.5953416993708954,0.011850445609785949,-0.04979528517121666,174.60380312133836,-2.308847398413144,-73.07665811760205,-0.04618961505525433,0.03868085954732433,0.09106063386062695,-4.249613781089783,0.4441431858253479,-6.32764295036316
2026-09-11T19:19:33.673,4.6455832000001465,-8.105294227600098,-729.4764804840088,-2917.905921936035,-5.552126545906067,-4.241892302036286,-2.774754285812378,-1.900706685781479,-4.251759765975029,-0.5480214177008663,0.0,0.06164742261171341,505.01568603515625,22.193072140216827,-0.3204346001148224,-115.35645604133606,-821.986585497638,1,1789168772.7529693,38.99020534833333,-76.938760215,-11.611,0,1,10.195249,11.437924,116.726416,1,1,1789168773.663053,-0.8008641832847819,0.5964751584453234,0.010085666940877886,-0.0522706859681742,174.4993235841958,-2.6481126959305623,-73.22946458279642,-0.04375104102436785,0.04016037515423992,0.13417026638488688,4.98511254322052,1.7179289753341676,-8.413909705772399
2026-09-11T19:19:33.707,4.678994112000055,-8.197526931762695,-737.7774238586426,-2951.1096954345703,-5.615305948257447,-4.305071704387665,-2.749246120452881,-1.8832335925102235,-4.212673569502106,0.522975645540695,0.0,0.05282974988222122,432.78131103515625,19.01870995759964,-0.2593994438648224,-93.38379979133606,657.6491012894298,1,1789168772.7529693,38.99020534833333,-76.938760215,-11.611,0,1,10.195249,11.437924,116.726416,1,1,1789168773.704053,-0.8000386204320608,0.5976430566623693,0.008851126840562213,-0.0517942100439529,174.63149351271412,-2.736708468786651,-73.39243814969414,-0.0016828464647729326,-0.007095112475207348,0.0998186960471345,3.982284497680664,0.3398984946060181,-9.88539756254196
2026-09-11T19:19:33.741,4.7124162239999805,-8.290433883666992,-746.1390495300293,-2984.556198120117,-5.67894721031189,-4.368712966442109,-2.7762956619262695,-1.9017625284194948,-4.2541216186907045,-0.5543915330459227,0.0,0.041341789066791534,338.67193603515625,14.883044064044952,-0.045776426792144775,-16.47951364517212,2301.0001925173096,1,1789168772.7529693,38.99020534833333,-76.938760215,-11.611,0,1,10.195249,11.437924,116.726416,1,1,1789168773.736053,-0.7994471563632387,0.5984629584171711,0.010504133058083367,-0.05114679632192721,174.5806673417881,-2.546141484551142,-73.51623657215181,-0.02333697196134138,-0.05821894785877485,0.055699914149371435,5.3119681931114195,2.7063412451362607,-8.785385613899232
2026-09-11T19:19:33.774,4.7458394560001125,-8.3811616897583,-754.3045520782471,-3017.2182083129883,-5.741095757484437,-4.430861513614655,-2.7511634826660156,-1.884546985626221,-4.215611546229015,0.5150771413490439,0.0,0.0412445142865181,337.87506103515625,14.848025143146515,-0.1373291015625,-49.4384765625,-986.1093899356513,1,1789168773.7501502,38.990203251666664,-76.93877099333334,-11.631000000000004,0,1,9.388096,11.431160999999998,85.89582400000002,1,1,1789168773.7640529,-0.7989418507212731,0.5990708838951815,0.010260637037238474,-0.051968399655013375,174.52372281579576,-2.6290917012993615,-73.60159490128927,0.007145203424739586,-0.01147780875989031,0.07469101627324694,1.851397484035492,0.9926291293716432,-7.148753768405914
2026-09-11T19:19:33.807,4.779265280000118,-8.474385261535645,-762.694673538208,-3050.778694152832,-5.804953904151917,-4.4947196602821355,-2.804844856262207,-1.9213187265396119,-4.297867588000201,-1.1000997585993708,0.0,0.0405578687787056,332.25006103515625,14.600832760334015,0.0,0.0,1479.0503462978818,1,1789168773.7501502,38.990203251666664,-76.93877099333334,-11.631000000000004,0,1,9.388096,11.431160999999998,85.89582400000002,1,1,1789168773.804053,-0.7983343810513884,0.5999328347402434,0.009851187556184589,-0.05143698995436068,174.60350323788245,-2.635870609131314,-73.7240608826859,-0.022774103277573208,-0.09482618172180471,0.08425350071199866,-0.4730728038024902,2.1593262991142272,-9.121067248935699
2026-09-11T19:19:33.841,4.812685344000101,-8.568541526794434,-771.168737411499,-3084.674949645996,-5.8694509458541875,-4.559216701984406,-2.805856704711914,-1.9220118427276613,-4.299418044755859,-0.020739523061649428,0.0,0.04032326489686966,330.32818603515625,14.516375362873077,0.1220703199505806,43.945315182209015,1314.9380917472408,1,1789168773.7501502,38.990203251666664,-76.93877099333334,-11.631000000000004,0,1,9.388096,11.431160999999998,85.89582400000002,1,1,1789168773.835053,-0.7978961067383366,0.6004555027486875,0.008585482828763214,-0.05235724930917303,174.6076499302229,-2.8186997795173796,-73.79370412675802,0.04891372495176709,-0.07236012905720851,0.05441308289187602,3.351814958782196,1.0510767643356322,-9.823027267513275
2026-09-11T19:19:33.874,4.846105600000101,-8.664052963256836,-779.7647666931152,-3119.059066772461,-5.934876279830933,-4.624642035961151,-2.8861751556396484,-1.9770299816131593,-4.422490116350119,-1.6462512700530765,0.0,0.04094696789979935,335.43756103515625,14.740908443927765,0.0610351637005806,21.972658932209015,-657.4652285727667,1,1789168773.7501502,38.990203251666664,-76.93877099333334,-11.631000000000004,0,1,9.388096,11.431160999999998,85.89582400000002,1,1,1789168773.863053,-0.7975530927164091,0.6009766039152353,0.011240318777439475,-0.051086603711567424,174.54356938612693,-2.491673776314116,-73.87916147849943,-0.018008307222077493,-0.05480613103942514,0.05636994604921206,0.8551398941040039,3.1558780885505673,-9.397810916500092
2026-09-11T19:19:33.908,4.879526464000037,-8.75757884979248,-788.1820964813232,-3152.728385925293,-5.99894151210785,-4.688707268238068,-2.8619437217712402,-1.9604314494132997,-4.385360257277419,0.49665179810705645,0.0,0.04085541516542435,334.68756103515625,14.707949459552765,-0.01525880303233862,-5.493169091641903,-821.8168155049336,1,1789168773.7501502,38.990203251666664,-76.93877099333334,-11.631000000000004,0,1,9.388096,11.431160999999998,85.89582400000002,1,1,1789168773.904053,-0.7969496958660887,0.6019450703792025,0.015988289459969093,-0.04772514122839278,174.52761587925394,-1.8321787524491768,-74.04075211597493,-0.06393367942857989,-0.09990735877313581,0.030102042674996603,-3.274342422504425,0.7860030104637146,-4.910091669483185
2026-09-11T19:19:33.941,4.91298390399993,-8.855827331542969,-797.0244598388672,-3188.0978393554688,-6.066241722106934,-4.756007478237152,-2.9151864051818848,-1.9969026875495912,-4.466944093480648,-1.090078563584313,0.0,0.042448051273822784,347.73443603515625,15.281298458576202,0.0,0.0,164.18378368636397,1,1789168773.7501502,38.990203251666664,-76.93877099333334,-11.631000000000004,0,1,9.388096,11.431160999999998,85.89582400000002,1,1,1789168773.9350529,-0.796321634270155,0.6027824416580345,0.015659518297436247,-0.04774895086575158,174.5500518574009,-1.86957400914636,-74.15942932291092,-0.07784657156085269,-0.013323319910949113,0.06634258286218245,0.46571781618118285,0.25899363077163695,-7.980455768623352
2026-09-11T19:19:33.974,4.946403872000019,-8.954263687133789,-805.883731842041,-3223.534927368164,-6.133670625686646,-4.823436381816864,-2.9159610271453857,-1.9974333035945895,-4.468131047768852,-0.015877215830872402,0.0,0.04242707043886185,347.56256103515625,15.273745357990265,-0.030517585575580597,-10.986330807209015,-328.7355274301778,1,1789168773.7501502,38.990203251666664,-76.93877099333334,-11.631000000000004,0,1,9.388096,11.431160999999998,85.89582400000002,1,1,1789168773.963053,-0.795655003967886,0.6036551669202948,0.016470582023658704,-0.04756336866851047,174.5130080787322,-1.7887178227839784,-74.28870220933543,-0.032365036583132445,0.008094662537824501,0.07807294076483635,-3.495384317150116,0.5524086036109924,-11.74228677066803
2026-09-11T19:19:34.008,4.9798288639999555,-9.054038047790527,-814.8634243011475,-3259.45369720459,-6.2020160627365115,-4.89178181886673,-2.9441497325897217,-2.0167425668239596,-4.511324639459461,-0.577689389705965,0.0,0.04279328137636185,350.56256103515625,15.405581295490265,-0.0305175818502903,-10.986329466104507,4.012280713332214e-05,1,1789168773.7501502,38.990203251666664,-76.93877099333334,-11.631000000000004,0,1,9.388096,11.431160999999998,85.89582400000002,1,1,1789168774.0040529,-0.7949055960546245,0.6048158757495157,0.01893704723092537,-0.04431972523112332,174.64118590101032,-1.3468164748420055,-74.46944314729156,0.07109546348121343,0.009001535617160755,0.08665402656519167,-0.809048638343811,0.5185756605529785,-10.417506400318146
2026-09-11T19:19:34.041,5.01325260800013,-9.152195930480957,-823.6976337432861,-3294.7905349731445,-6.269254212379456,-4.959019968509675,-2.944859743118286,-2.017228924036026,-4.512412589558035,-0.014551248718995768,0.0,0.04265213757753372,349.40631103515625,15.35476952791214,-0.015258789993822575,-5.493164397776127,164.34918446897296,1,1789168773.7501502,38.990203251666664,-76.93877099333334,-11.631000000000004,0,1,9.388096,11.431160999999998,85.89582400000002,1,1,1789168774.035053,-0.7943257484958219,0.605587045225742,0.020614525503797835,-0.04342783979845747,174.60749979780078,-1.1373602551155446,-74.58960072994425,0.027008970174612252,-0.01601374495289837,0.0835058016604443,0.6162498961639403,1.587598594684601,-9.47234145772934
2026-09-11T19:19:34.075,5.04667065600006,-9.252594947814941,-832.7335453033447,-3330.934181213379,-6.338027539253235,-5.027793295383454,-2.996931552886963,-2.05289811372757,-4.592202294487222,-1.067363051594696,0.0,0.04303169995546341,352.51568603515625,15.491411983966827,0.0,0.0,164.3771772004027,1,1789168773.7501502,38.990203251666664,-76.93877099333334,-11.631000000000004,0,1,9.388096,11.431160999999998,85.89582400000002,1,1,1789168774.063053,-0.7936471468675663,0.6065833336524074,0.019502701953999273,-0.04243241945255422,174.77702369636742,-1.1758532038816718,-74.72761813726756,0.06793816286435568,-0.02936533919772979,0.09297665631346633,-0.3790270287513733,0.04422799222946167,-12.748154877758026
2026-09-11T19:19:34.108,5.080086496000149,-9.35299015045166,-841.7691135406494,-3367.0764541625977,-6.406798253059388,-5.096564009189606,-2.9969847202301025,-2.0529345333576203,-4.592283762879425,-0.0010898912028042304,0.0,0.04423714429140091,362.39068603515625,15.925371944904327,-0.1068115308880806,-38.452151119709015,-1150.7162806503395,1,1789168773.7501502,38.990203251666664,-76.93877099333334,-11.631000000000004,0,1,9.388096,11.431160999999998,85.89582400000002,1,1,1789168774.103053,-0.7927546890125283,0.6077586838737529,0.01905058955304972,-0.04250247360300889,174.80387396698913,-1.229524651414103,-74.8947535615899,0.036891198932329346,-0.0055510196859679655,0.0918133943670121,-2.3127023076438906,1.8889569541549684,-5.849862954483033
2026-09-11T19:19:34.141,5.113504703999979,-9.454869270324707,-850.9382343292236,-3403.7529373168945,-6.476585450172425,-5.166351206302643,-3.048806667327881,-2.0884325671195985,-4.671690602898166,-1.0622363042973082,0.0,0.04670334607362747,382.59381103515625,16.81320458650589,0.03051757998764515,10.986328795552254,1479.387521781922,1,1789168773.7501502,38.990203251666664,-76.93877099333334,-11.631000000000004,0,1,9.388096,11.431160999999998,85.89582400000002,1,1,1789168774.136053,-0.7919550287063306,0.6087778507102717,0.0190969126076883,-0.042802674217756784,174.77489596435177,-1.2529779738491056,-75.041971869309,0.033914190827202616,-0.05390711194172286,0.12110036828132735,6.188682717571258,1.155517588558197,-11.485842868938446
2026-09-11T19:19:34.175,5.146922207999978,-9.556649208068848,-860.0984287261963,-3440.393714904785,-6.546304707527161,-5.23607046365738,-3.0495376586914062,-2.0889332962036136,-4.672810701958687,-0.014984036031389994,0.0,0.05512238293886185,451.56256103515625,19.844057857990265,0.3509521782398224,126.34278416633606,3451.977004948871,1,1789168773.7501502,38.990203251666664,-76.93877099333334,-11.631000000000004,0,1,9.388096,11.431160999999998,85.89582400000002,1,1,1789168774.163053,-0.7910722878540394,0.6099170660993016,0.019834176083383705,-0.04257244800677421,174.74609364418637,-1.177556490877347,-75.21044713017801,0.04551626702983492,-0.03858207391166145,0.11977479071443765,0.34048689361572265,1.301146343460083,-8.735077498569488
2026-09-11T19:19:34.209,5.180340992000083,-9.66157054901123,-869.5413494110107,-3478.165397644043,-6.618175826072694,-5.307941582202912,-3.128419876098633,-2.1429676151275636,-4.793682030976112,-1.6168846515714117,0.0,0.07517052441835403,615.7969360351562,27.061388790607452,0.4272461533546448,153.80861520767212,821.868056038477,1,1789168773.7501502,38.990203251666664,-76.93877099333334,-11.631000000000004,0,1,9.388096,11.431160999999998,85.89582400000002,1,1,1789168774.204053,-0.7896164051665616,0.6118365044014232,0.018922400382049624,-0.042473136656770265,174.82190544226768,-1.2657870934373732,-75.48359262987871,0.10369035992683352,-0.061948716470286734,0.14103342460250418,-4.228823682746887,1.6577161433410643,-6.2058443553543094
2026-09-11T19:19:34.242,5.213764384000115,-9.76663875579834,-878.9974880218506,-3515.9899520874023,-6.690147547721863,-5.379913303852081,-3.1026253700256348,-2.12529837846756,-4.754157074238452,0.528648817570254,0.0,0.07309342175722122,598.7813110351562,26.31363183259964,0.2136230319738388,76.90429151058197,-2300.9131956749816,1,1789168773.7501502,38.990203251666664,-76.93877099333334,-11.631000000000004,0,1,9.388096,11.431160999999998,85.89582400000002,1,1,1789168774.236053,-0.7882786763217635,0.6136146154893062,0.02040726762116471,-0.04095577544812872,174.85778255538258,-1.036473982716535,-75.74951067886376,0.08455910786402288,-0.05452321316767685,0.16120140224099946,-0.7891411385154724,-0.6017360539245605,-7.3872515003395085
2026-09-11T19:19:34.275,5.247181920000003,-9.874683380126953,-888.7215042114258,-3554.886016845703,-6.764158115386963,-5.453923871517182,-3.208007335662842,-2.1974850249290467,-4.915634003509852,-2.160142700578782,0.0,0.07641411572694778,625.9844360351562,27.509081661701202,-0.0915527418255806,-32.958987057209015,-3287.59363252153,1,1789168773.7501502,38.990203251666664,-76.93877099333334,-11.631000000000004,0,1,9.388096,11.431160999999998,85.89582400000002,1,1,1789168774.263053,-0.786828964318341,0.6153868078709775,0.020733055725952777,-0.0420642129173942,174.73690593540988,-1.0969824500964833,-76.00821650998405,0.014323917171117462,0.021839653996055444,0.18105033369223017,1.4457944333457948,0.09149604600906372,-10.198131636199951
2026-09-11T19:19:34.309,5.2806000000000495,-9.983381271362305,-898.5043144226074,-3594.0172576904297,-6.83861617088318,-5.528381927013398,-3.260841131210327,-2.2336761748790743,-4.996591300284251,-1.0829811272813086,0.0,0.0792541578412056,649.2500610351562,28.531496822834015,-0.0457763709127903,-16.479493528604507,493.1310694265335,1,1789168773.7501502,38.990203251666664,-76.93877099333334,-11.631000000000004,0,1,9.388096,11.431160999999998,85.89582400000002,1,1,1789168774.303053,-0.7848818688293908,0.6178663999210721,0.021177766355969914,-0.04186963152009748,174.72643272383058,-1.059779521462722,-76.37150129393548,-0.005553986745696356,-0.017259735505897125,0.2117908178076063,-4.0597570339584355,0.43404233615875243,-11.141139115753173
2026-09-11T19:19:34.342,5.31401804799998,-10.092394828796387,-908.3155345916748,-3633.262138366699,-6.913290457725526,-5.603056213855744,-3.313887119293213,-2.270012676715851,-5.077873739969238,-1.0873316669140027,0.0,0.0796203687787056,652.2500610351562,28.663332760334015,0.0,0.0,493.13154163399423,1,1789168773.7501502,38.990203251666664,-76.93877099333334,-11.631000000000004,0,1,9.388096,11.431160999999998,85.89582400000002,1,1,1789168774.335053,-0.7832339427417422,0.6198795374545905,0.02347886250378376,-0.041745574589852015,174.57677649295286,-0.8580690795610982,-76.67807951175762,0.013900674827508838,0.05111318887513034,0.21020972403822463,-1.17983808095932,2.1700155477905274,-10.243242226943968
2026-09-11T19:19:34.375,5.347437536000143,-10.204334259033203,-918.3900833129883,-3673.560333251953,-6.989968967437744,-5.679734723567963,-3.3148882389068604,-2.2706984436511997,-5.0794077569148115,-0.02051997132168753,0.0,0.0798645094037056,654.2500610351562,28.751223385334015,0.030517585575580597,10.986330807209015,328.74024901743996,1,1789168773.7501502,38.990203251666664,-76.93877099333334,-11.631000000000004,0,1,9.388096,11.431160999999998,85.89582400000002,1,1,1789168774.363053,-0.7816443729309513,0.6219452758484579,0.022508083169061156,-0.0413465150553253,174.68413149365009,-0.9307482095476279,-76.97450156596743,0.00934780894075643,0.021999351622612927,0.2135427793107582,-2.0752833072280885,-0.1372931022644043,-12.773063769168854
2026-09-11T19:19:34.409,5.38085344000001,-10.318550109863281,-928.6695098876953,-3714.6780395507812,-7.068206825256349,-5.757972581386567,-3.394184112548828,-2.3250161170959474,-5.200912931943327,-1.6255036357826607,0.0,0.08070183545351028,661.1094360351562,29.052660763263702,0.1068115308880806,38.452151119709015,821.9385689104671,1,1789168773.7501502,38.990203251666664,-76.93877099333334,-11.631000000000004,0,1,9.388096,11.431160999999998,85.89582400000002,1,1,1789168774.403053,-0.7792089846337459,0.624924255112012,0.020849587307735982,-0.04322416393454719,174.63835733637129,-1.2337471194525038,-77.40133478780216,0.046607970476957375,0.13917046015892545,0.21898087619412215,-0.27939146310806273,-1.0428391781997681,-10.928040607738495
2026-09-11T19:19:34.442,5.414266208000072,-10.434557914733887,-939.1102123260498,-3756.440849304199,-7.147672171592713,-5.837437927722932,-3.4476592540740967,-2.3616465890407565,-5.2828529640317505,-1.0963016277113353,0.0,0.08203888684511185,672.0625610351562,29.533999264240265,0.0762939527630806,27.465822994709015,-328.80628521945914,1,1789168773.7501502,38.990203251666664,-76.93877099333334,-11.631000000000004,0,1,9.388096,11.431160999999998,85.89582400000002,1,1,1789168774.4350529,-0.7771045946447824,0.6274590869491034,0.017423142112454937,-0.04582550933590417,174.65629080065256,-1.7436683781045057,-77.75565272170897,-0.056081094058007,0.07475332452754313,0.24856595234467804,4.220880296115875,1.6005433728981018,-9.913444582004548
2026-09-11T19:19:34.475,5.447685311999976,-10.552581787109375,-949.7323608398438,-3798.929443359375,-7.228518524169923,-5.918284280300141,-3.5532689094543457,-2.433989202976227,-5.4446787826060845,-2.1647083636855715,0.0,0.0853576734662056,699.2500610351562,30.728762447834015,0.1220703274011612,43.94531786441803,493.1159994521786,1,1789168773.7501502,38.990203251666664,-76.93877099333334,-11.631000000000004,0,1,9.388096,11.431160999999998,85.89582400000002,1,1,1789168774.463053,-0.7752711334106487,0.6296761776144435,0.017494017724860065,-0.04643856574954168,174.6014937877904,-1.7969356972517907,-78.08236834289856,0.03643427173415723,0.11811096833851147,0.23633363774915056,-1.9049417939186097,-0.340781093120575,-13.037941390037536
