timestamp,time_s,speed_mps,distance_m,wheel_omega_rad_s,motor_current_A,steer_motor_deg,steer_column_deg,vx_mps,vy_mps,yaw_rate_rad_s,heading_rad,x_m,y_m,gyro_x_rad_s,gyro_y_rad_s,gyro_z_rad_s,accel_x_mps2,accel_y_mps2,accel_z_mps2,grade_deg,bank_deg,moving,gps_new_fix,gps_time_s,gps_latitude_deg,gps_longitude_deg,gps_altitude_m,gps_east_m,gps_north_m,gps_sigma_m
2026-09-11T17:39:30.851,0.000007,0.333745,0.001458,3.090227,0.000000,-3.271009,1.125347,0.333680,-0.004848,-0.010207,0.000000,0.000000,0.000000,-0.054392,0.010613,-0.008724,1.062354,0.592812,9.945807,2.427920,5.435261,1,0,,,,,,,
2026-09-11T17:39:30.886,0.033424,0.353194,0.013068,3.270312,0.000000,-2.859708,0.983845,0.353142,-0.004747,-0.009994,-0.000338,0.011476,-0.000162,-0.060336,-0.009780,-0.008510,1.270452,0.683524,9.089392,2.443909,5.441149,1,0,,,,,,,
2026-09-11T17:39:30.918,0.066829,0.412016,0.027161,3.814966,0.000000,-2.813016,0.967781,0.411958,-0.004946,-0.010413,-0.000678,0.024255,-0.000331,-0.044976,0.015281,-0.008930,1.268000,-0.377066,9.536967,2.460117,5.378301,1,0,,,,,,,
2026-09-11T17:39:30.952,0.100237,0.392773,0.039875,3.636784,0.000000,-2.632429,0.905652,0.392724,0.003259,0.006861,-0.000738,0.037696,-0.000369,-0.025964,0.006115,0.008344,0.702745,-1.225929,9.304452,2.437524,5.260700,1,0,,,,,,,
2026-09-11T17:39:30.987,0.133654,0.422584,0.054777,3.912811,0.000000,-2.635862,0.906833,0.422531,0.002161,0.004549,-0.000547,0.051318,-0.000287,0.026871,-0.000711,0.006033,0.898878,-0.798556,9.158529,2.425329,5.172122,1,0,,,,,,,
2026-09-11T17:39:31.019,0.167069,0.471523,0.070443,4.365957,0.000000,-2.635862,0.906833,0.471464,0.003089,0.006504,-0.000362,0.066254,-0.000206,0.031164,0.019648,0.007987,0.945067,-1.000867,8.897966,2.416268,5.071361,1,0,,,,,,,
2026-09-11T17:39:31.053,0.200478,0.452376,0.085265,4.188671,0.000000,-2.635862,0.906833,0.452320,0.008399,0.017682,0.000042,0.081686,-0.000016,0.065142,0.019143,0.019166,0.834840,-0.991747,10.734850,2.400778,4.972012,1,1,0.198997,38.991414,-76.936670,-11.828000,0.000000,0.000000,3.324776
2026-09-11T17:39:31.087,0.233882,0.472544,0.101546,4.375407,0.000000,-2.646162,0.910377,0.472484,0.000967,0.002036,0.000371,0.097132,0.000143,0.038854,0.006013,0.003520,0.543288,0.370299,10.612168,2.363388,4.962447,1,0,,38.991414,-76.936670,-11.828000,,,
2026-09-11T17:39:31.120,0.267305,0.511838,0.118476,4.739244,0.000000,-2.593976,0.892423,0.511776,-0.005090,-0.010716,0.000226,0.113580,0.000079,0.035149,-0.024551,-0.009232,-0.009218,1.278983,10.429274,2.289307,5.012283,1,0,,38.991414,-76.936670,-11.828000,,,
2026-09-11T17:39:31.153,0.300728,0.473254,0.133822,4.381982,0.000000,-1.636106,0.562881,0.473231,-0.002234,-0.004703,-0.000032,0.130041,-0.000041,0.007046,-0.012424,-0.003220,0.753347,-0.541425,9.884319,2.269973,4.943395,1,0,,38.991414,-76.936670,-11.828000,,,
2026-09-11T17:39:31.187,0.334145,0.503065,0.151447,4.658009,0.000000,0.187625,-0.064550,0.503065,-0.003188,-0.006712,-0.000222,0.146354,-0.000134,-0.041096,0.010402,-0.005228,0.443457,-0.745207,9.737807,2.234680,4.862159,1,0,,38.991414,-76.936670,-11.828000,,,
2026-09-11T17:39:31.220,0.367565,0.503769,0.168468,4.664530,0.000000,2.941073,-1.011837,0.503691,-0.007401,-0.015581,-0.000595,0.163176,-0.000318,-0.015695,0.037373,-0.014098,0.251050,-0.299691,10.473895,2.186901,4.810974,1,0,,38.991414,-76.936670,-11.828000,,,
2026-09-11T17:39:31.254,0.400986,0.543148,0.186195,5.029152,0.000000,6.030292,-2.074642,0.542792,-0.021626,-0.045527,-0.001616,0.180663,-0.000823,-0.087147,-0.022786,-0.044044,0.369711,-2.082834,10.568823,2.146908,4.645937,1,0,,38.991414,-76.936670,-11.828000,,,
2026-09-11T17:39:31.287,0.434408,0.504412,0.202863,4.670484,0.000000,9.389362,-3.230285,0.503611,-0.017610,-0.037073,-0.002997,0.198148,-0.001518,-0.054731,-0.017456,-0.035589,0.775804,0.496511,9.432919,2.132495,4.649430,1,0,,38.991414,-76.936670,-11.828000,,,
2026-09-11T17:39:31.321,0.467824,0.534188,0.221377,4.946181,0.000000,10.159778,-3.495336,0.533194,-0.024422,-0.051414,-0.004475,0.215468,-0.002286,-0.064084,0.002436,-0.049930,0.523871,-0.307046,9.646115,2.103818,4.601406,1,0,,38.991414,-76.936670,-11.828000,,,
2026-09-11T17:39:31.355,0.501241,0.554104,0.240039,5.130589,0.000000,11.704731,-4.026857,0.552736,-0.031033,-0.065333,-0.006426,0.233607,-0.003311,-0.026082,0.009803,-0.063850,0.283903,0.348136,10.363374,2.063695,4.596911,1,0,,38.991414,-76.936670,-11.828000,,,
2026-09-11T17:39:31.388,0.534662,0.573870,0.258974,5.313608,0.000000,13.454990,-4.629010,0.571998,-0.029975,-0.063106,-0.008572,0.252393,-0.004472,-0.031661,-0.018339,-0.061623,0.959090,-1.086577,8.322806,2.065232,4.499537,1,0,,38.991414,-76.936670,-11.828000,,,
2026-09-11T17:39:31.421,0.568084,0.564349,0.277510,5.225450,0.000000,14.878406,-5.118718,0.562098,-0.034244,-0.072093,-0.010831,0.271334,-0.005729,-0.023018,0.093251,-0.070609,0.858866,-1.485413,12.229285,2.058240,4.377700,1,0,,38.991414,-76.936670,-11.828000,,,
2026-09-11T17:39:31.455,0.601503,0.554543,0.296126,5.134657,0.000000,18.937855,-6.515317,0.550962,-0.043898,-0.092416,-0.013580,0.289915,-0.007261,-0.084708,-0.010585,-0.090932,0.866614,1.687626,7.466783,2.052945,4.463389,1,0,,38.991414,-76.936670,-11.828000,,,
2026-09-11T17:39:31.488,0.634926,0.583761,0.316417,5.405191,0.000000,21.660405,-7.451974,0.578830,-0.034633,-0.072911,-0.016343,0.308774,-0.008857,-0.008323,0.039102,-0.071428,1.417159,-3.793408,10.484682,2.083353,4.192597,1,0,,38.991414,-76.936670,-11.828000,,,
2026-09-11T17:39:31.521,0.668350,0.641974,0.337893,5.944201,0.000000,21.732503,-7.476779,0.636515,-0.051211,-0.107812,-0.019363,0.329056,-0.010655,-0.036401,-0.013958,-0.106328,0.978802,2.486084,9.063110,2.083067,4.333199,1,0,,38.991414,-76.936670,-11.828000,,,
2026-09-11T17:39:31.554,0.701770,0.632431,0.358856,5.855843,0.000000,21.600667,-7.431422,0.627119,-0.030622,-0.064467,-0.022242,0.350138,-0.012461,-0.114987,0.021473,-0.062984,-0.420901,-3.602963,10.554407,1.988855,4.076112,1,0,,38.991414,-76.936670,-11.828000,,,
2026-09-11T17:39:31.589,0.735195,0.613144,0.379591,5.677260,0.000000,21.571142,-7.421264,0.608008,-0.020816,-0.043823,-0.024052,0.370755,-0.013798,0.038468,0.062171,-0.042340,1.498456,-4.452611,10.073293,2.018912,3.765975,1,0,,38.991414,-76.936670,-11.828000,,,
2026-09-11T17:39:31.622,0.768614,0.632696,0.401238,5.858296,0.000000,20.473882,-7.043767,0.627921,-0.027033,-0.056912,-0.025735,0.391380,-0.015112,0.019635,0.033630,-0.055428,-0.567511,-1.623491,7.529448,1.912182,3.643084,1,0,,38.991414,-76.936670,-11.828000,,,
2026-09-11T17:39:31.655,0.802031,0.652133,0.423078,6.038273,0.000000,17.800084,-6.123882,0.648412,-0.026137,-0.055025,-0.027605,0.412675,-0.016569,0.090004,0.034620,-0.053541,-1.051469,2.889235,10.041716,1.770878,3.813656,1,0,,38.991414,-76.936670,-11.828000,,,
2026-09-11T17:39:31.689,0.835449,0.652535,0.444349,6.041992,0.000000,13.771535,-4.737913,0.650305,-0.024595,-0.051778,-0.029390,0.434342,-0.018034,0.095256,-0.000490,-0.050295,0.495040,1.685567,9.571192,1.725606,3.904308,1,0,,38.991414,-76.936670,-11.828000,,,
2026-09-11T17:39:31.722,0.868871,0.662653,0.466018,6.135679,0.000000,9.270574,-3.189418,0.661627,-0.010241,-0.021560,-0.030615,0.456239,-0.019274,0.040288,-0.037689,-0.020076,0.893974,-1.320858,9.214819,1.703282,3.798066,1,0,,38.991414,-76.936670,-11.828000,,,
2026-09-11T17:39:31.756,0.902292,0.691985,0.488998,6.407273,0.000000,9.224569,-3.173590,0.690924,-0.004473,-0.009417,-0.031133,0.478822,-0.020218,0.015895,0.030564,-0.007934,-0.228299,-0.154062,10.252951,1.608837,3.768043,1,0,,38.991414,-76.936670,-11.828000,,,
2026-09-11T17:39:31.789,0.935711,0.692482,0.511647,6.411868,0.000000,9.413396,-3.238554,0.691376,-0.017840,-0.037557,-0.031918,0.501896,-0.021318,-0.013626,0.018786,-0.036074,1.019205,-0.411977,9.812338,1.593070,3.722919,1,0,,38.991414,-76.936670,-11.828000,,,
2026-09-11T17:39:31.822,0.969124,0.731616,0.535675,6.774220,0.000000,9.690801,-3.333991,0.730378,-0.017277,-0.036372,-0.033153,0.525617,-0.022678,-0.067216,-0.004561,-0.034888,2.284949,-2.234838,8.221699,1.650711,3.560370,1,0,,38.991414,-76.936670,-11.828000,,,
2026-09-11T17:39:31.856,1.002537,0.760877,0.561036,7.045156,0.000000,9.911214,-3.409821,0.759530,-0.020350,-0.042843,-0.034476,0.550473,-0.024148,-0.116004,0.025358,-0.041360,1.251819,0.777667,8.612200,1.635231,3.594972,1,0,,38.991414,-76.936670,-11.828000,,,
2026-09-11T17:39:31.889,1.036006,0.809554,0.588367,7.495866,0.000000,10.921956,-3.757554,0.807813,-0.027905,-0.058747,-0.036177,0.576656,-0.025882,-0.009774,-0.040668,-0.057263,1.540429,0.084828,9.954436,1.638884,3.585302,1,0,,38.991414,-76.936670,-11.828000,,,
2026-09-11T17:39:31.922,1.069422,0.838836,0.616121,7.767002,0.000000,10.796987,-3.714560,0.837074,-0.024863,-0.052342,-0.038033,0.604088,-0.027783,0.022126,0.005952,-0.050859,1.649086,-1.208179,9.454101,1.650527,3.491835,1,0,,38.991414,-76.936670,-11.828000,,,
2026-09-11T17:39:31.956,1.102837,0.877705,0.645446,8.126900,0.000000,9.624883,-3.311313,0.876240,-0.012369,-0.026040,-0.039342,0.632668,-0.029512,0.006016,-0.038409,-0.024556,0.927611,-2.108528,10.514004,1.617134,3.339785,1,0,,38.991414,-76.936670,-11.828000,,,
2026-09-11T17:39:31.989,1.136256,0.907388,0.676002,8.401736,0.000000,7.062322,-2.429698,0.906572,-0.017440,-0.036716,-0.040391,0.662414,-0.031197,-0.031638,0.020915,-0.035232,1.291928,0.767959,8.885610,1.609773,3.376253,1,0,,38.991414,-76.936670,-11.828000,,,
2026-09-11T17:39:32.023,1.169672,0.956011,0.707732,8.851952,0.000000,0.250112,-0.086048,0.956010,0.008390,0.017664,-0.040709,0.693502,-0.032610,0.002052,0.027611,0.019148,3.465082,-2.356048,9.979738,1.741293,3.206906,1,0,,38.991414,-76.936670,-11.828000,,,
2026-09-11T17:39:32.055,1.203088,1.004945,0.741637,9.305042,0.000000,-3.447477,1.186059,1.004729,0.012210,0.025705,-0.039985,0.726250,-0.033587,-0.033870,-0.003576,0.027189,2.400570,-3.462336,11.214885,1.798742,2.967276,1,1,1.199428,38.991412,-76.936663,-11.818000,0.603104,-0.182174,4.583475
2026-09-11T17:39:32.090,1.236522,1.063896,0.778060,9.850885,0.000000,-5.164091,1.776637,1.063384,0.045805,0.096431,-0.037943,0.760833,-0.033964,-0.078004,-0.034983,0.097915,2.069988,-3.552067,9.118125,1.832937,2.719423,1,0,,38.991412,-76.936663,-11.818000,,,
2026-09-11T17:39:32.123,1.269947,1.093517,0.814210,10.125155,0.000000,-8.883649,3.056301,1.091961,0.040982,0.086277,-0.034889,0.796884,-0.033825,-0.053205,0.032633,0.087761,0.196721,4.559210,10.245498,1.743113,2.999888,1,0,,38.991412,-76.936663,-11.818000,,,
2026-09-11T17:39:32.156,1.303367,1.103538,0.850759,10.217945,0.000000,-13.542539,4.659130,1.099892,0.058384,0.122914,-0.031394,0.833544,-0.033379,-0.022559,0.043508,0.124397,-0.369024,3.048986,10.357784,1.613241,3.176831,1,0,,38.991412,-76.936663,-11.818000,,,
2026-09-11T17:39:32.189,1.336784,1.104078,0.887205,10.222947,0.000000,-17.155668,5.902179,1.098225,0.070595,0.148622,-0.026857,0.870317,-0.032295,-0.049952,-0.013313,0.150105,-0.937712,1.022049,9.459495,1.446081,3.218825,1,0,,38.991412,-76.936663,-11.818000,,,
2026-09-11T17:39:32.223,1.370199,1.094597,0.923640,10.135159,0.000000,-22.577421,7.767461,1.084554,0.069440,0.146190,-0.021931,0.906832,-0.030846,0.049813,-0.011947,0.147674,0.421784,0.562215,8.566893,1.368526,3.230899,1,0,,38.991412,-76.936663,-11.818000,,,
2026-09-11T17:39:32.257,1.403622,1.124199,0.961385,10.409245,0.000000,-29.097806,10.010713,1.107083,0.090236,0.189971,-0.016313,0.943501,-0.028877,0.087252,-0.004972,0.191454,1.918083,1.873070,7.526604,1.389219,3.324338,1,0,,38.991412,-76.936663,-11.818000,,,
2026-09-11T17:39:32.290,1.437040,1.163289,0.999961,10.771194,0.000000,-28.952924,9.960868,1.145754,0.109463,0.230448,-0.009289,0.981181,-0.026020,0.182990,-0.024398,0.231931,0.647337,0.221826,9.679458,1.329755,3.306389,1,0,,38.991412,-76.936663,-11.818000,,,
2026-09-11T17:39:32.323,1.470459,1.221461,1.040896,11.309822,0.000000,-28.973524,9.967955,1.203022,0.097466,0.205193,-0.002009,1.020448,-0.022781,0.127238,-0.062559,0.206676,1.937598,-0.595460,10.595203,1.358907,3.236856,1,0,,38.991412,-76.936663,-11.818000,,,
2026-09-11T17:39:32.357,1.503873,1.250621,1.082720,11.579824,0.000000,-28.196928,9.700778,1.232739,0.101274,0.213208,0.004981,1.061137,-0.019398,0.086421,0.048914,0.214692,1.638887,-0.393541,8.851973,1.373297,3.180139,1,0,,38.991412,-76.936663,-11.818000,,,
2026-09-11T17:39:32.390,1.537288,1.328557,1.127677,12.301449,0.000000,-24.692289,8.495054,1.313980,0.080277,0.169004,0.011367,1.103661,-0.016013,0.041020,-0.023500,0.170488,2.270632,1.965645,8.936506,1.432110,3.279345,1,0,,38.991412,-76.936663,-11.818000,,,
2026-09-11T17:39:32.424,1.570708,1.387349,1.174536,12.845825,0.000000,-19.120161,6.578037,1.378216,0.074872,0.157626,0.016825,1.148606,-0.012784,0.040788,0.038468,0.159110,1.281925,-3.024959,7.823451,1.428714,3.054800,1,0,,38.991412,-76.936663,-11.818000,,,
2026-09-11T17:39:32.456,1.604116,1.416855,1.221748,13.119031,0.000000,-14.079496,4.843863,1.411795,0.045267,0.095299,0.021050,1.195165,-0.009893,0.047194,0.113557,0.096783,1.752252,-1.562199,10.140567,1.457656,2.932811,1,0,,38.991412,-76.936663,-11.818000,,,
2026-09-11T17:39:32.489,1.637525,1.456005,1.270738,13.481529,0.000000,-10.067426,3.463564,1.453346,0.029156,0.061380,0.023667,1.242986,-0.007580,0.120384,-0.001440,0.062864,1.008516,-0.910940,6.406390,1.440895,2.857236,1,0,,38.991412,-76.936663,-11.818000,,,
2026-09-11T17:39:32.524,1.670946,1.485195,1.320776,13.751806,0.000000,-4.027692,1.385674,1.484761,0.033378,0.070270,0.025867,1.292043,-0.005319,0.123185,-0.002143,0.071754,1.387739,-2.933561,6.271451,1.453455,2.650605,1,0,,38.991412,-76.936663,-11.818000,,,
2026-09-11T17:39:32.558,1.704367,1.514537,1.371726,14.023493,0.000000,-3.621198,1.245825,1.514179,0.016314,0.034346,0.027615,1.342116,-0.003148,0.155037,0.013259,0.035830,-0.972035,-1.194254,10.327776,1.319231,2.562210,1,0,,38.991412,-76.936663,-11.818000,,,
2026-09-11T17:39:32.591,1.737781,1.524881,1.422174,14.119270,0.000000,-3.005277,1.033926,1.524633,-0.008749,-0.018420,0.027881,1.392864,-0.001613,0.109203,-0.084767,-0.016936,1.514441,0.470327,7.397254,1.353968,2.587684,1,0,,38.991412,-76.936663,-11.818000,,,
2026-09-11T17:39:32.624,1.771207,1.525301,1.473180,14.123158,0.000000,1.214160,-0.417715,1.525261,-0.014874,-0.031314,0.027050,1.443828,-0.000608,0.056171,0.016307,-0.029831,0.272919,-1.211514,9.047125,1.317427,2.505313,1,0,,38.991412,-76.936663,-11.818000,,,
2026-09-11T17:39:32.658,1.804635,1.506491,1.523628,13.948992,0.000000,8.084735,-2.781446,1.504716,-0.046615,-0.098136,0.024886,1.494480,-0.000320,0.027382,0.026092,-0.096653,-1.111290,-0.705098,9.074878,1.203468,2.463092,1,0,,38.991412,-76.936663,-11.818000,,,
2026-09-11T17:39:32.691,1.838052,1.497406,1.573552,13.864868,0.000000,13.129520,-4.517037,1.492755,-0.063572,-0.133837,0.021010,1.544592,-0.001011,0.006676,0.045993,-0.132353,-0.432277,-3.319943,7.876898,1.143627,2.255548,1,0,,38.991412,-76.936663,-11.818000,,,
2026-09-11T17:39:32.724,1.871471,1.468904,1.622895,13.600965,0.000000,17.394276,-5.984269,1.460900,-0.074189,-0.156186,0.016164,1.593980,-0.002394,0.018183,0.025433,-0.154703,-0.600755,-0.531520,11.021498,1.081593,2.232546,1,0,,38.991412,-76.936663,-11.818000,,,
2026-09-11T17:39:32.758,1.904887,1.469537,1.672363,13.606827,0.000000,20.427875,-7.027939,1.458496,-0.060881,-0.128170,0.011413,1.642784,-0.003978,-0.081985,0.062788,-0.126686,0.935064,-2.446857,9.603751,1.127672,2.083221,1,0,,38.991412,-76.936663,-11.818000,,,
2026-09-11T17:39:32.791,1.938305,1.459896,1.721456,13.517556,0.000000,17.784977,-6.118685,1.451579,-0.074317,-0.156457,0.006657,1.691425,-0.005797,-0.061727,0.013190,-0.154973,-0.200644,2.673489,10.394461,1.105535,2.269419,1,0,,38.991412,-76.936663,-11.818000,,,
2026-09-11T17:39:32.824,1.971724,1.460092,1.770389,13.519370,0.000000,9.989490,-3.436751,1.457466,-0.036769,-0.077408,0.002750,1.740043,-0.007425,-0.017145,0.029322,-0.075924,-1.480216,-0.256640,8.940135,1.002685,2.256585,1,0,,38.991412,-76.936663,-11.818000,,,
2026-09-11T17:39:32.858,2.005142,1.440646,1.818456,13.339319,0.000000,4.499760,-1.548082,1.440121,0.006320,0.013306,0.001679,1.788461,-0.007826,0.091751,-0.005328,0.014790,-1.842375,2.030271,11.245580,0.876940,2.383320,1,0,,38.991412,-76.936663,-11.818000,,,
2026-09-11T17:39:32.891,2.038560,1.421482,1.865543,13.161869,0.000000,-5.517026,1.898060,1.420702,0.015360,0.032337,0.002441,1.836261,-0.007366,0.040667,0.032611,0.033820,0.791691,1.723911,6.917415,0.919272,2.487095,1,0,,38.991412,-76.936663,-11.818000,,,
2026-09-11T17:39:32.925,2.071986,1.402497,1.912208,12.986087,0.000000,-5.302793,1.824355,1.401786,0.052601,0.110740,0.004832,1.883428,-0.006059,0.018112,-0.027698,0.112223,-0.361669,-1.529445,6.342157,0.879069,2.372127,1,0,,38.991412,-76.936663,-11.818000,,,
2026-09-11T17:39:32.959,2.105403,1.383669,1.958145,12.811750,0.000000,-8.451063,2.907476,1.381888,0.036107,0.076014,0.007953,1.929929,-0.004280,0.031184,-0.032314,0.077498,0.029028,2.292403,10.268151,0.856542,2.508982,1,0,,38.991412,-76.936663,-11.818000,,,
2026-09-11T17:39:32.992,2.138825,1.355043,2.002896,12.546692,0.000000,-10.740339,3.695071,1.352226,0.055666,0.117192,0.011181,1.975602,-0.002310,-0.019543,-0.024390,0.118675,-1.360673,3.217954,5.770527,0.735025,2.700781,1,0,,38.991412,-76.936663,-11.818000,,,
2026-09-11T17:39:33.026,2.172253,1.335712,2.047614,12.367705,0.000000,-12.511884,4.304547,1.331944,0.080620,0.169727,0.015977,2.020429,0.000576,-0.067249,-0.018455,0.171210,1.794225,1.326448,10.629918,0.811046,2.763692,1,0,,38.991412,-76.936663,-11.818000,,,
2026-09-11T17:39:33.058,2.205668,1.326344,2.092103,12.280961,0.000000,-12.892972,4.435656,1.322371,0.069662,0.146658,0.021263,2.064721,0.003912,-0.053988,0.015190,0.148141,1.220928,-2.667311,6.141905,0.843982,2.569573,1,1,2.203128,38.991409,-76.936648,-11.718000,1.913309,-0.548006,3.324186
2026-09-11T17:39:33.092,2.239087,1.346147,2.137584,12.464326,0.000000,-13.072187,4.497312,1.342002,0.037482,0.078910,0.025032,2.109189,0.006733,0.042797,-0.068122,0.080394,0.541915,6.358044,9.390848,0.827419,2.967278,1,0,,38.991409,-76.936648,-11.718000,,,
2026-09-11T17:39:33.126,2.272508,1.346588,2.183099,12.468410,0.000000,-12.918378,4.444396,1.342539,0.042524,0.089525,0.027847,2.153998,0.009255,0.019469,-0.022068,0.091009,2.011148,2.018503,11.126625,0.899394,3.078868,1,0,,38.991409,-76.936648,-11.718000,,,
2026-09-11T17:39:33.159,2.305928,1.386029,2.230186,12.833603,0.000000,-11.466123,3.944767,1.382745,0.048521,0.102150,0.031050,2.199474,0.012118,0.029651,0.062528,0.103633,1.009791,-3.663470,11.394837,0.900673,2.820154,1,0,,38.991409,-76.936648,-11.718000,,,
2026-09-11T17:39:33.192,2.339346,1.425353,2.278162,13.197715,0.000000,-7.416975,2.551711,1.423940,0.026300,0.055367,0.033682,2.246305,0.014886,0.038223,0.009237,0.056851,1.027737,-1.504732,8.382038,0.896785,2.708059,1,0,,38.991409,-76.936648,-11.718000,,,
2026-09-11T17:39:33.226,2.372766,1.464422,2.327300,13.559463,0.000000,-3.581373,1.232124,1.464083,0.039030,0.082168,0.035980,2.294497,0.017658,-0.004527,0.069888,0.083651,2.814607,-2.822844,9.508136,1.001674,2.509230,1,0,,38.991409,-76.936648,-11.718000,,,
2026-09-11T17:39:33.259,2.406177,1.532924,2.379172,14.193743,0.000000,-3.529874,1.214406,1.532580,0.005409,0.011388,0.037543,2.344497,0.020241,-0.070521,-0.003583,0.012872,0.660772,-0.532599,9.289349,0.960124,2.467463,1,0,,38.991409,-76.936648,-11.718000,,,
2026-09-11T17:39:33.292,2.439594,1.581348,2.431341,14.642111,0.000000,-3.536054,1.216532,1.580991,0.006245,0.013146,0.037953,2.396476,0.022399,-0.133236,-0.042651,0.014630,1.220438,-5.643433,9.886378,0.949523,2.095278,1,0,,38.991409,-76.936648,-11.718000,,,
2026-09-11T17:39:33.326,2.473008,1.610611,2.485138,14.913065,0.000000,-2.824689,0.971797,1.610379,0.006779,0.014271,0.038411,2.449747,0.024652,-0.090461,0.020222,0.015755,1.093147,1.033523,8.465297,0.929486,2.159051,1,0,,38.991409,-76.936648,-11.718000,,,
2026-09-11T17:39:33.359,2.506429,1.649640,2.540508,15.274449,0.000000,-2.345411,0.806907,1.649477,0.017253,0.036322,0.039256,2.504164,0.027168,-0.136934,-0.067436,0.037806,0.560450,-0.342154,3.875196,0.876387,2.130730,1,0,,38.991409,-76.936648,-11.718000,,,
2026-09-11T17:39:33.392,2.539846,1.679184,2.596208,15.548004,0.000000,-2.547971,0.876596,1.678988,0.002388,0.005027,0.039947,2.559720,0.029698,-0.161525,-0.038741,0.006510,1.028620,-0.218492,14.208757,0.856113,2.114056,1,0,,38.991409,-76.936648,-11.718000,,,
2026-09-11T17:39:33.426,2.573259,1.689356,2.652524,15.642189,0.000000,-2.767698,0.952190,1.689123,0.019075,0.040158,0.040702,2.615929,0.032325,0.035343,0.074337,0.041642,1.602407,-1.362438,9.475676,0.876533,2.019725,1,0,,38.991409,-76.936648,-11.718000,,,
2026-09-11T17:39:33.459,2.606679,1.738261,2.710605,16.095008,0.000000,-3.140546,1.080463,1.737952,0.011179,0.023535,0.041766,2.673126,0.035191,0.056342,0.038713,0.025018,0.987726,0.088162,8.003011,0.860298,2.022020,1,0,,38.991409,-76.936648,-11.718000,,,
2026-09-11T17:39:33.493,2.640098,1.748336,2.769336,16.188296,0.000000,-3.744108,1.288110,1.747894,0.029295,0.061673,0.043190,2.731291,0.038340,0.053645,0.068430,0.063156,0.809245,-1.506694,9.524807,0.839737,1.916774,1,0,,38.991409,-76.936648,-11.718000,,,
2026-09-11T17:39:33.527,2.673516,1.778029,2.828819,16.463228,0.000000,-4.397108,1.512766,1.777409,0.026892,0.056616,0.045167,2.790097,0.041880,0.151417,-0.015294,0.058099,1.270550,0.426001,11.055821,0.857001,1.938203,1,0,,38.991409,-76.936648,-11.718000,,,
2026-09-11T17:39:33.559,2.706935,1.807848,2.888267,16.739333,0.000000,-4.715024,1.622141,1.807123,0.049448,0.104100,0.047852,2.849868,0.045940,0.157272,-0.023289,0.105584,0.762467,-0.341762,6.984296,0.847524,1.904060,1,0,,38.991409,-76.936648,-11.718000,,,
2026-09-11T17:39:33.593,2.740358,1.808390,2.949299,16.744353,0.000000,-4.249479,1.461977,1.807801,0.036038,0.075870,0.050860,2.910136,0.050347,0.109186,0.009472,0.077354,0.938987,-0.498374,11.473781,0.858402,1.863454,1,0,,38.991409,-76.936648,-11.718000,,,
2026-09-11T17:39:33.627,2.773785,1.808887,3.009899,16.748955,0.000000,-3.864271,1.329451,1.808400,0.010927,0.023004,0.052512,2.970454,0.054253,-0.011824,0.062002,0.024487,0.047856,0.075217,4.923527,0.819790,1.866598,1,0,,38.991409,-76.936648,-11.718000,,,
2026-09-11T17:39:33.660,2.807208,1.819069,3.070657,16.843231,0.000000,-2.296659,0.790135,1.818896,0.011262,0.023709,0.053293,3.030967,0.057829,-0.108132,-0.070917,0.025193,-0.279784,-0.101695,6.279296,0.767578,1.858161,1,0,,38.991409,-76.936648,-11.718000,,,
2026-09-11T17:39:33.693,2.840628,1.838691,3.132100,17.024914,0.000000,-1.911451,0.657609,1.838570,-0.012818,-0.026986,0.053238,3.091999,0.061057,-0.092319,-0.054237,-0.025502,-0.687446,1.595934,11.515655,0.697446,1.965660,1,0,,38.991409,-76.936648,-11.718000,,,
2026-09-11T17:39:33.727,2.874048,1.848227,3.193531,17.113217,0.000000,-2.643415,0.909432,1.847995,0.010578,0.022269,0.053159,3.153516,0.064295,-0.140365,-0.069920,0.023753,0.948303,-2.287107,5.739146,0.737966,1.814852,1,0,,38.991409,-76.936648,-11.718000,,,
2026-09-11T17:39:33.760,2.907465,1.838744,3.255224,17.025411,0.000000,-4.617521,1.588597,1.838038,0.056395,0.118726,0.055515,3.214951,0.068757,-0.174196,-0.027885,0.120210,0.302829,0.278215,10.848313,0.737004,1.820239,1,0,,38.991409,-76.936648,-11.718000,,,
2026-09-11T17:39:33.794,2.940886,1.848847,3.317122,17.118953,0.000000,-10.216428,3.514826,1.845369,0.083587,0.175972,0.060440,3.276263,0.074659,-0.155924,0.033998,0.177456,0.637530,-1.474430,12.643420,0.759943,1.705271,1,0,,38.991409,-76.936648,-11.718000,,,
2026-09-11T17:39:33.827,2.974306,1.829481,3.378097,16.939639,0.000000,-19.094068,6.569060,1.817470,0.126974,0.267313,0.067847,3.337113,0.082092,-0.132062,-0.015006,0.268797,1.900333,-0.737362,12.143771,0.862961,1.628849,1,0,,38.991409,-76.936648,-11.718000,,,
2026-09-11T17:39:33.860,3.007725,1.800859,3.438388,16.674621,0.000000,-26.908094,9.257372,1.777404,0.137671,0.289834,0.077157,3.396703,0.090850,-0.012792,0.071309,0.291317,0.657438,-3.169607,13.026075,0.877621,1.393998,1,0,,38.991409,-76.936648,-11.718000,,,
2026-09-11T17:39:33.894,3.041145,1.791511,3.498065,16.588061,0.000000,-32.861310,11.305497,1.756748,0.186957,0.393595,0.088577,3.455102,0.101142,0.086699,-0.002048,0.395078,-1.710280,0.901918,9.374177,0.734299,1.413786,1,0,,38.991409,-76.936648,-11.718000,,,
2026-09-11T17:39:33.928,3.074560,1.763065,3.556477,16.324674,0.000000,-42.580091,14.649114,1.705752,0.218565,0.460137,0.102840,3.512034,0.113407,0.164797,-0.012122,0.461620,0.198585,4.319437,9.388887,0.716250,1.648400,1,0,,38.991409,-76.936648,-11.718000,,,
2026-09-11T17:39:33.961,3.107981,1.754132,3.615071,16.241963,0.000000,-43.920423,15.110237,1.693485,0.236081,0.497013,0.118835,3.567645,0.127239,0.198045,-0.015862,0.498497,0.528578,2.991028,9.831167,0.719996,1.790827,1,0,,38.991409,-76.936648,-11.718000,,,
2026-09-11T17:39:33.994,3.141406,1.764290,3.673961,16.336023,0.000000,-43.851758,15.086614,1.703481,0.248891,0.523981,0.135898,3.622922,0.142490,0.049972,-0.100666,0.525464,1.590148,-0.809637,9.448805,0.790796,1.682447,1,0,,38.991409,-76.936648,-11.718000,,,
2026-09-11T17:39:34.030,3.174827,1.774775,3.732920,16.433102,0.000000,-41.082517,14.133894,1.721049,0.221697,0.466729,0.152453,3.678426,0.158497,-0.084368,-0.096580,0.468213,0.385499,1.976138,8.496580,0.781568,1.761311,1,0,,38.991409,-76.936648,-11.718000,,,
2026-09-11T17:39:34.062,3.208247,1.774932,3.793086,16.434552,0.000000,-38.203413,13.143376,1.728436,0.193017,0.406351,0.167042,3.734232,0.174508,-0.120206,0.037466,0.407835,2.709283,-3.574132,3.692988,0.920529,1.486706,1,1,3.200062,38.991407,-76.936629,-11.673000,3.558989,-0.783739,4.585490
2026-09-11T17:39:34.095,3.241675,1.804104,3.852922,16.704663,0.000000,-30.508863,10.496168,1.773916,0.170448,0.358838,0.179832,3.790844,0.190599,-0.097592,0.029607,0.360322,2.148049,1.182780,8.287796,1.019094,1.527201,1,0,,38.991407,-76.936629,-11.673000,,,
2026-09-11T17:39:34.128,3.275093,1.862548,3.915025,17.245819,0.000000,-29.313413,10.084890,1.833771,0.154042,0.324299,0.191246,3.849091,0.207054,0.005069,-0.064375,0.325783,0.712943,7.431872,10.634331,1.023330,1.974262,1,0,,38.991407,-76.936629,-11.673000,,,
2026-09-11T17:39:34.161,3.308515,1.882429,3.977139,17.429902,0.000000,-28.834821,9.920237,1.854284,0.163854,0.344955,0.202430,3.908490,0.224318,-0.023620,-0.065759,0.346438,1.126294,-1.221909,10.869789,1.050921,1.853549,1,0,,38.991407,-76.936629,-11.673000,,,
2026-09-11T17:39:34.195,3.341940,1.892611,4.040051,17.524177,0.000000,-29.452116,10.132609,1.863092,0.178374,0.375525,0.214471,3.968085,0.242771,-0.026287,-0.023276,0.377009,0.588791,-4.957850,13.471395,1.040611,1.488515,1,0,,38.991407,-76.936629,-11.673000,,,
2026-09-11T17:39:34.228,3.375361,1.912330,4.104012,17.706756,0.000000,-30.723096,10.569873,1.879881,0.185127,0.389741,0.227259,4.027781,0.262401,0.189042,0.016334,0.391225,-0.199565,4.692188,3.977577,0.980599,1.749846,1,0,,38.991407,-76.936629,-11.673000,,,
2026-09-11T17:39:34.261,3.408781,1.922330,4.168051,17.799347,0.000000,-31.378156,10.795237,1.888310,0.191393,0.402933,0.240505,4.087573,0.283115,0.010451,-0.031842,0.404417,0.521322,-0.931926,12.881133,0.972309,1.642544,1,0,,38.991407,-76.936629,-11.673000,,,
2026-09-11T17:39:34.295,3.442203,1.932753,4.232695,17.895860,0.000000,-32.475416,11.172735,1.896122,0.208299,0.438523,0.254567,4.147247,0.305086,0.061776,-0.051125,0.440007,-1.198078,1.233971,7.690963,0.856149,1.672003,1,0,,38.991407,-76.936629,-11.673000,,,
2026-09-11T17:39:34.329,3.475622,1.943319,4.298239,17.993691,0.000000,-33.046018,11.369043,1.905186,0.198616,0.418139,0.268881,4.206841,0.328089,0.054765,0.023910,0.419622,-0.229672,-1.714301,9.507253,0.807757,1.512632,1,0,,38.991407,-76.936629,-11.673000,,,
2026-09-11T17:39:34.362,3.509046,1.905022,4.361276,17.639091,0.000000,-33.133909,11.399281,1.867443,0.209238,0.440502,0.283231,4.265643,0.351826,0.069254,0.011564,0.441985,-3.114494,4.403578,9.012998,0.581848,1.749219,1,0,,38.991407,-76.936629,-11.673000,,,
2026-09-11T17:39:34.396,3.542475,1.885848,4.424564,17.461554,0.000000,-33.221799,11.429518,1.848450,0.207945,0.437778,0.297910,4.323149,0.376298,-0.008297,0.034235,0.439261,-0.134253,1.881406,11.565473,0.559213,1.820845,1,0,,38.991407,-76.936629,-11.673000,,,
2026-09-11T17:39:34.429,3.575898,1.886487,4.488673,17.467473,0.000000,-33.666059,11.582360,1.848073,0.224492,0.472614,0.313124,4.379886,0.401770,-0.098085,-0.031096,0.474098,0.199663,-2.207771,6.752957,0.560611,1.622903,1,0,,38.991407,-76.936629,-11.673000,,,
2026-09-11T17:39:34.462,3.609321,1.866866,4.549898,17.285793,0.000000,-33.994962,11.695515,1.828107,0.194353,0.409165,0.327860,4.435991,0.427765,0.056175,-0.081006,0.410648,-1.204649,1.762059,9.643173,0.471964,1.692157,1,0,,38.991407,-76.936629,-11.673000,,,
2026-09-11T17:39:34.496,3.642747,1.867058,4.612013,17.287570,0.000000,-34.807950,11.975212,1.826426,0.214326,0.451213,0.342240,4.491423,0.454297,0.097761,-0.017556,0.452697,-1.068042,-0.787376,6.635081,0.394049,1.590737,1,0,,38.991407,-76.936629,-11.673000,,,
2026-09-11T17:39:34.530,3.676158,1.828773,4.673831,16.933079,0.000000,-35.142347,12.090257,1.788208,0.204553,0.430638,0.356971,4.545758,0.481550,0.104125,0.012355,0.432122,-1.818349,1.497475,9.398595,0.268824,1.641779,1,0,,38.991407,-76.936629,-11.673000,,,
2026-09-11T17:39:34.562,3.709575,1.838836,4.734260,17.026257,0.000000,-34.903394,12.008048,1.798599,0.213163,0.448764,0.371665,4.599265,0.509425,0.103088,-0.013139,0.450248,-0.264583,0.115817,9.006329,0.247860,1.600475,1,0,,38.991407,-76.936629,-11.673000,,,
2026-09-11T17:39:34.596,3.742997,1.819978,4.794768,16.851644,0.000000,-33.589841,11.556138,1.783085,0.206239,0.434187,0.386420,4.652277,0.538082,0.092350,-0.051703,0.435670,-0.380204,2.006931,10.189698,0.217767,1.684126,1,0,,38.991407,-76.936629,-11.673000,,,
2026-09-11T17:39:34.629,3.776410,1.801009,4.855595,16.676009,0.000000,-32.033903,11.020838,1.767794,0.170685,0.359337,0.399677,4.704668,0.566619,0.027571,0.007313,0.360821,-0.776196,-3.700147,7.137084,0.159311,1.406621,1,0,,38.991407,-76.936629,-11.673000,,,
2026-09-11T17:39:34.662,3.809832,1.772170,4.914223,16.408981,0.000000,-29.995252,10.319467,1.743504,0.171327,0.360688,0.411710,4.756327,0.595026,-0.051597,-0.040851,0.362172,3.206186,0.320677,13.368426,0.359280,1.392708,1,0,,38.991407,-76.936629,-11.673000,,,
2026-09-11T17:39:34.696,3.843257,1.792112,4.974196,16.593634,0.000000,-29.657423,10.203242,1.763771,0.153881,0.323961,0.423151,4.807704,0.623759,-0.008778,0.027572,0.325444,-0.122485,1.832765,11.491629,0.341397,1.480520,1,0,,38.991407,-76.936629,-11.673000,,,
2026-09-11T17:39:34.730,3.876671,1.782876,5.034385,16.508116,0.000000,-29.498121,10.148436,1.754983,0.155970,0.328358,0.434050,4.859023,0.652898,-0.042985,0.023526,0.329842,-0.836409,-1.057353,10.165574,0.277332,1.380045,1,0,,38.991407,-76.936629,-11.673000,,,
2026-09-11T17:39:34.763,3.910092,1.802876,5.094061,16.693298,0.000000,-29.312040,10.084417,1.775023,0.164503,0.346322,0.445324,4.910120,0.682854,0.047090,0.115885,0.347805,0.909273,-3.333575,9.465281,0.325006,1.130872,1,0,,38.991407,-76.936629,-11.673000,,,
2026-09-11T17:39:34.796,3.943517,1.793488,5.153931,16.606373,0.000000,-29.290754,10.077094,1.765821,0.168332,0.354383,0.457035,4.960947,0.713660,0.036838,0.032213,0.355866,1.071769,1.492964,9.733689,0.381553,1.196080,1,0,,38.991407,-76.936629,-11.673000,,,
2026-09-11T17:39:34.830,3.976934,1.783825,5.214428,16.516903,0.000000,-29.402677,10.115600,1.756097,0.176971,0.372570,0.469181,5.011017,0.745109,0.060365,0.007862,0.374054,1.804718,-0.493078,9.933156,0.486000,1.130204,1,0,,38.991407,-76.936629,-11.673000,,,
2026-09-11T17:39:34.863,4.010354,1.793762,5.273535,16.608905,0.000000,-29.267408,10.069062,1.766134,0.154676,0.325633,0.480848,5.060823,0.776956,0.051175,0.025581,0.327117,-0.383930,6.759332,9.372314,0.445159,1.539455,1,0,,38.991407,-76.936629,-11.673000,,,
2026-09-11T17:39:34.897,4.043782,1.774475,5.332676,16.430323,0.000000,-29.331953,10.091268,1.747024,0.167807,0.353278,0.492195,5.110207,0.809172,0.027694,-0.000691,0.354762,0.535933,3.245021,10.026809,0.461305,1.714085,1,0,,38.991407,-76.936629,-11.673000,,,
2026-09-11T17:39:34.931,4.077196,1.774853,5.392625,16.433822,0.000000,-29.327146,10.089614,1.747405,0.167403,0.352428,0.503986,5.158819,0.841984,-0.053084,0.017597,0.353911,-0.066587,-3.427522,10.837721,0.438779,1.455130,1,0,,38.991407,-76.936629,-11.673000,,,
2026-09-11T17:39:34.963,4.110610,1.755615,5.450445,16.255697,0.000000,-29.283201,10.074496,1.728546,0.156446,0.329360,0.515376,5.206872,0.875039,0.099063,0.027107,0.330843,-0.009905,-0.580358,9.729080,0.419911,1.386245,1,0,,38.991407,-76.936629,-11.673000,,,
2026-09-11T17:39:34.997,4.144027,1.755890,5.509267,16.258245,0.000000,-29.491254,10.146074,1.728432,0.168099,0.353892,0.526792,5.254266,0.908495,0.013326,0.021068,0.355376,-0.267035,-0.165046,6.848670,0.383337,1.342245,1,0,,38.991407,-76.936629,-11.673000,,,
2026-09-11T17:39:35.030,4.177442,1.746641,5.568168,16.172598,0.000000,-29.500181,10.149145,1.719310,0.172399,0.362946,0.538769,5.300995,0.942653,0.017199,-0.061071,0.364429,-1.730481,0.164359,10.241477,0.250817,1.319248,1,0,,38.991407,-76.936629,-11.673000,,,
2026-09-11T17:39:35.064,4.210865,1.747136,5.625954,16.177182,0.000000,-30.420972,10.465931,1.718069,0.171812,0.361708,0.550879,5.347139,0.977342,0.059243,0.060017,0.363192,1.403037,-2.992009,10.951479,0.321326,1.092409,1,1,4.197669,38.991410,-76.936609,-11.677000,5.294982,-0.374542,2.782677
2026-09-11T17:39:35.097,4.244290,1.728058,5.683875,16.000541,0.000000,-31.407682,10.805395,1.697419,0.161905,0.340853,0.562620,5.392653,1.012238,0.062421,0.050490,0.342336,-1.412844,2.778518,10.769761,0.207923,1.244296,1,0,,38.991410,-76.936609,-11.677000,,,
2026-09-11T17:39:35.131,4.277705,1.757959,5.743575,16.277396,0.000000,-32.366239,11.135174,1.724864,0.193607,0.407593,0.575125,5.437622,1.048044,-0.046848,-0.029883,0.409077,0.074531,2.234838,7.939268,0.190678,1.351228,1,0,,38.991410,-76.936609,-11.677000,,,
2026-09-11T17:39:35.164,4.311127,1.738949,5.800767,16.101380,0.000000,-33.092023,11.384870,1.704732,0.184552,0.388530,0.588429,5.482034,1.084815,-0.040284,0.022930,0.390014,1.849926,2.006244,8.903948,0.288026,1.444834,1,0,,38.991410,-76.936609,-11.677000,,,
2026-09-11T17:39:35.197,4.344545,1.749295,5.859407,16.197177,0.000000,-34.060194,11.717956,1.712838,0.200968,0.423090,0.601990,5.525703,1.122165,-0.048403,0.043357,0.424573,3.693283,-5.365120,9.090569,0.502397,1.056410,1,0,,38.991410,-76.936609,-11.677000,,,
2026-09-11T17:39:35.231,4.377960,1.758921,5.918947,16.286307,0.000000,-34.985792,12.036396,1.720252,0.201906,0.425064,0.616161,5.568894,1.160500,-0.015499,0.040691,0.426548,1.546313,-1.591129,7.079421,0.574713,0.916058,1,0,,38.991410,-76.936609,-11.677000,,,
2026-09-11T17:39:35.264,4.411381,1.788291,5.978133,16.558248,0.000000,-37.263395,12.819975,1.743712,0.206440,0.434610,0.630527,5.611907,1.199832,-0.057857,-0.003598,0.436093,0.959287,1.182976,10.463696,0.607504,0.955037,1,0,,38.991410,-76.936609,-11.677000,,,
2026-09-11T17:39:35.298,4.444802,1.808168,6.038584,16.742293,0.000000,-40.033323,13.772932,1.756177,0.225414,0.474556,0.645719,5.654579,1.240465,-0.058533,-0.058156,0.476040,-1.257899,-2.442052,9.935902,0.496298,0.754099,1,0,,38.991410,-76.936609,-11.677000,,,
2026-09-11T17:39:35.332,4.478251,1.798906,6.100311,16.656537,0.000000,-40.916349,14.076726,1.744887,0.238828,0.502795,0.662065,5.696330,1.282242,0.040856,0.058110,0.504279,-1.823056,2.280144,5.226650,0.347163,0.858234,1,0,,38.991410,-76.936609,-11.677000,,,
2026-09-11T17:39:35.365,4.511668,1.828413,6.160295,16.929748,0.000000,-42.582151,14.649823,1.768970,0.259124,0.545523,0.679581,5.737141,1.325255,0.018769,-0.071374,0.547007,-1.018813,-2.278673,7.420986,0.250264,0.660437,1,0,,38.991410,-76.936609,-11.677000,,,
2026-09-11T17:39:35.398,4.545082,1.819126,6.220541,16.843757,0.000000,-43.419172,14.937788,1.757651,0.241978,0.509427,0.697206,5.777325,1.369150,0.024723,-0.128790,0.510910,0.645670,0.243989,4.320614,0.261346,0.632582,1,0,,38.991410,-76.936609,-11.677000,,,
2026-09-11T17:39:35.432,4.578503,1.819686,6.281836,16.848941,0.000000,-43.274290,14.887944,1.758599,0.245438,0.516711,0.714353,5.816761,1.413459,-0.050888,-0.111429,0.518195,0.646651,-0.595754,11.264409,0.269868,0.549818,1,0,,38.991410,-76.936609,-11.677000,,,
2026-09-11T17:39:35.465,4.611921,1.820106,6.341865,16.852829,0.000000,-43.505002,14.967317,1.758355,0.252786,0.532182,0.731879,5.855309,1.458585,0.031059,0.105412,0.533665,-0.611445,0.572120,15.725356,0.196556,0.541807,1,0,,38.991410,-76.936609,-11.677000,,,
2026-09-11T17:39:35.498,4.645336,1.810822,6.402180,16.766874,0.000000,-43.218671,14.868809,1.750189,0.237551,0.500108,0.749126,5.893051,1.504178,-0.052515,-0.086931,0.501591,-0.239576,3.708679,12.855734,0.150199,0.740764,1,0,,38.991410,-76.936609,-11.677000,,,
2026-09-11T17:39:35.533,4.678754,1.821350,6.463668,16.864355,0.000000,-43.218671,14.868809,1.760364,0.234877,0.494478,0.765744,5.930247,1.550215,-0.051320,-0.143823,0.495961,1.212690,0.030597,8.935525,0.199889,0.699821,1,0,,38.991410,-76.936609,-11.677000,,,
2026-09-11T17:39:35.565,4.712169,1.802198,6.522900,16.687018,0.000000,-43.598386,14.999445,1.740794,0.254499,0.535788,0.782958,5.966346,1.596958,-0.023897,-0.096495,0.537272,-0.195643,-4.018667,4.702093,0.155239,0.393261,1,0,,38.991410,-76.936609,-11.677000,,,
2026-09-11T17:39:35.598,4.745584,1.841484,6.584501,17.050782,0.000000,-44.423734,15.283395,1.776358,0.256552,0.540109,0.800933,6.001541,1.644779,-0.007206,-0.067043,0.541593,0.523969,-2.071263,6.995966,0.158299,0.214376,1,0,,38.991410,-76.936609,-11.677000,,,
2026-09-11T17:39:35.633,4.779000,1.841396,6.646924,17.049959,0.000000,-45.560132,15.674358,1.772919,0.269202,0.566741,0.819426,6.036056,1.693790,0.048139,-0.105138,0.568224,-1.770002,5.649023,3.173236,0.015717,0.534188,1,0,,38.991410,-76.936609,-11.677000,,,
2026-09-11T17:39:35.665,4.812420,1.870637,6.708400,17.320712,0.000000,-46.967069,16.158395,1.796739,0.269336,0.567023,0.838372,6.069722,1.743843,0.008644,-0.040329,0.568506,0.515928,-0.546917,6.169462,0.022369,0.448547,1,0,,38.991410,-76.936609,-11.677000,,,
2026-09-11T17:39:35.698,4.845833,1.880639,6.770879,17.413320,0.000000,-49.045545,16.873467,1.799673,0.261633,0.550806,0.857047,6.102828,1.794762,-0.056406,-0.014651,0.552290,0.252619,1.165520,8.000265,0.010287,0.476466,1,0,,38.991410,-76.936609,-11.677000,,,
2026-09-11T17:39:35.732,4.879254,1.900420,6.834987,17.596486,0.000000,-49.590055,17.060799,1.816791,0.282148,0.593996,0.876177,6.135021,1.846698,0.024001,0.011271,0.595480,-0.033048,-2.444504,6.572809,-0.022091,0.264726,1,0,,38.991410,-76.936609,-11.677000,,,
2026-09-11T17:39:35.765,4.912671,1.881335,6.897034,17.419771,0.000000,-49.572202,17.054657,1.798604,0.264865,0.557609,0.895419,6.166164,1.899260,-0.016118,0.016118,0.559093,0.704510,5.131918,7.967315,-0.006728,0.550642,1,0,,38.991410,-76.936609,-11.677000,,,
2026-09-11T17:39:35.799,4.946086,1.910640,6.961370,17.691108,0.000000,-48.842985,16.803779,1.829056,0.271811,0.572234,0.914296,6.196552,1.952459,0.039038,-0.039869,0.573717,0.890150,-2.771163,9.076937,0.022759,0.319080,1,0,,38.991410,-76.936609,-11.677000,,,
2026-09-11T17:39:35.833,4.979503,1.920960,7.025751,17.786669,0.000000,-48.391172,16.648339,1.840436,0.261542,0.550615,0.933056,6.226405,2.006747,-0.100943,-0.092231,0.552099,0.402955,1.471292,8.288581,0.022204,0.366798,1,0,,38.991410,-76.936609,-11.677000,,,
2026-09-11T17:39:35.866,5.012917,1.912077,7.088139,17.704414,0.000000,-48.367139,16.640071,1.832004,0.251515,0.529505,0.951102,6.255557,2.061410,-0.014434,-0.066908,0.530989,0.581142,1.096482,7.133259,0.032476,0.392529,1,0,,38.991410,-76.936609,-11.677000,,,
2026-09-11T17:39:35.899,5.046333,1.893085,7.151951,17.528562,0.000000,-49.903165,17.168520,1.808730,0.280313,0.590132,0.969809,6.283138,2.116341,-0.037116,0.014710,0.591615,0.987235,2.018895,12.574675,0.070790,0.471374,1,0,,38.991410,-76.936609,-11.677000,,,
2026-09-11T17:39:35.933,5.079752,1.922797,7.216960,17.803676,0.000000,-52.966291,18.222348,1.826369,0.289675,0.609841,0.989860,6.309067,2.172084,-0.042044,-0.042606,0.611325,2.768221,-2.893648,11.962838,0.227136,0.228384,1,0,,38.991410,-76.936609,-11.677000,,,
2026-09-11T17:39:35.966,5.113169,1.932999,7.280612,17.898134,0.000000,-53.395444,18.369992,1.834495,0.303710,0.639389,1.010733,6.333753,2.228916,0.078275,-0.052146,0.640873,1.420395,0.988608,7.976337,0.294372,0.235538,1,0,,38.991410,-76.936609,-11.677000,,,
2026-09-11T17:39:35.999,5.146588,1.952349,7.346099,18.077305,0.000000,-54.711057,18.822611,1.847941,0.334044,0.703251,1.033168,6.356756,2.286963,0.010718,0.038069,0.704734,0.599186,-0.490725,13.195142,0.305613,0.138657,1,0,,38.991410,-76.936609,-11.677000,,,
2026-09-11T17:39:36.033,5.180011,1.952333,7.411745,18.077160,0.000000,-56.240217,19.348698,1.842065,0.335323,0.705943,1.056718,6.378034,2.345907,0.105896,0.321524,0.707427,0.140529,3.613554,4.289527,0.286952,0.308490,1,0,,38.991410,-76.936609,-11.677000,,,
2026-09-11T17:39:36.067,5.213428,1.913646,7.475637,17.718947,0.000000,-56.848585,19.557999,1.803235,0.335957,0.707278,1.080330,6.397530,2.404684,-0.045668,-0.056855,0.708761,2.882763,4.506058,9.069778,0.449707,0.535776,1,1,5.200288,38.991421,-76.936594,-11.699000,6.612966,0.782998,2.782677
2026-09-11T17:39:36.100,5.246843,1.942981,7.540463,17.990562,0.000000,-57.095090,19.642806,1.829912,0.351069,0.739093,1.104495,6.415276,2.463849,-0.021320,-0.038043,0.740576,1.090499,-1.090696,6.009221,0.498207,0.393346,1,0,,38.991421,-76.936594,-11.699000,,,
2026-09-11T17:39:36.134,5.280260,1.962624,7.606827,18.172444,0.000000,-57.603208,19.817617,1.846391,0.356864,0.751293,1.129398,6.431571,2.524238,0.010612,-0.075746,0.752777,-0.554174,-1.635455,6.420218,0.438763,0.214967,1,0,,38.991421,-76.936594,-11.699000,,,
2026-09-11T17:39:36.167,5.313677,1.933888,7.670867,17.906368,0.000000,-57.107450,19.647058,1.821300,0.356544,0.750619,1.154492,6.446216,2.584919,0.018652,-0.104729,0.752102,-1.331155,1.289182,7.463743,0.326438,0.229158,1,0,,38.991421,-76.936594,-11.699000,,,
2026-09-11T17:39:36.200,5.347092,1.934426,7.735898,17.911350,0.000000,-56.484663,19.432797,1.824226,0.348510,0.733704,1.179291,6.459321,2.645553,-0.005045,-0.090317,0.735188,2.017130,-3.485382,11.863007,0.429611,-0.064001,1,0,,38.991421,-76.936594,-11.699000,,,
2026-09-11T17:39:36.233,5.380512,1.954340,7.802183,18.095744,0.000000,-56.399518,19.403504,1.843338,0.353795,0.744832,1.203998,6.471098,2.706824,0.073746,-0.001497,0.746316,-0.821993,-0.021771,5.822895,0.349290,-0.131972,1,0,,38.991421,-76.936594,-11.699000,,,
2026-09-11T17:39:36.267,5.413928,1.964562,7.867328,18.190391,0.000000,-55.741025,19.176958,1.855546,0.328383,0.691332,1.227993,6.481878,2.768737,0.103977,0.023666,0.692816,-0.598892,1.954858,7.403727,0.292474,-0.065384,1,0,,38.991421,-76.936594,-11.699000,,,
2026-09-11T17:39:36.300,5.447341,1.965037,7.932826,18.194790,0.000000,-55.521986,19.101601,1.856842,0.339789,0.715346,1.251494,6.491479,2.831014,-0.018799,-0.063236,0.716829,-0.035500,1.025972,8.690948,0.277514,-0.062611,1,0,,38.991421,-76.936594,-11.699000,,,
2026-09-11T17:39:36.335,5.480757,1.945590,7.998689,18.014724,0.000000,-54.998762,18.921592,1.840457,0.353982,0.745224,1.275897,6.499106,2.893392,0.085448,-0.020013,0.746708,-0.072961,1.126490,11.899095,0.260427,-0.056163,1,0,,38.991421,-76.936594,-11.699000,,,
2026-09-11T17:39:36.367,5.514173,1.906828,8.061737,17.655814,0.000000,-54.842206,18.867732,1.804370,0.318246,0.669992,1.299543,6.505339,2.955005,-0.140700,-0.179636,0.671475,3.253748,-4.912838,3.334457,0.463949,-0.430264,1,0,,38.991421,-76.936594,-11.699000,,,
2026-09-11T17:39:36.400,5.547594,1.926448,8.126336,17.837477,0.000000,-54.793455,18.850959,1.823117,0.317538,0.668502,1.321909,6.510656,3.016312,0.052701,-0.081016,0.669985,1.774513,-2.580032,3.408399,0.573434,-0.649898,1,0,,38.991421,-76.936594,-11.699000,,,
2026-09-11T17:39:36.434,5.581011,1.956078,8.192734,18.111837,0.000000,-55.366804,19.048212,1.848972,0.334739,0.704714,1.344854,6.514488,3.078504,-0.005075,-0.158579,0.706197,-2.733506,1.251525,4.627366,0.390143,-0.624402,1,0,,38.991421,-76.936594,-11.699000,,,
2026-09-11T17:39:36.468,5.614429,2.005048,8.258870,18.565261,0.000000,-57.264692,19.701155,1.887680,0.358567,0.754877,1.369242,6.516402,3.141968,0.096226,-0.260673,0.756360,3.309450,-0.884854,8.112061,0.604359,-0.745456,1,0,,38.991421,-76.936594,-11.699000,,,
2026-09-11T17:39:36.500,5.647848,1.975971,8.324961,18.296030,0.000000,-60.256406,20.730415,1.848039,0.367255,0.773168,1.394775,6.516212,3.205548,0.205295,-0.066560,0.774652,-2.410082,1.434713,15.169515,0.448436,-0.715185,1,0,,38.991421,-76.936594,-11.699000,,,
2026-09-11T17:39:36.534,5.681266,1.908555,8.388955,17.671809,0.000000,-64.113294,22.057326,1.768866,0.357209,0.752019,1.420259,6.514109,3.267141,0.238613,0.041528,0.753502,2.458429,-2.583562,10.450064,0.609744,-0.939141,1,0,,38.991421,-76.936594,-11.699000,,,
2026-09-11T17:39:36.568,5.714679,1.880065,8.451047,17.408007,0.000000,-67.054883,23.069341,1.729718,0.363866,0.766034,1.445621,6.510217,3.326684,0.142971,-0.085745,0.767517,1.724205,-1.463054,7.349986,0.720710,-1.087703,1,0,,38.991421,-76.936594,-11.699000,,,
2026-09-11T17:39:36.601,5.748101,1.909649,8.514813,17.681933,0.000000,-67.562315,23.243916,1.754649,0.370051,0.779054,1.471440,6.504548,3.385912,0.090763,-0.009598,0.780538,-1.507576,0.021378,7.839338,0.618389,-1.141199,1,0,,38.991421,-76.936594,-11.699000,,,
2026-09-11T17:39:36.635,5.781520,1.842130,8.577235,17.056762,0.000000,-67.117368,23.090838,1.694547,0.365416,0.769298,1.497313,6.497293,3.444389,0.037471,0.000539,0.770781,-0.115915,-2.546003,3.687693,0.606736,-1.356375,1,0,,38.991421,-76.936594,-11.699000,,,
2026-09-11T17:39:36.668,5.814934,1.833162,8.638051,16.973718,0.000000,-67.464124,23.210134,1.684796,0.365903,0.770323,1.523036,6.488520,3.501479,-0.105548,-0.054769,0.771806,0.209372,1.299381,6.408940,0.617989,-1.319603,1,0,,38.991421,-76.936594,-11.699000,,,
2026-09-11T17:39:36.701,5.848348,1.814037,8.698753,16.796639,0.000000,-67.411252,23.191945,1.667446,0.375912,0.791394,1.549127,6.478083,3.557873,-0.105071,0.038780,0.792877,-1.078437,-1.562396,9.849407,0.549952,-1.470091,1,0,,38.991421,-76.936594,-11.699000,,,
2026-09-11T17:39:36.735,5.881764,1.784847,8.758805,16.526365,0.000000,-67.211439,23.123201,1.641457,0.362838,0.763869,1.575113,6.466226,3.613263,-0.059861,-0.048378,0.765353,1.288692,1.968685,9.985818,0.635492,-1.385826,1,0,,38.991421,-76.936594,-11.699000,,,
2026-09-11T17:39:36.768,5.915183,1.804548,8.818675,16.708778,0.000000,-67.323362,23.161707,1.659099,0.366759,0.772123,1.600778,6.453089,3.668190,-0.150104,0.012208,0.773607,-0.581436,-0.418744,11.985099,0.593184,-1.458986,1,0,,38.991421,-76.936594,-11.699000,,,
2026-09-11T17:39:36.801,5.948604,1.795100,8.878602,16.621300,0.000000,-67.245771,23.135013,1.650741,0.365508,0.769490,1.626539,6.438497,3.722920,-0.045174,-0.079803,0.770973,-1.508851,1.655068,10.077706,0.485808,-1.396223,1,0,,38.991421,-76.936594,-11.699000,,,
2026-09-11T17:39:36.835,5.982020,1.805266,8.939384,16.715429,0.000000,-67.354261,23.172337,1.659627,0.370768,0.780563,1.652438,6.422427,3.777249,-0.075074,-0.035153,0.782047,-0.888973,-0.983607,11.580379,0.420777,-1.506808,1,0,,38.991421,-76.936594,-11.699000,,,
2026-09-11T17:39:36.868,6.015440,1.786084,8.998513,16.537818,0.000000,-67.484037,23.216985,1.641445,0.356502,0.750530,1.678022,6.405132,3.831016,-0.060700,-0.047958,0.752014,2.371346,-1.209846,9.580705,0.567061,-1.626740,1,0,,38.991421,-76.936594,-11.699000,,,
2026-09-11T17:39:36.901,6.048858,1.796203,9.058759,16.631507,0.000000,-67.300703,23.153911,1.651522,0.375365,0.790243,1.703766,6.386400,3.884168,-0.002500,-0.029816,0.791726,1.332331,-3.664745,8.921600,0.638639,-1.909273,1,0,,38.991421,-76.936594,-11.699000,,,
2026-09-11T17:39:36.936,6.082273,1.806326,9.120031,16.725237,0.000000,-67.608320,23.259743,1.659515,0.366958,0.772543,1.729877,6.366079,3.937092,-0.020721,0.011098,0.774027,0.643022,-3.910304,13.508072,0.664150,-2.203180,1,0,,38.991421,-76.936594,-11.699000,,,
2026-09-11T17:39:36.968,6.115687,1.797042,9.178910,16.639282,0.000000,-67.629606,23.267066,1.650895,0.358574,0.754894,1.755396,6.344683,3.989509,0.020419,-0.131378,0.756377,1.018028,-0.244774,7.609666,0.711897,-2.253799,1,0,,38.991421,-76.936594,-11.699000,,,
2026-09-11T17:39:37.002,6.149111,1.817117,9.240193,16.825161,0.000000,-68.557950,23.586451,1.665311,0.367633,0.773964,1.780946,6.321913,4.041467,-0.010851,-0.029717,0.775447,0.518968,3.121457,11.976666,0.726776,-2.088240,1,0,,38.991421,-76.936594,-11.699000,,,
2026-09-11T17:39:37.036,6.182528,1.778763,9.300120,16.470029,0.000000,-70.440046,24.233961,1.622013,0.370555,0.780115,1.806912,6.297742,4.092299,-0.063296,-0.108856,0.781599,0.376183,1.429123,8.023801,0.734457,-2.032804,1,0,,38.991421,-76.936594,-11.699000,,,
2026-09-11T17:39:37.069,6.215947,1.808531,9.360924,16.745657,0.000000,-74.222776,25.535359,1.631873,0.393837,0.829131,1.833802,6.271938,4.141821,0.020070,-0.093110,0.830614,-0.827093,0.187699,12.536625,0.666204,-2.064184,1,1,6.204455,38.991436,-76.936591,-11.675000,6.857838,2.441285,3.003082
2026-09-11T17:39:37.102,6.249372,1.798890,9.420441,16.656386,0.000000,-80.605146,27.731128,1.592271,0.406671,0.856150,1.861967,6.244343,4.189984,0.081580,-0.032581,0.857633,-1.328311,2.147558,11.181935,0.566065,-1.968750,1,0,,38.991436,-76.936591,-11.675000,,,
2026-09-11T17:39:37.137,6.282789,1.808621,9.481450,16.746486,0.000000,-79.897214,27.487574,1.604447,0.423668,0.891933,1.891175,6.215034,4.236734,0.096747,-0.080217,0.893416,1.501790,-1.487080,8.196987,0.650384,-2.114517,1,0,,38.991436,-76.936591,-11.675000,,,
2026-09-11T17:39:37.169,6.316343,1.818747,9.541913,16.840251,0.000000,-80.096342,27.556081,1.612426,0.420769,0.885829,1.921001,6.183900,4.283030,0.022408,-0.041417,0.887312,-1.861302,3.026234,10.308358,0.517220,-1.965178,1,0,,38.991436,-76.936591,-11.675000,,,
2026-09-11T17:39:37.202,6.349761,1.790131,9.601862,16.575287,0.000000,-80.052396,27.540962,1.587274,0.422974,0.890471,1.950681,6.151654,4.327935,0.159709,-0.023338,0.891955,1.113937,-2.605725,10.957853,0.578081,-2.182402,1,0,,38.991436,-76.936591,-11.675000,,,
2026-09-11T17:39:37.237,6.383179,1.800238,9.662621,16.668867,0.000000,-80.031797,27.533875,1.596339,0.413391,0.870297,1.980102,6.118303,4.371667,-0.034997,-0.118662,0.871780,0.775314,1.056863,9.915700,0.616088,-2.158100,1,0,,38.991436,-76.936591,-11.675000,,,
2026-09-11T17:39:37.269,6.416593,1.780852,9.721500,16.489370,0.000000,-79.979612,27.515922,1.579406,0.404331,0.851223,2.008863,6.084043,4.414415,-0.076523,-0.081052,0.852707,-0.411585,1.916121,9.902363,0.573544,-2.075436,1,0,,38.991436,-76.936591,-11.675000,,,
2026-09-11T17:39:37.302,6.450010,1.771646,9.780675,16.404128,0.000000,-79.965192,27.510961,1.571313,0.385752,0.812110,2.036654,6.049180,4.456008,-0.033962,-0.045525,0.813593,1.938382,0.421784,12.253017,0.680020,-2.086169,1,0,,38.991436,-76.936591,-11.675000,,,
2026-09-11T17:39:37.337,6.483430,1.743008,9.840044,16.138965,0.000000,-79.566938,27.373947,1.547834,0.406261,0.855287,2.064517,6.013392,4.496129,-0.036812,-0.076452,0.856771,0.535443,-0.880833,9.674555,0.688436,-2.184381,1,0,,38.991436,-76.936591,-11.675000,,,
2026-09-11T17:39:37.369,6.516842,1.763212,9.898467,16.326032,0.000000,-79.788038,27.450013,1.564697,0.417665,0.879295,2.093495,5.976066,4.534849,-0.039294,-0.082729,0.880779,-0.489254,3.115769,9.643173,0.622831,-2.025671,1,0,,38.991436,-76.936591,-11.675000,,,
2026-09-11T17:39:37.403,6.550255,1.734602,9.956298,16.061126,0.000000,-80.047590,27.539308,1.538061,0.393324,0.828051,2.122019,5.937913,4.572465,-0.063852,-0.089829,0.829534,-0.797183,1.546313,8.299564,0.532997,-1.963872,1,0,,38.991436,-76.936591,-11.675000,,,
2026-09-11T17:39:37.437,6.583672,1.754591,10.015576,16.246214,0.000000,-80.055830,27.542143,1.555745,0.383663,0.807712,2.149350,5.899275,4.609174,-0.034984,-0.123664,0.809196,-0.612229,1.875228,10.133898,0.448161,-1.880327,1,0,,38.991436,-76.936591,-11.675000,,,
2026-09-11T17:39:37.470,6.617087,1.745335,10.073406,16.160513,0.000000,-80.024244,27.531277,1.547691,0.403544,0.849566,2.177039,5.859421,4.644839,-0.067447,-0.092272,0.851049,-1.514931,5.055818,10.636783,0.298042,-1.595324,1,0,,38.991436,-76.936591,-11.675000,,,
2026-09-11T17:39:37.503,6.650501,1.764973,10.132149,16.342341,0.000000,-79.937040,27.501275,1.565532,0.390116,0.821296,2.204954,5.818400,4.679455,-0.139085,-0.105769,0.822780,1.144632,-3.125183,9.390652,0.315079,-1.841927,1,0,,38.991436,-76.936591,-11.675000,,,
2026-09-11T17:39:37.538,6.683920,1.764951,10.191358,16.342141,0.000000,-79.096586,27.212128,1.569606,0.379884,0.799755,2.232041,5.776533,4.713467,-0.054237,-0.067383,0.801239,-0.441692,2.893942,9.100866,0.223158,-1.693609,1,0,,38.991436,-76.936591,-11.675000,,,
2026-09-11T17:39:37.570,6.717333,1.775109,10.250271,16.436197,0.000000,-77.167799,26.548555,1.587935,0.381437,0.803026,2.258817,5.733653,4.746712,-0.010678,-0.050805,0.804510,2.388704,0.073060,9.405166,0.310508,-1.731109,1,0,,38.991436,-76.936591,-11.675000,,,
2026-09-11T17:39:37.603,6.750744,1.814453,10.310904,16.800494,0.000000,-75.034391,25.814584,1.633385,0.370627,0.780266,2.285267,5.689329,4.779715,0.081500,-0.023999,0.781750,0.463364,5.018651,11.302851,0.269292,-1.447624,1,0,,38.991436,-76.936591,-11.675000,,,
2026-09-11T17:39:37.638,6.784162,1.853443,10.373759,17.161509,0.000000,-73.056852,25.134238,1.677950,0.376047,0.791677,2.311533,5.643211,4.812726,0.080769,-0.076669,0.793161,1.211219,-0.212412,9.386141,0.274338,-1.509800,1,0,,38.991436,-76.936591,-11.675000,,,
2026-09-11T17:39:37.670,6.817576,1.902039,10.436592,17.611471,0.000000,-71.106092,24.463105,1.731289,0.395559,0.832755,2.338672,5.594811,4.845391,-0.017350,-0.038545,0.834239,1.450796,0.459736,13.891316,0.293704,-1.535065,1,0,,38.991436,-76.936591,-11.675000,,,
2026-09-11T17:39:37.703,6.850988,1.951121,10.501771,18.065938,0.000000,-69.401151,23.876543,1.784144,0.379096,0.798097,2.365918,5.544252,4.877957,0.010872,-0.079432,0.799581,2.627496,0.236634,8.597294,0.389133,-1.573355,1,0,,38.991436,-76.936591,-11.675000,,,
2026-09-11T17:39:37.738,6.884406,2.009974,10.569445,18.610873,0.000000,-69.805585,24.015683,1.835979,0.403554,0.849586,2.393448,5.491462,4.910235,0.044430,-0.063987,0.851070,-0.013533,1.916023,5.836232,0.312602,-1.511180,1,0,,38.991436,-76.936591,-11.675000,,,
2026-09-11T17:39:37.770,6.917822,2.059061,10.637712,19.065377,0.000000,-70.040418,24.096474,1.879633,0.427243,0.899459,2.422672,5.436057,4.941472,-0.002180,0.004604,0.900943,-0.042071,-1.727441,9.154116,0.236726,-1.694343,1,0,,38.991436,-76.936591,-11.675000,,,
2026-09-11T17:39:37.804,6.951236,2.088403,10.707505,19.337066,0.000000,-70.319883,24.192620,1.904985,0.435300,0.916421,2.453009,5.378529,4.971390,0.108285,-0.131236,0.917905,1.020774,0.324404,8.228368,0.232767,-1.746050,1,0,,38.991436,-76.936591,-11.675000,,,
2026-09-11T17:39:37.838,6.984653,2.108205,10.778552,19.520417,0.000000,-69.962141,24.069544,1.924899,0.435606,0.917064,2.483644,5.319432,4.999908,0.100602,-0.052617,0.918548,-0.855238,2.467059,5.158788,0.114347,-1.659547,1,0,,38.991436,-76.936591,-11.675000,,,
2026-09-11T17:39:37.871,7.018077,2.127571,10.849006,19.699734,0.000000,-69.578306,23.937490,1.944576,0.430726,0.906791,2.514125,5.258993,5.027071,0.080365,-0.062942,0.908275,-1.275551,1.538958,10.255697,-0.022116,-1.634040,1,0,,38.991436,-76.936591,-11.675000,,,
2026-09-11T17:39:37.904,7.051501,2.137375,10.920383,19.790510,0.000000,-69.216444,23.812997,1.955416,0.429360,0.903915,2.544385,5.197401,5.052766,0.050041,-0.076519,0.905399,3.216777,-1.486296,7.734407,0.141144,-1.805256,1,0,,38.991436,-76.936591,-11.675000,,,
2026-09-11T17:39:37.938,7.084918,2.128196,10.992261,19.705523,0.000000,-68.033353,23.405970,1.953074,0.424473,0.893628,2.574420,5.135016,5.076757,-0.036330,-0.065004,0.895112,-2.002224,2.648776,9.566289,-0.027370,-1.705018,1,0,,38.991436,-76.936591,-11.675000,,,
2026-09-11T17:39:37.971,7.118331,2.138297,11.062374,19.799049,0.000000,-67.829420,23.335809,1.963382,0.422200,0.888841,2.604199,5.071898,5.099038,-0.024888,-0.060551,0.890325,3.450274,-1.592208,8.991914,0.165316,-1.880818,1,0,,38.991436,-76.936591,-11.675000,,,
2026-09-11T17:39:38.005,7.151755,2.138596,11.134502,19.801813,0.000000,-68.161069,23.449909,1.961966,0.430430,0.906169,2.634197,5.007946,5.119418,0.022963,-0.075570,0.907653,-0.142294,-2.443229,8.958375,0.128536,-2.112094,1,0,,38.991436,-76.936591,-11.675000,,,
2026-09-11T17:39:38.038,7.185174,2.138867,11.205993,19.804325,0.000000,-68.648588,23.617633,1.959714,0.434130,0.913958,2.664610,4.943377,5.137650,0.043449,-0.078957,0.915442,0.285668,-1.454424,10.921568,0.123376,-2.277544,1,0,,38.991436,-76.936591,-11.675000,,,
2026-09-11T17:39:38.071,7.218597,2.129926,11.277131,19.721539,0.000000,-69.106580,23.775200,1.949168,0.453200,0.954106,2.695828,4.878296,5.153451,0.070354,-0.025938,0.955589,-4.916858,-0.257130,11.335703,-0.218048,-2.367968,1,1,7.200616,38.991447,-76.936604,-11.690000,5.758077,3.727625,2.782677
2026-09-11T17:39:38.105,7.252021,2.101504,11.347221,19.458374,0.000000,-70.457899,24.240103,1.916221,0.420340,0.884926,2.726562,4.813502,5.167146,0.042884,-0.056485,0.886410,3.008778,-5.430825,8.901202,-0.041683,-2.782618,1,0,,38.991447,-76.936604,-11.690000,,,
2026-09-11T17:39:38.139,7.285438,2.111368,11.419008,19.549704,0.000000,-71.958219,24.756268,1.917328,0.436900,0.919790,2.756716,4.748938,5.178890,-0.068271,-0.029763,0.921273,-2.243762,4.402401,4.128698,-0.204204,-2.558791,1,0,,38.991447,-76.936604,-11.690000,,,
2026-09-11T17:39:38.171,7.318853,2.102186,11.488049,19.464683,0.000000,-73.658353,25.341177,1.899903,0.454273,0.956364,2.788062,4.684101,5.188021,-0.054394,-0.022055,0.957847,-0.605561,2.354086,7.583483,-0.256863,-2.473888,1,0,,38.991447,-76.936604,-11.690000,,,
2026-09-11T17:39:38.205,7.352267,2.121418,11.558629,19.642756,0.000000,-76.523725,26.326970,1.901380,0.465441,0.979877,2.820411,4.619097,5.194540,-0.089716,-0.133074,0.981360,0.567511,2.319763,14.234451,-0.230277,-2.395155,1,0,,38.991447,-76.936604,-11.690000,,,
2026-09-11T17:39:38.239,7.385685,2.141132,11.631361,19.825299,0.000000,-78.949644,27.161575,1.905014,0.460897,0.970309,2.852996,4.553791,5.198867,-0.036373,-0.193971,0.971793,1.417159,1.505811,9.924526,-0.144974,-2.369153,1,0,,38.991447,-76.936604,-11.690000,,,
2026-09-11T17:39:38.272,7.419102,2.160932,11.702636,20.008629,0.000000,-79.986478,27.518284,1.916451,0.484735,1.020494,2.886259,4.488057,5.200794,0.018451,-0.119918,1.021978,-0.133861,0.887110,10.241281,-0.156917,-2.390542,1,0,,38.991447,-76.936604,-11.690000,,,
2026-09-11T17:39:38.305,7.452516,2.171071,11.775232,20.102505,0.000000,-80.926496,27.841684,1.919751,0.507890,1.069243,2.921172,4.421879,5.199777,0.086005,-0.063253,1.070726,-0.917412,1.023618,2.593271,-0.215599,-2.409126,1,0,,38.991447,-76.936604,-11.690000,,,
2026-09-11T17:39:38.339,7.485937,2.210559,11.850574,20.468135,0.000000,-80.949842,27.849716,1.954523,0.519170,1.092989,2.957305,4.355021,5.195966,0.054213,-0.082750,1.094472,0.548290,-3.139697,6.863282,-0.177874,-2.703163,1,0,,38.991447,-76.936604,-11.690000,,,
2026-09-11T17:39:38.372,7.519358,2.201395,11.922611,20.383283,0.000000,-81.212827,27.940193,1.944794,0.537756,1.132118,2.994488,4.287858,5.189297,0.082690,0.016441,1.133601,0.110129,-5.059839,13.181217,-0.167699,-3.123035,1,0,,38.991447,-76.936604,-11.690000,,,
2026-09-11T17:39:38.405,7.552779,2.192116,11.995572,20.297366,0.000000,-81.034299,27.878773,1.937696,0.519857,1.094436,3.031694,4.221257,5.180088,0.272401,-0.153181,1.095919,-3.232860,3.813708,14.003210,-0.372522,-2.956722,1,0,,38.991447,-76.936604,-11.690000,,,
2026-09-11T17:39:38.439,7.586323,2.173414,12.068931,20.124203,0.000000,-80.920316,27.839558,1.921860,0.513459,1.080967,3.068180,4.155219,5.168761,0.311431,-0.091493,1.082451,2.678981,-5.500256,8.500797,-0.190662,-3.396092,1,0,,38.991447,-76.936604,-11.690000,,,
2026-09-11T17:39:38.472,7.619740,2.154550,12.140081,19.949541,0.000000,-81.266386,27.958619,1.903085,0.508978,1.071533,3.104145,4.090472,5.155253,0.230948,-0.166707,1.073016,-2.701830,4.733376,10.876360,-0.358262,-3.161674,1,0,,38.991447,-76.936604,-11.690000,,,
2026-09-11T17:39:38.506,7.653158,2.115935,12.210455,19.591989,0.000000,-81.346723,27.986258,1.868498,0.491210,1.034126,3.139329,4.027137,5.139808,0.275541,-0.118027,1.035610,-0.665970,3.423305,7.493458,-0.393004,-3.008050,1,0,,38.991447,-76.936604,-11.690000,,,
2026-09-11T17:39:38.540,7.686572,2.077060,12.280522,19.232037,0.000000,-80.997221,27.866016,1.836210,0.505030,1.063221,3.174369,3.965518,5.122234,0.193641,-0.063341,1.064705,-2.312997,-2.837260,9.138229,-0.533566,-3.264040,1,0,,38.991447,-76.936604,-11.690000,,,
2026-09-11T17:39:38.573,7.719990,2.028886,12.347695,18.785979,0.000000,-80.528242,27.704670,1.796286,0.491518,1.034775,3.209424,3.905741,5.102566,0.219758,-0.057151,1.036259,-0.583398,0.417371,7.131396,-0.555001,-3.299756,1,0,,38.991447,-76.936604,-11.690000,,,
2026-09-11T17:39:38.606,7.753415,2.010002,12.414788,18.611133,0.000000,-80.669691,27.753334,1.778773,0.482508,1.015807,3.243694,3.847596,5.081284,0.002503,-0.017303,1.017291,-1.196411,-1.073828,9.630817,-0.613835,-3.428632,1,0,,38.991447,-76.936604,-11.690000,,,
2026-09-11T17:39:38.640,7.786829,1.971553,12.481050,18.255121,0.000000,-80.547468,27.711285,1.745420,0.457438,0.963027,3.276756,3.790988,5.058733,0.132232,-0.013477,0.964511,-0.452773,0.648514,9.862058,-0.624147,-3.435953,1,0,,38.991447,-76.936604,-11.690000,,,
2026-09-11T17:39:38.673,7.820243,1.962042,12.545830,18.167054,0.000000,-80.210325,27.595295,1.738843,0.472068,0.993827,3.309448,3.735799,5.034601,0.087064,0.049526,0.995310,-0.620369,0.535345,11.187721,-0.644431,-3.453615,1,0,,38.991447,-76.936604,-11.690000,,,
2026-09-11T17:39:38.706,7.853660,1.933323,12.610872,17.901141,0.000000,-80.403959,27.661912,1.712349,0.449884,0.947125,3.341878,3.681929,5.008912,0.045790,-0.028928,0.948608,0.518085,3.489991,7.298894,-0.593522,-3.272195,1,0,,38.991447,-76.936604,-11.690000,,,
2026-09-11T17:39:38.741,7.887074,1.943750,12.676530,17.997689,0.000000,-80.367567,27.649392,1.721782,0.453928,0.955638,3.373668,3.629137,4.981858,0.053920,-0.080414,0.957121,-0.366671,2.682217,7.102368,-0.602898,-3.146840,1,0,,38.991447,-76.936604,-11.690000,,,
2026-09-11T17:39:38.773,7.920490,1.963655,12.741356,18.181991,0.000000,-80.437604,27.673488,1.739030,0.458092,0.964404,3.405749,3.576835,4.952886,0.117747,-0.056160,0.965888,-1.803149,3.965711,12.396586,-0.708002,-2.941606,1,0,,38.991447,-76.936604,-11.690000,,,
2026-09-11T17:39:38.806,7.953909,1.954524,12.805681,18.097449,0.000000,-80.436231,27.673015,1.730951,0.458953,0.966216,3.438007,3.525362,4.922128,0.103503,0.005009,0.967700,-2.342809,-0.284001,8.242686,-0.850017,-3.014326,1,0,,38.991447,-76.936604,-11.690000,,,
2026-09-11T17:39:38.841,7.987322,1.906599,12.870769,17.653696,0.000000,-80.277616,27.618446,1.689351,0.436404,0.918746,3.469499,3.475573,4.890356,0.078155,0.059625,0.920230,-0.353432,3.240117,4.055834,-0.865849,-2.849605,1,0,,38.991447,-76.936604,-11.690000,,,
2026-09-11T17:39:38.873,8.020740,1.945539,12.935208,18.014253,0.000000,-80.185606,27.586791,1.724352,0.441181,0.928803,3.500370,3.426808,4.857342,0.025684,-0.015250,0.930286,-0.948107,6.388444,4.306002,-0.924220,-2.485594,1,0,,38.991447,-76.936604,-11.690000,,,
2026-09-11T17:39:38.907,8.054156,1.887041,12.998051,17.472602,0.000000,-79.381544,27.310164,1.676704,0.418166,0.880349,3.530597,3.379149,4.823234,-0.124990,-0.096345,0.881832,1.410490,2.103526,5.029046,-0.830688,-2.395645,1,0,,38.991447,-76.936604,-11.690000,,,
2026-09-11T17:39:38.941,8.087580,1.897199,13.061829,17.566658,0.000000,-78.619367,27.047947,1.689695,0.431510,0.908443,3.560491,3.333010,4.788067,0.054405,0.002001,0.909926,0.509554,3.736726,12.248016,-0.797657,-2.204537,1,0,,38.991447,-76.936604,-11.690000,,,
2026-09-11T17:39:38.973,8.121001,1.887837,13.124491,17.479970,0.000000,-78.134595,26.881168,1.683849,0.413498,0.870522,3.590218,3.287792,4.751565,0.102038,0.075423,0.872005,0.393345,-0.086593,6.335586,-0.772728,-2.259136,1,0,,38.991447,-76.936604,-11.690000,,,
2026-09-11T17:39:39.008,8.154422,1.878377,13.188223,17.392383,0.000000,-78.290464,26.934793,1.674616,0.414626,0.872897,3.619352,3.243770,4.714115,-0.105412,0.004591,0.874381,1.999674,1.533368,7.701653,-0.640915,-2.207767,1,0,,38.991447,-76.936604,-11.690000,,,
2026-09-11T17:39:39.041,8.187842,1.869228,13.249870,17.307671,0.000000,-79.241468,27.261973,1.661597,0.428605,0.902327,3.649016,3.201319,4.675344,-0.049938,0.069101,0.903810,0.886031,-1.903863,8.568463,-0.581788,-2.382411,1,0,,38.991447,-76.936604,-11.690000,,,
2026-09-11T17:39:39.074,8.221261,1.859620,13.312019,17.218708,0.000000,-79.584791,27.380089,1.651297,0.419919,0.884040,3.678866,3.160419,4.635443,-0.041064,0.027981,0.885524,1.627316,3.113317,2.866190,-0.479817,-2.227042,1,1,8.200433,38.991447,-76.936624,-11.772000,3.983912,3.662576,2.782677
2026-09-11T17:39:39.107,8.254681,1.879675,13.375216,17.404403,0.000000,-79.800397,27.454265,1.667985,0.438706,0.923591,3.709071,3.120742,4.594130,0.108867,-0.028158,0.925074,0.432964,2.407238,12.803955,-0.458925,-2.124456,1,0,,38.991447,-76.936624,-11.772000,,,
2026-09-11T17:39:39.141,8.288102,1.880360,13.438287,17.410742,0.000000,-80.299589,27.626005,1.665986,0.442218,0.930986,3.740062,3.082341,4.551177,-0.098065,-0.050764,0.932469,-0.434631,-1.179054,11.106522,-0.497606,-2.256338,1,0,,38.991447,-76.936624,-11.772000,,,
2026-09-11T17:39:39.174,8.321528,1.861395,13.500219,17.235143,0.000000,-80.331174,27.636872,1.649020,0.446789,0.940608,3.771342,3.045625,4.507118,-0.093511,0.037247,0.942092,-0.698430,-2.092739,14.031747,-0.559409,-2.446103,1,0,,38.991447,-76.936624,-11.772000,,,
2026-09-11T17:39:39.208,8.354946,1.861918,13.562733,17.239981,0.000000,-80.000898,27.523245,1.651192,0.441895,0.930306,3.802603,3.010508,4.462091,0.016570,0.046947,0.931790,0.781982,-2.153638,10.232455,-0.527543,-2.636751,1,0,,38.991447,-76.936624,-11.772000,,,
2026-09-11T17:39:39.242,8.388367,1.842473,13.625064,17.059933,0.000000,-79.741346,27.433949,1.635273,0.434892,0.915562,3.833448,2.976854,4.416294,-0.002048,0.013142,0.917046,-1.128451,-3.801058,11.665893,-0.624051,-2.929802,1,0,,38.991447,-76.936624,-11.772000,,,
2026-09-11T17:39:39.275,8.421784,1.832748,13.685674,16.969890,0.000000,-79.429609,27.326700,1.628220,0.417381,0.878697,3.863427,2.944638,4.370057,-0.054005,-0.056843,0.880181,0.763938,1.099522,7.924656,-0.604827,-2.897112,1,0,,38.991447,-76.936624,-11.772000,,,
2026-09-11T17:39:39.308,8.455208,1.833269,13.747174,16.974708,0.000000,-78.894712,27.142676,1.631377,0.425151,0.895055,3.893070,2.913752,4.323036,0.008287,-0.002832,0.896538,-0.678130,0.826014,8.591018,-0.685585,-2.884454,1,0,,38.991447,-76.936624,-11.772000,,,
2026-09-11T17:39:39.342,8.488632,1.843472,13.808855,17.069185,0.000000,-77.421171,26.635724,1.647833,0.398134,0.838177,3.922036,2.883794,4.275127,0.006521,-0.053103,0.839660,1.478156,0.840038,8.972006,-0.627283,-2.865896,1,0,,38.991447,-76.936624,-11.772000,,,
2026-09-11T17:39:39.375,8.522049,1.853476,13.870582,17.161812,0.000000,-75.562421,25.996246,1.665946,0.400247,0.842625,3.950120,2.854524,4.226277,-0.074126,-0.043309,0.844109,1.216515,0.258797,9.481658,-0.586368,-2.886753,1,0,,38.991447,-76.936624,-11.772000,,,
2026-09-11T17:39:39.408,8.555472,1.863739,13.932970,17.256839,0.000000,-73.607542,25.323695,1.684644,0.388018,0.816881,3.977853,2.826080,4.176282,-0.034785,0.021616,0.818364,1.059707,0.785415,10.247361,-0.556160,-2.871391,1,0,,38.991447,-76.936624,-11.772000,,,
2026-09-11T17:39:39.442,8.588894,1.893342,13.995666,17.530947,0.000000,-69.355833,23.860952,1.731518,0.380506,0.801065,4.004890,2.798049,4.124920,0.082702,-0.012971,0.802549,2.209046,-3.063401,9.949141,-0.451634,-3.106877,1,0,,38.991447,-76.936624,-11.772000,,,
2026-09-11T17:39:39.476,8.622315,1.884235,14.059307,17.446622,0.000000,-66.581785,22.906577,1.735646,0.360188,0.758291,4.030948,2.770482,4.072480,0.069965,0.056182,0.759774,1.896312,-1.237795,10.756718,-0.368057,-3.216603,1,0,,38.991447,-76.936624,-11.772000,,,
2026-09-11T17:39:39.508,8.655741,1.933408,14.123518,17.901930,0.000000,-65.816862,22.643416,1.784379,0.348437,0.733551,4.055881,2.743295,4.018981,0.186603,-0.064376,0.735034,-0.116699,2.307407,14.111181,-0.414310,-3.094322,1,0,,38.991447,-76.936624,-11.772000,,,
2026-09-11T17:39:39.542,8.689163,1.982493,14.190281,18.356418,0.000000,-64.795820,22.292140,1.834325,0.347377,0.731321,4.080361,2.716281,3.963645,0.032831,-0.083002,0.732804,-0.612523,3.960906,10.363766,-0.487542,-2.868166,1,0,,38.991447,-76.936624,-11.772000,,,
2026-09-11T17:39:39.576,8.722581,2.002380,14.256508,18.540555,0.000000,-62.991315,21.671324,1.860847,0.358104,0.753904,4.105177,2.690030,3.906538,-0.057273,-0.055578,0.755388,0.958012,0.570551,9.633955,-0.452679,-2.868699,1,0,,38.991447,-76.936624,-11.772000,,,
2026-09-11T17:39:39.609,8.756008,1.992841,14.323305,18.452235,0.000000,-60.618268,20.854909,1.862280,0.339426,0.714582,4.129720,2.664810,3.848471,-0.067566,-0.097646,0.716065,-3.197164,3.323180,12.979298,-0.683007,-2.685797,1,0,,38.991447,-76.936624,-11.772000,,,
2026-09-11T17:39:39.643,8.789426,1.982962,14.390045,18.360761,0.000000,-55.878355,19.224205,1.872387,0.348791,0.734297,4.153930,2.640788,3.789746,-0.047057,0.043239,0.735781,-0.632725,0.412370,10.819775,-0.740761,-2.696800,1,0,,38.991447,-76.936624,-11.772000,,,
2026-09-11T17:39:39.676,8.822841,1.954154,14.454848,18.094020,0.000000,-55.900327,19.231764,1.845100,0.351093,0.739144,4.178548,2.618518,3.730606,-0.040058,-0.020894,0.740628,0.134253,-1.062060,8.829123,-0.743760,-2.802668,1,0,,38.991447,-76.936624,-11.772000,,,
2026-09-11T17:39:39.709,8.856309,1.964437,14.520289,18.189230,0.000000,-56.251203,19.352478,1.853442,0.344398,0.725049,4.203049,2.597773,3.671148,-0.039953,-0.082576,0.726532,-2.687611,0.915843,12.978709,-0.924732,-2.777638,1,0,,38.991447,-76.936624,-11.772000,,,
2026-09-11T17:39:39.743,8.889731,1.935706,14.585514,17.923207,0.000000,-56.750394,19.524218,1.824404,0.342981,0.722066,4.227232,2.578547,3.611657,0.024091,-0.086184,0.723549,0.826210,-0.072177,12.207122,-0.871795,-2.815352,1,0,,38.991447,-76.936624,-11.772000,,,
2026-09-11T17:39:39.776,8.923150,1.926259,14.648631,17.835730,0.000000,-58.407957,20.094480,1.809002,0.359101,0.756001,4.251930,2.561344,3.552272,-0.082248,-0.094429,0.757485,-1.932989,1.014498,9.483325,-0.991322,-2.785357,1,0,,38.991447,-76.936624,-11.772000,,,
2026-09-11T17:39:39.809,8.956570,1.868491,14.711760,17.300845,0.000000,-59.803220,20.574502,1.749311,0.349017,0.734773,4.276840,2.546243,3.493564,-0.062245,-0.026595,0.736256,-0.607228,0.211529,12.157010,-1.018858,-2.802485,1,0,,38.991447,-76.936624,-11.772000,,,
2026-09-11T17:39:39.843,8.989987,1.869174,14.774934,17.307168,0.000000,-61.970273,21.320048,1.741255,0.358596,0.754939,4.301731,2.533077,3.435538,-0.056807,0.002021,0.756422,-2.389586,-1.085498,10.387106,-1.162746,-2.905529,1,0,,38.991447,-76.936624,-11.772000,,,
2026-09-11T17:39:39.876,9.023403,1.869940,14.836445,17.314259,0.000000,-67.210065,23.122729,1.719720,0.356188,0.749869,4.326874,2.521666,3.377610,0.018626,-0.003898,0.751353,1.533074,1.102464,12.009028,-1.050874,-2.863755,1,0,,38.991447,-76.936624,-11.772000,,,
2026-09-11T17:39:39.909,9.056826,1.870213,14.899106,17.316789,0.000000,-68.141157,23.443058,1.715838,0.380679,0.801430,4.352798,2.512239,3.319662,-0.007869,-0.073485,0.802913,-0.462678,4.675615,11.584792,-1.068899,-2.596012,1,0,,38.991447,-76.936624,-11.772000,,,
2026-09-11T17:39:39.943,9.090247,1.880480,14.962405,17.411853,0.000000,-70.221693,24.158839,1.715777,0.387968,0.816775,4.379839,2.504872,3.261367,-0.064122,-0.103908,0.818259,1.144142,1.806385,9.800864,-0.984608,-2.519250,1,0,,38.991447,-76.936624,-11.772000,,,
2026-09-11T17:39:39.976,9.123662,1.861019,15.023620,17.231659,0.000000,-71.595670,24.631538,1.691679,0.402076,0.846477,4.407628,2.499567,3.203179,-0.092340,-0.129996,0.847960,0.400013,1.840316,9.524611,-0.952311,-2.443142,1,0,,38.991447,-76.936624,-11.772000,,,
2026-09-11T17:39:40.012,9.157082,1.880462,15.087204,17.411690,0.000000,-73.021146,25.121954,1.702582,0.402515,0.847400,4.435932,2.496199,3.144992,-0.057108,-0.066155,0.848884,1.559748,-0.292336,10.699546,-0.847651,-2.506967,1,0,,38.991447,-76.936624,-11.772000,,,
2026-09-11T17:39:40.043,9.190498,1.890605,15.150070,17.505599,0.000000,-77.988340,26.830851,1.687068,0.410727,0.864689,4.464539,2.494643,3.086779,-0.053490,-0.043732,0.866172,2.803917,-4.090942,8.053319,-0.669153,-2.817692,1,0,,38.991447,-76.936624,-11.772000,,,
2026-09-11T17:39:40.077,9.223917,1.910361,15.213689,17.688525,0.000000,-78.232786,26.914949,1.703429,0.416042,0.875878,4.493623,2.494989,3.028473,0.058053,-0.024968,0.877362,0.035206,-2.576109,4.002388,-0.680751,-3.028901,1,1,9.206270,38.991434,-76.936636,-11.733000,2.989879,2.268377,3.427232
2026-09-11T17:39:40.110,9.257336,1.949253,15.278754,18.048643,0.000000,-78.672925,27.066373,1.735771,0.424259,0.893177,4.523182,2.497106,2.969360,0.127262,-0.132922,0.894661,-4.874199,5.678050,13.456685,-1.017024,-2.705601,1,0,,38.991434,-76.936636,-11.733000,,,
2026-09-11T17:39:40.143,9.290752,1.920402,15.343056,17.781496,0.000000,-78.839780,27.123778,1.709203,0.414122,0.871836,4.552673,2.500903,2.910248,0.060978,-0.054786,0.873319,0.899172,3.262182,10.531950,-0.983350,-2.538903,1,0,,38.991434,-76.936636,-11.733000,,,
2026-09-11T17:39:40.179,9.324167,1.920764,15.408440,17.784851,0.000000,-78.497831,27.006134,1.711320,0.412972,0.869414,4.581765,2.506309,2.851708,0.051107,-0.021801,0.870897,-1.341550,3.491069,12.615177,-1.102629,-2.359099,1,0,,38.991434,-76.936636,-11.733000,,,
2026-09-11T17:39:40.211,9.357585,1.931009,15.473061,17.879715,0.000000,-78.747770,27.092123,1.719130,0.415312,0.874341,4.610900,2.513419,2.793179,0.047806,-0.000246,0.875825,-0.448066,4.070740,14.960143,-1.171740,-2.144705,1,0,,38.991434,-76.936636,-11.733000,,,
2026-09-11T17:39:40.244,9.390999,1.951084,15.537853,18.065594,0.000000,-79.012815,27.183308,1.735586,0.424152,0.892951,4.640427,2.522395,2.734471,0.087572,0.042138,0.894435,1.169737,-0.235654,6.072768,-1.142614,-2.215066,1,0,,38.991434,-76.936636,-11.733000,,,
2026-09-11T17:39:40.277,9.424412,1.922411,15.601676,17.800097,0.000000,-78.880979,27.137952,1.710774,0.415830,0.875431,4.669970,2.533107,2.676191,0.070618,-0.093340,0.876914,2.227188,-0.333524,11.103384,-1.051267,-2.287618,1,0,,38.991434,-76.936636,-11.733000,,,
2026-09-11T17:39:40.310,9.457838,1.951904,15.667630,18.073181,0.000000,-77.232343,26.570760,1.745749,0.413100,0.869685,4.699136,2.545355,2.618065,0.059320,-0.099180,0.871169,2.795189,0.407859,14.182083,-0.925195,-2.312624,1,0,,38.991434,-76.936636,-11.733000,,,
2026-09-11T17:39:40.343,9.491259,1.971622,15.733505,18.255760,0.000000,-73.649427,25.338106,1.781948,0.405789,0.854292,4.727945,2.559114,2.559135,0.118263,-0.074101,0.855775,2.570127,1.778632,9.012802,-0.815161,-2.248674,1,0,,38.991434,-76.936636,-11.733000,,,
2026-09-11T17:39:40.377,9.524677,1.981442,15.799595,18.346683,0.000000,-66.270734,22.799565,1.826624,0.376216,0.792034,4.755454,2.573951,2.499247,0.210236,-0.169425,0.793518,-2.269357,3.954434,5.911841,-1.022748,-2.039414,1,0,,38.991434,-76.936636,-11.733000,,,
2026-09-11T17:39:40.411,9.558099,2.020509,15.867167,18.708414,0.000000,-64.586393,22.220089,1.870462,0.354250,0.745790,4.781152,2.589600,2.438245,0.113872,-0.138133,0.747274,1.034504,-0.010689,14.519530,-1.011227,-2.086312,1,0,,38.991434,-76.936636,-11.733000,,,
2026-09-11T17:39:40.446,9.591520,2.050122,15.936379,18.982611,0.000000,-54.680845,18.812217,1.940606,0.323421,0.680887,4.804992,2.606033,2.375680,0.212170,-0.067070,0.682371,-2.541393,5.971563,8.291130,-1.225967,-1.739948,1,0,,38.991434,-76.936636,-11.733000,,,
2026-09-11T17:39:40.478,9.624938,2.089096,16.005660,19.343483,0.000000,-52.786390,18.160455,1.985033,0.321691,0.677244,4.827686,2.623568,2.311562,0.069532,-0.071553,0.678727,1.258389,-3.933644,7.735388,-1.190837,-2.041256,1,0,,38.991434,-76.936636,-11.733000,,,
2026-09-11T17:39:40.511,9.658357,2.128343,16.076661,19.706881,0.000000,-48.442670,16.666056,2.038937,0.287479,0.605220,4.849115,2.642126,2.246135,0.076575,-0.137668,0.606704,2.259354,-0.904271,10.083688,-1.091416,-2.135650,1,0,,38.991434,-76.936636,-11.733000,,,
2026-09-11T17:39:40.545,9.691778,2.148339,16.148494,19.892025,0.000000,-44.697019,15.377415,2.071428,0.268635,0.565547,4.868679,2.661351,2.179543,0.097713,0.033453,0.567031,2.711245,-3.900007,5.937829,-0.962685,-2.419335,1,0,,38.991434,-76.936636,-11.733000,,,
2026-09-11T17:39:40.578,9.725195,2.119757,16.219187,19.627378,0.000000,-40.864851,14.059008,2.056262,0.248600,0.523368,4.886873,2.681227,2.112939,-0.050739,0.077422,0.524852,0.668715,2.642304,3.181179,-0.962341,-2.269229,1,0,,38.991434,-76.936636,-11.733000,,,
2026-09-11T17:39:40.611,9.758614,2.188168,16.291669,20.260817,0.000000,-41.351682,14.226496,2.121061,0.284351,0.598635,4.905621,2.702752,2.045953,0.208995,-0.337466,0.600118,2.379682,6.302636,12.131022,-0.843875,-1.895962,1,0,,38.991434,-76.936636,-11.733000,,,
2026-09-11T17:39:40.647,9.792037,2.188441,16.365393,20.263347,0.000000,-44.033720,15.149215,2.112390,0.319382,0.672383,4.926862,2.726950,1.978723,0.268292,-0.083441,0.673866,-4.152724,1.853065,3.149602,-1.142410,-1.825217,1,0,,38.991434,-76.936636,-11.733000,,,
2026-09-11T17:39:40.680,9.825455,2.149741,16.437670,19.905007,0.000000,-51.006605,17.548144,2.049700,0.292509,0.615809,4.948386,2.752436,1.913215,0.197034,-0.034621,0.617293,-3.868037,-0.712943,9.001426,-1.410124,-1.911401,1,0,,38.991434,-76.936636,-11.733000,,,
2026-09-11T17:39:40.711,9.858874,2.140313,16.508056,19.817711,0.000000,-50.964033,17.533497,2.040876,0.311920,0.656673,4.969649,2.778914,1.849403,0.081408,-0.076404,0.658157,-2.892177,-2.823825,13.151699,-1.601245,-2.138610,1,0,,38.991434,-76.936636,-11.733000,,,
2026-09-11T17:39:40.745,9.892296,2.131065,16.578704,19.732082,0.000000,-46.410200,15.966812,2.048851,0.291425,0.613527,4.990875,2.806726,1.786167,-0.072588,-0.204775,0.615010,3.131558,-2.648482,1.972215,-1.387938,-2.346608,1,0,,38.991434,-76.936636,-11.733000,,,
2026-09-11T17:39:40.778,9.925713,2.092703,16.649204,19.376876,0.000000,-39.582883,13.617964,2.033871,0.286574,0.603313,5.011207,2.835399,1.723524,-0.116175,-0.182484,0.604797,0.041188,2.633870,14.602887,-1.363767,-2.207653,1,0,,38.991434,-76.936636,-11.733000,,,
2026-09-11T17:39:40.812,9.959136,2.092958,16.718837,19.379241,0.000000,-37.190610,12.794935,2.040988,0.236633,0.498175,5.029614,2.864378,1.661279,-0.209683,-0.059356,0.499658,3.844599,-0.363729,10.228532,-1.085242,-2.251065,1,0,,38.991434,-76.936636,-11.733000,,,
2026-09-11T17:39:40.845,9.992560,2.064385,16.788061,19.114676,0.000000,-32.855817,11.303607,2.024341,0.218906,0.460855,5.045641,2.893299,1.599333,-0.004971,-0.105570,0.462339,1.484237,1.799520,8.175608,-0.951760,-2.148204,1,0,,38.991434,-76.936636,-11.733000,,,
2026-09-11T17:39:40.879,10.025981,2.045415,16.857718,18.939024,0.000000,-32.314741,11.117457,2.007030,0.218973,0.460996,5.061046,2.922719,1.538291,-0.105470,0.016178,0.462480,0.984293,1.781868,8.862270,-0.845024,-2.047149,1,0,,38.991434,-76.936636,-11.733000,,,
2026-09-11T17:39:40.912,10.059403,2.046214,16.925597,18.946427,0.000000,-33.927671,11.672364,2.003899,0.234280,0.493221,5.076992,2.953215,1.478130,0.033742,0.038448,0.494704,-2.253862,3.742120,10.618249,-0.952924,-1.824192,1,0,,38.991434,-76.936636,-11.733000,,,
2026-09-11T17:39:40.946,10.092826,2.027286,16.993271,18.771164,0.000000,-35.692350,12.279478,1.980905,0.243266,0.512140,5.093793,2.984908,1.419028,0.174616,0.082802,0.513624,-1.509145,4.311690,6.931340,-1.014193,-1.568528,1,0,,38.991434,-76.936636,-11.733000,,,
2026-09-11T17:39:40.979,10.126320,2.008572,17.060843,18.597892,0.000000,-38.205472,13.144085,1.955950,0.253751,0.534213,5.111316,3.017678,1.361220,0.064924,-0.112687,0.535697,-2.724189,-3.474104,10.112814,-1.153492,-1.823032,1,0,,38.991434,-76.936636,-11.733000,,,
2026-09-11T17:39:41.013,10.159741,1.940448,17.126319,17.967114,0.000000,-39.993497,13.759231,1.884765,0.224556,0.472749,5.128143,3.050434,1.305452,0.027320,-0.089377,0.474233,-2.446073,1.125509,4.816928,-1.272693,-1.765959,1,0,,38.991434,-76.936636,-11.733000,,,
2026-09-11T17:39:41.046,10.193156,1.891554,17.188786,17.514390,0.000000,-39.780637,13.685999,1.837847,0.212136,0.446603,5.143503,3.082636,1.251744,0.008867,-0.008090,0.448086,-0.752562,1.012242,7.448641,-1.280313,-1.712321,1,0,,38.991434,-76.936636,-11.733000,,,
2026-09-11T17:39:41.079,10.226576,1.823845,17.249841,16.887458,0.000000,-40.434324,13.910891,1.770354,0.235317,0.495405,5.159244,3.115019,1.200347,0.024703,-0.063519,0.496888,0.176912,5.425039,5.128976,-1.228482,-1.376877,1,1,10.205373,38.991418,-76.936635,-11.596000,3.062620,0.415313,3.163867
2026-09-11T17:39:41.113,10.260002,1.775786,17.308731,16.442464,0.000000,-41.624967,14.320516,1.720608,0.244482,0.514700,5.176126,3.147868,1.151472,-0.082117,0.008641,0.516183,-1.191704,-0.089437,13.736273,-1.267708,-1.403169,1,0,,38.991418,-76.936635,-11.596000,,,
2026-09-11T17:39:41.149,10.293420,1.776089,17.368829,16.445266,0.000000,-43.213865,14.867155,1.716631,0.236821,0.498571,5.193057,3.181152,1.103983,0.037111,0.023403,0.500054,2.083717,4.088491,7.026171,-1.095068,-1.156497,1,0,,38.991418,-76.936635,-11.596000,,,
2026-09-11T17:39:41.181,10.326833,1.776348,17.427765,16.447668,0.000000,-45.760633,15.743337,1.709712,0.244911,0.515603,5.210000,3.215150,1.057237,0.090724,0.019485,0.517086,-0.468660,3.436152,10.750736,-1.089490,-0.956564,1,0,,38.991418,-76.936635,-11.596000,,,
2026-09-11T17:39:41.213,10.360250,1.766970,17.487305,16.360833,0.000000,-50.271894,17.295376,1.687076,0.254335,0.535443,5.227561,3.249968,1.011651,0.087509,0.014186,0.536926,2.714088,-5.419645,9.472538,-0.879837,-1.334000,1,0,,38.991418,-76.936635,-11.596000,,,
2026-09-11T17:39:41.247,10.393666,1.796770,17.546457,16.636755,0.000000,-53.293134,18.334794,1.705556,0.269095,0.566516,5.245973,3.285919,0.966967,0.221096,-0.057655,0.567999,3.006621,-4.386809,9.143132,-0.658317,-1.644514,1,0,,38.991418,-76.936635,-11.596000,,,
2026-09-11T17:39:41.280,10.427091,1.768118,17.605826,16.371466,0.000000,-53.687955,18.470627,1.677036,0.271515,0.571611,5.264994,3.322863,0.923238,0.206590,-0.029010,0.573095,-1.567985,-1.513460,11.466230,-0.741614,-1.764922,1,0,,38.991418,-76.936635,-11.596000,,,
2026-09-11T17:39:41.313,10.460515,1.778540,17.665309,16.467960,0.000000,-53.608991,18.443460,1.687187,0.285443,0.600933,5.284590,3.360715,0.880643,0.060973,-0.040522,0.602416,-0.099832,-3.894123,11.411312,-0.734438,-2.042007,1,0,,38.991418,-76.936635,-11.596000,,,
2026-09-11T17:39:41.348,10.493943,1.769363,17.725019,16.382992,0.000000,-53.337766,18.350149,1.679392,0.269026,0.566370,5.304100,3.399384,0.838730,0.050741,-0.046419,0.567853,0.183777,-1.602897,11.849670,-0.713340,-2.163394,1,0,,38.991418,-76.936635,-11.596000,,,
2026-09-11T17:39:41.380,10.527365,1.769896,17.783556,16.387922,0.000000,-52.403242,18.028638,1.682997,0.239655,0.504537,5.321996,3.438155,0.797179,0.077384,-0.010483,0.506021,-0.526225,0.152297,12.146713,-0.740639,-2.162941,1,0,,38.991418,-76.936635,-11.596000,,,
2026-09-11T17:39:41.413,10.560786,1.750648,17.841740,16.209704,0.000000,-51.735822,17.799021,1.666853,0.256409,0.539809,5.339447,3.477353,0.756374,-0.123773,-0.019728,0.541292,-0.572120,-0.745011,10.468109,-0.770296,-2.223990,1,0,,38.991418,-76.936635,-11.596000,,,
2026-09-11T17:39:41.447,10.594201,1.740931,17.900289,16.119733,0.000000,-51.932203,17.866584,1.656972,0.280718,0.590985,5.358340,3.517573,0.717053,-0.210170,-0.005413,0.592468,-0.179952,1.017440,9.976011,-0.775221,-2.175189,1,0,,38.991418,-76.936635,-11.596000,,,
2026-09-11T17:39:41.480,10.627617,1.731545,17.957972,16.032823,0.000000,-52.356550,18.012574,1.646680,0.223658,0.470859,5.376081,3.557875,0.678399,-0.093223,-0.043196,0.472342,0.550643,3.486951,9.239630,-0.734433,-1.953553,1,0,,38.991418,-76.936635,-11.596000,,,
2026-09-11T17:39:41.514,10.661036,1.722366,18.015381,15.947836,0.000000,-53.476469,18.397868,1.634332,0.275307,0.579593,5.393634,3.598541,0.640711,-0.083042,-0.038704,0.581077,0.497982,-0.636452,10.050443,-0.700323,-2.012940,1,0,,38.991418,-76.936635,-11.596000,,,
2026-09-11T17:39:41.548,10.694466,1.722721,18.073736,15.951118,0.000000,-55.841962,19.211684,1.626781,0.313077,0.659110,5.414339,3.640874,0.605004,-0.090627,0.006847,0.660593,0.574670,1.426377,10.584612,-0.666053,-1.945971,1,0,,38.991418,-76.936635,-11.596000,,,
2026-09-11T17:39:41.580,10.727889,1.713279,18.130552,15.863694,0.000000,-59.608900,20.507649,1.604701,0.300654,0.632955,5.435931,3.683943,0.570851,-0.010167,0.008664,0.634439,0.783061,-2.314271,7.775791,-0.621985,-2.118724,1,0,,38.991418,-76.936635,-11.596000,,,
2026-09-11T17:39:41.614,10.761314,1.713754,18.187791,15.868090,0.000000,-66.980726,23.043828,1.577006,0.327562,0.689604,5.458034,3.727365,0.538431,-0.100404,-0.011882,0.691087,0.915451,2.365168,12.765022,-0.574041,-1.990681,1,0,,38.991418,-76.936635,-11.596000,,,
2026-09-11T17:39:41.648,10.794731,1.733912,18.245644,16.054737,0.000000,-69.456083,23.895441,1.585291,0.370788,0.780606,5.482599,3.772153,0.508088,0.110201,0.011301,0.782089,1.910532,-4.867825,8.869723,-0.468298,-2.342963,1,0,,38.991418,-76.936635,-11.596000,,,
2026-09-11T17:39:41.681,10.828152,1.715161,18.303612,15.881121,0.000000,-71.064893,24.448931,1.561364,0.367767,0.774246,5.508582,3.817992,0.479531,-0.013523,-0.047920,0.775730,-0.877597,0.455911,9.479696,-0.552908,-2.344163,1,0,,38.991418,-76.936635,-11.596000,,,
2026-09-11T17:39:41.714,10.861573,1.725484,18.360520,15.976701,0.000000,-71.038801,24.439954,1.570872,0.352849,0.742840,5.533933,3.864174,0.452112,0.023435,0.004458,0.744323,0.629881,2.733996,9.862156,-0.547481,-2.194821,1,0,,38.991418,-76.936635,-11.596000,,,
2026-09-11T17:39:41.748,10.894987,1.735646,18.418350,16.070796,0.000000,-70.558149,24.274592,1.582190,0.359596,0.757044,5.558992,3.911185,0.425541,-0.014643,-0.003374,0.758527,0.280176,0.140039,6.524266,-0.570972,-2.217429,1,0,,38.991418,-76.936635,-11.596000,,,
2026-09-11T17:39:41.781,10.928405,1.755626,18.476773,16.255796,0.000000,-69.598905,23.944577,1.604534,0.344863,0.726027,5.583772,3.959193,0.399676,-0.112942,-0.039064,0.727511,2.690945,-0.410212,10.660221,-0.442785,-2.273355,1,0,,38.991418,-76.936635,-11.596000,,,
2026-09-11T17:39:41.816,10.961826,1.784796,18.536268,16.525889,0.000000,-69.289228,23.838037,1.632538,0.348161,0.732970,5.608152,4.008353,0.374319,-0.010390,-0.099553,0.734453,1.150222,3.803902,11.204000,-0.420017,-2.057341,1,0,,38.991418,-76.936635,-11.596000,,,
2026-09-11T17:39:41.848,10.995250,1.813861,18.596365,16.795012,0.000000,-69.527494,23.920009,1.658073,0.368883,0.776595,5.633381,4.059082,0.349954,0.005296,-0.036965,0.778079,1.055784,3.398200,12.958508,-0.407324,-1.875967,1,0,,38.991418,-76.936635,-11.596000,,,
2026-09-11T17:39:41.881,11.028669,1.852907,18.658753,17.156543,0.000000,-69.582426,23.938908,1.693517,0.376904,0.793482,5.659615,4.111519,0.326688,0.132285,-0.008370,0.794966,1.542880,1.313012,9.841660,-0.363095,-1.835507,1,0,,38.991418,-76.936635,-11.596000,,,
2026-09-11T17:39:41.916,11.062082,1.901736,18.723887,17.608665,0.000000,-69.322187,23.849376,1.739350,0.377575,0.794895,5.686152,4.165743,0.304159,0.107491,0.054605,0.796379,0.741383,-3.229134,6.011378,-0.370356,-2.092533,1,0,,38.991418,-76.936635,-11.596000,,,
2026-09-11T17:39:41.948,11.095496,1.970030,18.788850,18.241021,0.000000,-69.068128,23.761971,1.803026,0.387093,0.814932,5.713047,4.222170,0.282224,0.077021,-0.126700,0.816415,-0.280764,3.900497,2.554632,-0.445187,-1.890034,1,0,,38.991418,-76.936635,-11.596000,,,
2026-09-11T17:39:41.982,11.128913,2.018925,18.856159,18.693749,0.000000,-68.564130,23.588577,1.850229,0.387338,0.815449,5.740289,4.280835,0.260978,0.225550,-0.134318,0.816933,0.088358,8.788622,14.433134,-0.493883,-1.375522,1,0,,38.991418,-76.936635,-11.596000,,,
2026-09-11T17:39:42.016,11.162328,2.038804,18.924495,18.877812,0.000000,-66.815244,22.986896,1.876911,0.379786,0.799550,5.767271,4.341054,0.240599,0.162446,-0.049250,0.801034,1.074024,2.424204,11.104756,-0.475781,-1.278794,1,0,,38.991418,-76.936635,-11.596000,,,
2026-09-11T17:39:42.049,11.195749,2.058687,18.993320,19.061914,0.000000,-65.516798,22.540183,1.901426,0.373163,0.785607,5.793760,4.402441,0.221213,0.103748,-0.014968,0.787090,0.074629,1.746466,7.672527,-0.518020,-1.226602,1,1,11.198616,38.991406,-76.936623,-11.522000,4.094249,-0.866208,3.862406
2026-09-11T17:39:42.082,11.229164,2.068946,19.061996,19.156905,0.000000,-64.883710,22.322377,1.913902,0.374669,0.788776,5.820064,4.464816,0.203096,0.205429,0.018511,0.790260,-0.365102,-1.779907,10.039754,-0.580924,-1.404527,1,0,,38.991406,-76.936623,-11.522000,,,
2026-09-11T17:39:42.116,11.262586,2.059805,19.130639,19.072267,0.000000,-64.092695,22.050239,1.909140,0.370246,0.779465,5.846270,4.527751,0.186515,0.179307,-0.123541,0.780949,0.160143,-0.372457,12.226539,-0.599981,-1.487910,1,0,,38.991406,-76.936623,-11.522000,,,
2026-09-11T17:39:42.149,11.296004,2.040878,19.198461,18.897019,0.000000,-64.008237,22.021183,1.891986,0.377382,0.794489,5.872570,4.590776,0.171784,0.122149,-0.022011,0.795973,1.431281,1.328017,10.295316,-0.526632,-1.461123,1,0,,38.991406,-76.936623,-11.522000,,,
2026-09-11T17:39:42.184,11.329426,2.021177,19.266637,18.714606,0.000000,-62.615034,21.541869,1.879997,0.359482,0.756803,5.898494,4.653657,0.158724,0.160351,0.018939,0.758287,1.560925,-1.521992,7.662622,-0.435206,-1.614174,1,0,,38.991406,-76.936623,-11.522000,,,
2026-09-11T17:39:42.217,11.362842,2.011530,19.333969,18.625279,0.000000,-55.469800,19.083647,1.900981,0.357273,0.752155,5.923706,4.716857,0.146918,-0.159927,0.027837,0.753638,1.362830,-6.408940,5.706784,-0.347470,-2.082870,1,0,,38.991406,-76.936623,-11.522000,,,
2026-09-11T17:39:42.249,11.396258,1.982989,19.400402,18.361012,0.000000,-54.233839,18.658431,1.878769,0.313309,0.659597,5.947293,4.780049,0.135928,0.022347,0.024731,0.661081,-0.073648,4.146252,11.540270,-0.347400,-1.849616,1,0,,38.991406,-76.936623,-11.522000,,,
2026-09-11T17:39:42.282,11.429674,1.993171,19.466777,18.455289,0.000000,-52.129957,17.934618,1.896320,0.302077,0.635952,5.968939,4.843103,0.125530,-0.013898,0.046088,0.637436,-0.690879,-1.699100,8.468827,-0.381851,-1.995827,1,0,,38.991406,-76.936623,-11.522000,,,
2026-09-11T17:39:42.316,11.463099,1.954387,19.531638,18.096178,0.000000,-52.279645,17.986117,1.858879,0.298900,0.629263,5.990084,4.905989,0.116342,-0.020242,0.019341,0.630747,-0.814246,-0.163967,9.065267,-0.420573,-2.038541,1,0,,38.991406,-76.936623,-11.522000,,,
2026-09-11T17:39:42.349,11.496763,1.935500,19.596122,17.921294,0.000000,-53.487455,18.401647,1.836532,0.318194,0.669882,6.011951,4.968615,0.108997,-0.010063,0.042556,0.671366,-1.166893,-1.668896,11.993239,-0.481081,-2.183372,1,0,,38.991406,-76.936623,-11.522000,,,
2026-09-11T17:39:42.383,11.530183,1.877940,19.659034,17.388332,0.000000,-54.616987,18.790248,1.777853,0.311853,0.656532,6.034116,5.029682,0.103624,0.087414,-0.145847,0.658015,-1.310168,1.664679,6.781004,-0.551130,-2.105224,1,0,,38.991406,-76.936623,-11.522000,,,
2026-09-11T17:39:42.417,11.563604,1.868843,19.721661,17.304098,0.000000,-56.076108,19.292239,1.763899,0.314189,0.661450,6.056140,5.089660,0.099832,0.166351,0.081388,0.662934,-2.897865,-0.941340,12.710595,-0.725038,-2.196963,1,0,,38.991406,-76.936623,-11.522000,,,
2026-09-11T17:39:42.450,11.597023,1.830799,19.782226,16.951840,0.000000,-56.926862,19.584930,1.724879,0.310066,0.652771,6.078099,5.148830,0.097515,0.103713,0.002336,0.654254,-0.265466,6.463171,3.164998,-0.725406,-1.804808,1,0,,38.991406,-76.936623,-11.522000,,,
2026-09-11T17:39:42.483,11.630448,1.821430,19.843611,16.865096,0.000000,-56.540967,19.452168,1.717463,0.337516,0.710560,6.100884,5.207359,0.097062,0.044176,0.036293,0.712044,0.127192,-2.286028,9.000838,-0.700719,-1.990552,1,0,,38.991406,-76.936623,-11.522000,,,
2026-09-11T17:39:42.517,11.663867,1.802583,19.903516,16.690581,0.000000,-55.973112,19.256804,1.701728,0.326584,0.687546,6.124246,5.265545,0.098293,-0.137008,0.031179,0.689030,0.061292,-2.648874,6.504947,-0.681024,-2.194518,1,0,,38.991406,-76.936623,-11.522000,,,
2026-09-11T17:39:42.550,11.697283,1.782870,19.963671,16.508060,0.000000,-55.552198,19.111995,1.684599,0.292967,0.616772,6.146039,5.323034,0.100182,0.011453,-0.021811,0.618255,-0.837782,5.009531,9.365645,-0.720805,-1.891028,1,0,,38.991406,-76.936623,-11.522000,,,
2026-09-11T17:39:42.585,11.730708,1.783048,20.023985,16.509708,0.000000,-55.412122,19.063804,1.685258,0.309968,0.652564,6.167252,5.380168,0.103071,0.061167,-0.038890,0.654047,-0.673717,2.089405,8.656918,-0.751647,-1.784216,1,0,,38.991406,-76.936623,-11.522000,,,
2026-09-11T17:39:42.617,11.764125,1.773591,20.082203,16.422139,0.000000,-55.416242,19.065221,1.676305,0.273965,0.576769,6.187792,5.437052,0.106847,0.011542,0.012746,0.578253,2.178842,-1.471880,11.105933,-0.602009,-1.900903,1,0,,38.991406,-76.936623,-11.522000,,,
2026-09-11T17:39:42.650,11.797540,1.783896,20.141891,16.517554,0.000000,-55.338651,19.038527,1.686316,0.288269,0.606883,6.207568,5.493826,0.111410,-0.043329,-0.001037,0.608366,3.533238,-2.784304,11.262545,-0.371077,-2.105090,1,0,,38.991406,-76.936623,-11.522000,,,
2026-09-11T17:39:42.686,11.830968,1.774535,20.201510,16.430882,0.000000,-55.638715,19.141760,1.676421,0.289855,0.610221,6.227911,5.550538,0.117374,0.115044,0.012490,0.611705,-0.630666,0.371280,7.232993,-0.416540,-2.102355,1,0,,38.991406,-76.936623,-11.522000,,,
2026-09-11T17:39:42.719,11.864385,1.775010,20.260982,16.435278,0.000000,-55.941526,19.245938,1.675809,0.284098,0.598101,6.248101,5.606924,0.124424,0.136833,-0.031020,0.599584,-1.112270,4.848212,12.335491,-0.498181,-1.807986,1,0,,38.991406,-76.936623,-11.522000,,,
2026-09-11T17:39:42.750,11.897800,1.785346,20.320134,16.530984,0.000000,-57.269498,19.702809,1.680821,0.294926,0.620897,6.268467,5.663223,0.132699,0.081894,-0.048678,0.622380,0.251933,-1.073338,8.998484,-0.493422,-1.903541,1,0,,38.991406,-76.936623,-11.522000,,,
2026-09-11T17:39:42.784,11.931222,1.785981,20.379696,16.536865,0.000000,-58.159391,20.008965,1.678178,0.339071,0.713834,6.290771,5.719380,0.143092,0.090789,-0.049941,0.715318,1.355966,-3.172647,8.231114,-0.420046,-2.144255,1,0,,38.991406,-76.936623,-11.522000,,,
2026-09-11T17:39:42.818,11.964639,1.786486,20.439248,16.541536,0.000000,-58.433362,20.103221,1.677644,0.313734,0.660492,6.313734,5.775235,0.155066,0.030215,-0.039371,0.661976,-2.350654,2.306720,10.796239,-0.590168,-2.021076,1,0,,38.991406,-76.936623,-11.522000,,,
2026-09-11T17:39:42.851,11.998054,1.757657,20.498229,16.274599,0.000000,-58.291914,20.054557,1.651084,0.306914,0.646134,6.335565,5.830370,0.167726,0.053718,0.018887,0.647618,-0.977527,-0.921629,8.968966,-0.672899,-2.105963,1,0,,38.991406,-76.936623,-11.522000,,,
2026-09-11T17:39:42.884,12.031478,1.767880,20.557051,16.369262,0.000000,-56.932355,19.586820,1.665581,0.308948,0.650416,6.357233,5.885034,0.181502,-0.005325,0.048097,0.651900,0.113757,1.213769,10.569509,-0.683308,-2.052479,1,0,,38.991406,-76.936623,-11.522000,,,
2026-09-11T17:39:42.918,12.064895,1.748601,20.615702,16.190754,0.000000,-55.874235,19.222787,1.651109,0.304055,0.640115,6.378795,5.939381,0.196399,-0.044955,0.002832,0.641599,1.385385,0.302633,7.327627,-0.612463,-2.056978,1,0,,38.991406,-76.936623,-11.522000,,,
2026-09-11T17:39:42.951,12.098309,1.777809,20.675367,16.461194,0.000000,-55.371610,19.049866,1.680447,0.302083,0.635963,6.400115,5.993650,0.212377,-0.068742,-0.033679,0.637447,1.264764,0.965857,14.008015,-0.555315,-2.019184,1,0,,38.991406,-76.936623,-11.522000,,,
2026-09-11T17:39:42.985,12.131733,1.787684,20.735317,16.552631,0.000000,-55.199949,18.990808,1.690382,0.280992,0.591561,6.420630,6.048293,0.229189,-0.036987,-0.032961,0.593045,0.672932,0.895249,9.719665,-0.540790,-1.981921,1,0,,38.991406,-76.936623,-11.522000,,,
2026-09-11T17:39:43.019,12.165153,1.797771,20.796395,16.646026,0.000000,-55.038587,18.935294,1.700486,0.277398,0.583995,6.440273,6.102970,0.246734,0.019714,0.025682,0.585479,-0.834644,3.409184,12.208593,-0.628264,-1.781610,1,0,,38.991406,-76.936623,-11.522000,,,
2026-09-11T17:39:43.052,12.198565,1.797874,20.855684,16.646981,0.000000,-55.018674,18.928443,1.700653,0.279396,0.588201,6.459856,6.157452,0.265344,0.010301,0.070054,0.589685,-1.856007,0.943007,12.140339,-0.787880,-1.743929,1,1,12.205570,38.991402,-76.936603,-11.428000,5.836148,-1.315807,4.100778
2026-09-11T17:39:43.084,12.231991,1.827162,20.916704,16.918170,0.000000,-55.237028,19.003565,1.727579,0.301981,0.635749,6.480312,6.211937,0.285540,0.016544,0.053037,0.637232,-0.591929,5.636372,12.184861,-0.874954,-1.408706,1,0,,38.991402,-76.936603,-11.428000,,,
2026-09-11T17:39:43.119,12.265408,1.847204,20.978295,17.103736,0.000000,-55.810377,19.200818,1.744447,0.321283,0.676385,6.502235,6.266539,0.307715,-0.106083,-0.048389,0.677868,-1.651440,1.115899,10.768683,-1.039965,-1.375598,1,0,,38.991402,-76.936603,-11.428000,,,
2026-09-11T17:39:43.151,12.298829,1.818469,21.039099,16.837676,0.000000,-56.100141,19.300507,1.716267,0.302863,0.637607,6.524193,6.320469,0.331050,-0.028964,-0.076116,0.639090,1.231029,-5.332072,12.471705,-1.028555,-1.755299,1,0,,38.991402,-76.936603,-11.428000,,,
2026-09-11T17:39:43.185,12.332256,1.867583,21.101840,17.292434,0.000000,-56.181165,19.328383,1.762321,0.312278,0.657427,6.545837,6.374206,0.355500,-0.028998,0.012708,0.658911,0.970858,-1.648498,13.132281,-1.044596,-1.896233,1,0,,38.991402,-76.936603,-11.428000,,,
2026-09-11T17:39:43.219,12.365678,1.887646,21.165561,17.478201,0.000000,-55.208875,18.993879,1.784870,0.317669,0.668777,6.567999,6.428425,0.381661,-0.080614,-0.024578,0.670261,1.571908,-0.040894,10.119188,-1.027252,-1.933613,1,0,,38.991402,-76.936603,-11.428000,,,
2026-09-11T17:39:43.252,12.399101,1.926832,21.228690,17.841033,0.000000,-54.638273,18.797571,1.824060,0.296851,0.624950,6.589620,6.483127,0.409063,-0.056183,0.055735,0.626434,0.944577,-0.666754,8.261907,-1.053610,-2.007693,1,0,,38.991402,-76.936603,-11.428000,,,
2026-09-11T17:39:43.285,12.432529,1.956259,21.294723,18.113508,0.000000,-54.244825,18.662210,1.853402,0.293761,0.618444,6.610402,6.538453,0.437596,-0.050186,0.050359,0.619928,2.096466,-1.745191,6.274197,-1.005046,-2.151345,1,0,,38.991402,-76.936603,-11.428000,,,
2026-09-11T17:39:43.319,12.465965,2.033936,21.363742,18.832737,0.000000,-53.399564,18.371410,1.930273,0.298714,0.628872,6.631254,6.594846,0.467906,0.058736,-0.080046,0.630356,2.705557,1.460701,6.331566,-0.912837,-2.089787,1,0,,38.991402,-76.936603,-11.428000,,,
2026-09-11T17:39:43.353,12.499381,2.102190,21.433387,19.464724,0.000000,-53.067914,18.257310,1.996364,0.291973,0.614679,6.652032,6.652814,0.500174,0.029334,-0.016147,0.616163,1.994869,0.056192,8.939252,-0.859622,-2.120897,1,0,,38.991402,-76.936603,-11.428000,,,
2026-09-11T17:39:43.386,12.532796,2.189847,21.507145,20.276362,0.000000,-53.216917,18.308572,2.078994,0.318283,0.670069,6.673497,6.712266,0.534883,0.046397,0.039747,0.671552,3.021527,0.290571,10.395049,-0.735555,-2.147225,1,0,,38.991402,-76.936603,-11.428000,,,
2026-09-11T17:39:43.419,12.566207,2.296973,21.585005,21.268268,0.000000,-53.129026,18.278335,2.181077,0.333835,0.702810,6.696431,6.773490,0.572754,0.019172,-0.116076,0.704293,3.187161,0.308125,5.166045,-0.597118,-2.181187,1,0,,38.991402,-76.936603,-11.428000,,,
2026-09-11T17:39:43.455,12.599619,2.374842,21.664699,21.989276,0.000000,-52.834455,18.176991,2.256331,0.341054,0.718008,6.720168,6.836363,0.613610,0.002554,-0.105294,0.719491,1.539938,-1.444520,2.668193,-0.560612,-2.334117,1,0,,38.991402,-76.936603,-11.428000,,,
2026-09-11T17:39:43.486,12.633035,2.423796,21.745874,22.442553,0.000000,-51.579954,17.745397,2.308472,0.345443,0.727249,6.744315,6.900080,0.657058,0.116847,-0.058630,0.728732,-1.798638,2.038999,11.861536,-0.734802,-2.263202,1,0,,38.991402,-76.936603,-11.428000,,,
2026-09-11T17:39:43.519,12.666448,2.434045,21.827356,22.537454,0.000000,-50.815717,17.482472,2.321614,0.343552,0.723266,6.768548,6.963680,0.702558,0.094337,-0.048140,0.724750,1.125705,-2.475100,10.909800,-0.713544,-2.485940,1,0,,38.991402,-76.936603,-11.428000,,,
2026-09-11T17:39:43.552,12.699862,2.424770,21.907711,22.451574,0.000000,-49.673139,17.089383,2.317710,0.352680,0.742484,6.793036,7.026231,0.749771,0.118539,0.056876,0.743968,-2.242781,2.573657,10.467913,-0.902859,-2.381371,1,0,,38.991402,-76.936603,-11.428000,,,
2026-09-11T17:39:43.586,12.733276,2.376501,21.987074,22.004641,0.000000,-48.823072,16.796928,2.275108,0.334175,0.703526,6.817195,7.087029,0.797965,0.045516,0.092528,0.705009,-1.969862,3.128125,5.851040,-1.059345,-2.234209,1,0,,38.991402,-76.936603,-11.428000,,,
2026-09-11T17:39:43.621,12.766762,2.337506,22.065390,21.643573,0.000000,-49.208280,16.929454,2.236208,0.338984,0.713650,6.840922,7.145732,0.846800,-0.039173,-0.002917,0.715134,-1.173562,4.751028,10.405640,-1.150300,-1.982621,1,0,,38.991402,-76.936603,-11.428000,,,
2026-09-11T17:39:43.653,12.800175,2.289160,22.141552,21.195924,0.000000,-50.184690,17.265375,2.186011,0.324552,0.683267,6.864260,7.201983,0.895958,0.087384,0.025171,0.684751,-3.001227,-1.323407,8.546790,-1.344589,-2.121662,1,0,,38.991402,-76.936603,-11.428000,,,
2026-09-11T17:39:43.686,12.833590,2.279830,22.218215,21.109534,0.000000,-50.464155,17.361521,2.175963,0.328202,0.690952,6.887220,7.256342,0.945700,0.086625,0.032144,0.692436,-1.728814,-3.939037,7.954664,-1.441724,-2.429521,1,0,,38.991402,-76.936603,-11.428000,,,
2026-09-11T17:39:43.722,12.867008,2.260529,22.295004,20.930825,0.000000,-50.072080,17.226633,2.159124,0.342956,0.722012,6.910829,7.308988,0.996688,0.099193,0.000554,0.723495,-1.304186,1.568476,4.085254,-1.502203,-2.380284,1,0,,38.991402,-76.936603,-11.428000,,,
2026-09-11T17:39:43.753,12.900422,2.231820,22.368614,20.665002,0.000000,-45.527860,15.663255,2.148942,0.310229,0.653113,6.933803,7.360250,1.048379,0.032796,-0.055255,0.654597,0.516810,2.262786,6.979883,-1.439545,-2.276478,1,0,,38.991402,-76.936603,-11.428000,,,
2026-09-11T17:39:43.787,12.933835,2.222762,22.442167,20.581132,0.000000,-39.343244,13.535520,2.161025,0.272753,0.574216,6.954308,7.411117,1.100267,0.000136,-0.067676,0.575700,-2.373798,1.952112,7.680176,-1.565298,-2.183443,1,0,,38.991402,-76.936603,-11.428000,,,
2026-09-11T17:39:43.820,12.967253,2.194208,22.515184,20.316740,0.000000,-37.979566,13.066364,2.137397,0.232102,0.488636,6.972067,7.461665,1.151987,0.052261,-0.115836,0.490120,0.574474,3.951197,10.672970,-1.504389,-1.949045,1,0,,38.991402,-76.936603,-11.428000,,,
2026-09-11T17:39:43.853,13.000667,2.146190,22.586368,19.872129,0.000000,-33.988782,11.693388,2.101648,0.216692,0.456193,6.987852,7.511170,1.203183,0.106543,-0.058976,0.457676,-1.410589,-0.288512,7.829335,-1.579060,-1.986657,1,0,,38.991402,-76.936603,-11.428000,,,
2026-09-11T17:39:43.886,13.034079,2.127198,22.657118,19.696276,0.000000,-29.854490,10.271040,2.093110,0.207794,0.437461,7.002781,7.559583,1.254341,-0.067943,-0.003807,0.438945,-0.186228,-3.339262,9.779584,-1.581962,-2.218897,1,0,,38.991402,-76.936603,-11.428000,,,
2026-09-11T17:39:43.920,13.067496,2.108026,22.727242,19.518757,0.000000,-30.075590,10.347107,2.073744,0.193181,0.406697,7.016886,7.607170,1.305602,0.060742,0.012972,0.408180,-0.153082,2.697908,9.292095,-1.586650,-2.052340,1,0,,38.991402,-76.936603,-11.428000,,,
2026-09-11T17:39:43.953,13.100908,2.108105,22.797343,19.519491,0.000000,-30.073530,10.346398,2.073827,0.185500,0.390526,7.030204,7.654053,1.357010,0.066961,0.054889,0.392010,-0.279490,-0.580848,10.843605,-1.598941,-2.098113,1,0,,38.991402,-76.936603,-11.428000,,,
2026-09-11T17:39:43.987,13.134330,2.108721,22.867854,19.525190,0.000000,-29.632703,10.194737,2.075428,0.171570,0.361200,7.042766,7.700549,1.408794,0.072987,0.011546,0.362683,-0.153964,-2.007127,9.958849,-1.603721,-2.232018,1,0,,38.991402,-76.936603,-11.428000,,,
2026-09-11T17:39:44.021,13.167747,2.099488,22.939185,19.439705,0.000000,-29.346372,10.096229,2.066977,0.154135,0.324496,7.054224,7.746695,1.460667,0.097039,0.021757,0.325979,-0.036187,3.515782,5.575767,-1.600193,-2.001074,1,0,,38.991402,-76.936603,-11.428000,,,
2026-09-11T17:39:44.055,13.201171,2.128792,23.009924,19.711042,0.000000,-29.344999,10.095756,2.095831,0.167786,0.353235,7.065550,7.792539,1.513267,0.069775,0.022698,0.354718,1.590246,4.096140,12.053060,-1.492228,-1.739585,1,1,13.208281,38.991409,-76.936581,-11.532000,7.708117,-0.570245,3.369082
2026-09-11T17:39:44.087,13.234586,2.138933,23.080390,19.804935,0.000000,-29.662229,10.204895,2.105096,0.178427,0.375635,7.077727,7.837911,1.567124,0.078891,0.086492,0.377119,0.911822,4.982759,11.040817,-1.434995,-1.426952,1,0,,38.991409,-76.936581,-11.532000,,,
2026-09-11T17:39:44.121,13.268005,2.149190,23.152735,19.899907,0.000000,-29.838010,10.265371,2.114788,0.195690,0.411980,7.090888,7.882488,1.622110,0.056973,0.106415,0.413463,-0.207705,1.849044,11.561550,-1.456795,-1.326121,1,0,,38.991409,-76.936581,-11.532000,,,
2026-09-11T17:39:44.154,13.301418,2.178797,23.225001,20.174051,0.000000,-29.771406,10.242456,2.144076,0.199920,0.420885,7.104802,7.926494,1.678407,0.021406,0.010152,0.422368,0.284785,2.416261,10.944418,-1.450860,-1.191704,1,0,,38.991409,-76.936581,-11.532000,,,
2026-09-11T17:39:44.188,13.334830,2.149930,23.297996,19.906763,0.000000,-29.662229,10.204895,2.115919,0.203428,0.428269,7.118988,7.969625,1.735411,0.034933,0.029193,0.429753,-0.435219,0.669500,8.614652,-1.494631,-1.172197,1,0,,38.991409,-76.936581,-11.532000,,,
2026-09-11T17:39:44.223,13.368251,2.140679,23.369486,19.821098,0.000000,-28.635694,9.851730,2.109112,0.167902,0.353478,7.132052,8.011999,1.792228,-0.055699,-0.019852,0.354962,0.484547,1.663012,7.075400,-1.480667,-1.078112,1,0,,38.991409,-76.936581,-11.532000,,,
2026-09-11T17:39:44.255,13.401666,2.130867,23.440499,19.730251,0.000000,-28.196241,9.700542,2.100400,0.167555,0.352748,7.143851,8.053936,1.848964,0.044894,-0.005791,0.354232,-0.891228,1.943188,9.563838,-1.557273,-0.966648,1,0,,38.991409,-76.936581,-11.532000,,,
2026-09-11T17:39:44.288,13.435078,2.130788,23.510634,19.729517,0.000000,-27.793867,9.562110,2.101183,0.151796,0.319572,7.155083,8.095331,1.905900,0.049219,-0.058985,0.321055,-0.626939,-3.995229,11.005513,-1.612870,-1.236606,1,0,,38.991409,-76.936581,-11.532000,,,
2026-09-11T17:39:44.321,13.468496,2.131043,23.582022,19.731882,0.000000,-28.080198,9.660619,2.100823,0.172080,0.362274,7.166476,8.136032,1.963362,0.048881,-0.060169,0.363758,1.702434,5.532520,8.053221,-1.513060,-0.892130,1,0,,38.991409,-76.936581,-11.532000,,,
2026-09-11T17:39:44.354,13.501911,2.160271,23.654299,20.002510,0.000000,-28.436567,9.783223,2.128856,0.181679,0.382482,7.178919,8.175943,2.021976,-0.006714,-0.012550,0.383965,0.731576,1.747349,9.088509,-1.474464,-0.800177,1,0,,38.991409,-76.936581,-11.532000,,,
2026-09-11T17:39:44.388,13.535324,2.180156,23.727021,20.186629,0.000000,-28.161222,9.688494,2.149061,0.175282,0.369014,7.191473,8.215575,2.081747,-0.002443,-0.060998,0.370497,0.139745,-4.995311,6.493866,-1.470901,-1.144609,1,0,,38.991409,-76.936581,-11.532000,,,
2026-09-11T17:39:44.421,13.568743,2.200078,23.800506,20.371094,0.000000,-28.185255,9.696762,2.168646,0.184924,0.389314,7.204145,8.254819,2.142582,0.027200,-0.040335,0.390797,0.139941,1.723911,11.998142,-1.465094,-1.053293,1,0,,38.991409,-76.936581,-11.532000,,,
2026-09-11T17:39:44.455,13.602162,2.210221,23.874241,20.465005,0.000000,-28.779890,9.901338,2.177300,0.180507,0.380015,7.217000,8.293499,2.204345,-0.052623,-0.057347,0.381498,0.848668,-0.218884,8.091271,-1.413069,-1.087773,1,0,,38.991409,-76.936581,-11.532000,,,
2026-09-11T17:39:44.488,13.635585,2.240036,23.949537,20.741072,0.000000,-29.395811,10.113238,2.205232,0.218033,0.459016,7.231021,8.331257,2.267446,-0.085776,0.024540,0.460500,-0.702058,-1.837374,9.983954,-1.460935,-1.238740,1,0,,38.991409,-76.936581,-11.532000,,,
2026-09-11T17:39:44.521,13.669002,2.230634,24.024081,20.654020,0.000000,-30.942136,10.645230,2.192245,0.206638,0.435028,7.245960,8.367887,2.331533,-0.191269,0.026269,0.436511,-1.216025,-2.353988,7.687041,-1.540907,-1.417717,1,0,,38.991409,-76.936581,-11.532000,,,
2026-09-11T17:39:44.555,13.702414,2.221264,24.098591,20.567260,0.000000,-32.822858,11.292268,2.178263,0.246936,0.519865,7.261912,8.402859,2.396063,-0.190358,0.076008,0.521349,1.217398,-3.328867,6.604583,-1.461549,-1.669483,1,0,,38.991409,-76.936581,-11.532000,,,
2026-09-11T17:39:44.588,13.735840,2.221108,24.172782,20.565813,0.000000,-36.850721,12.678000,2.166955,0.257474,0.542050,7.279660,8.435814,2.461318,-0.193894,0.018614,0.543534,2.163445,-0.366082,9.885398,-1.317132,-1.729221,1,0,,38.991409,-76.936581,-11.532000,,,
2026-09-11T17:39:44.622,13.769258,2.231090,24.247760,20.658237,0.000000,-43.543455,14.980546,2.155263,0.285555,0.601168,7.298761,8.466801,2.527171,-0.114433,0.004443,0.602651,0.674305,3.134696,6.834745,-1.265430,-1.569186,1,0,,38.991409,-76.936581,-11.532000,,,
2026-09-11T17:39:44.656,13.802671,2.251006,24.323238,20.842648,0.000000,-50.367338,17.328213,2.148842,0.338596,0.712833,7.320714,8.495106,2.594074,-0.017176,-0.071277,0.714317,-1.631238,-0.828858,10.052111,-1.362297,-1.683152,1,0,,38.991409,-76.936581,-11.532000,,,
2026-09-11T17:39:44.689,13.836095,2.251366,24.399104,20.845984,0.000000,-56.896650,19.574535,2.121252,0.376779,0.793218,7.345883,8.520234,2.661911,-0.012138,-0.030372,0.794702,-1.116879,0.536130,10.760641,-1.426053,-1.717174,1,0,,38.991409,-76.936581,-11.532000,,,
2026-09-11T17:39:44.722,13.869512,2.251802,24.474115,20.850018,0.000000,-59.994794,20.640411,2.107261,0.395241,0.832085,7.373039,8.542411,2.730210,0.044833,-0.078249,0.833569,0.464835,-1.035778,10.068292,-1.384628,-1.857321,1,0,,38.991409,-76.936581,-11.532000,,,
2026-09-11T17:39:44.755,13.902922,2.262138,24.549799,20.945725,0.000000,-65.417921,22.506165,2.089850,0.424097,0.892836,7.401855,8.561722,2.798972,0.194613,-0.025247,0.894320,0.419038,3.365740,6.841021,-1.345112,-1.717862,1,0,,38.991409,-76.936581,-11.532000,,,
2026-09-11T17:39:44.788,13.936343,2.282100,24.625516,21.130560,0.000000,-68.840848,23.683778,2.089894,0.462505,0.973694,7.433046,8.577820,2.868515,0.147692,0.028265,0.975178,-0.723535,-1.277022,11.046799,-1.380392,-1.891918,1,0,,38.991409,-76.936581,-11.532000,,,
2026-09-11T17:39:44.821,13.969762,2.263037,24.701337,20.954048,0.000000,-68.467313,23.555268,2.074470,0.453044,0.953777,7.465252,8.591168,2.938491,0.184298,0.026147,0.955260,-1.396173,3.243648,1.062256,-1.459115,-1.767260,1,0,,38.991409,-76.936581,-11.532000,,,
2026-09-11T17:39:44.856,14.003172,2.224716,24.775847,20.599224,0.000000,-67.383100,23.182259,2.045087,0.436820,0.919621,7.496548,8.602416,3.007985,0.002581,0.161821,0.921105,-1.707338,-0.694409,6.368439,-1.559700,-1.892953,1,0,,38.991409,-76.936581,-11.532000,,,
2026-09-11T17:39:44.889,14.036589,2.205251,24.849810,20.418993,0.000000,-64.661924,22.246075,2.041107,0.404196,0.850939,7.526131,8.612122,3.077011,0.091560,-0.010317,0.852422,0.210745,-3.458511,1.305363,-1.536317,-2.187243,1,0,,38.991409,-76.936581,-11.532000,,,
2026-09-11T17:39:44.922,14.070011,2.205097,24.923830,20.417567,0.000000,-59.269697,20.390951,2.066919,0.388499,0.817892,7.554018,8.620714,3.146393,0.089227,0.016625,0.819375,-0.557312,-0.895347,10.885382,-1.562807,-2.309085,1,0,,38.991409,-76.936581,-11.532000,,,
2026-09-11T17:39:44.955,14.103423,2.195786,24.997041,20.331349,0.000000,-52.358610,18.013283,2.088159,0.355308,0.748017,7.580178,8.628435,3.216490,-0.041447,-0.025720,0.749500,3.444782,1.251525,12.820038,-1.332204,-2.281955,1,0,,38.991409,-76.936581,-11.532000,,,
2026-09-11T17:39:44.989,14.136845,2.176695,25.069728,20.154581,0.000000,-52.214414,17.963675,2.070586,0.304202,0.640426,7.603381,8.635810,3.286473,0.018850,0.064903,0.641909,0.381577,3.417716,11.887523,-1.307177,-2.099278,1,0,,38.991409,-76.936581,-11.532000,,,
2026-09-11T17:39:45.023,14.170262,2.176946,25.142507,20.156907,0.000000,-50.008909,17.204900,2.079534,0.293860,0.618652,7.624418,8.642591,3.356201,-0.059166,-0.023307,0.620135,0.616152,-0.865045,21.621702,-1.269380,-2.193892,1,0,,38.991409,-76.936581,-11.532000,,,
2026-09-11T17:39:45.057,14.203684,2.148020,25.213496,19.889070,0.000000,-50.405790,17.341441,2.050382,0.303242,0.638404,7.645425,8.647853,3.425728,0.007028,-0.232586,0.639888,-0.607718,-1.736954,6.322740,-1.309682,-2.345514,1,1,14.209461,38.991423,-76.936567,-11.522000,8.975254,1.053387,2.783150
2026-09-11T17:39:45.090,14.237109,2.168027,25.286377,20.074321,0.000000,-52.991697,18.231088,2.059197,0.316569,0.666461,7.667232,8.651181,3.495099,0.124503,0.038297,0.667944,0.768939,2.486574,1.517775,-1.262105,-2.225526,1,0,,38.991423,-76.936567,-11.522000,,,
2026-09-11T17:39:45.124,14.270530,2.178365,25.361047,20.170047,0.000000,-53.217603,18.308808,2.068090,0.350098,0.737048,7.690686,8.652218,3.564944,0.050015,-0.068291,0.738532,-1.879739,-0.581829,7.186313,-1.389958,-2.315820,1,0,,38.991423,-76.936567,-11.522000,,,
2026-09-11T17:39:45.156,14.303940,2.169108,25.432196,20.084330,0.000000,-53.054182,18.252585,2.059969,0.347365,0.731295,7.715214,8.651077,3.634867,0.023788,-0.060475,0.732778,-3.180689,4.933530,7.387252,-1.600711,-2.046234,1,0,,38.991423,-76.936567,-11.522000,,,
2026-09-11T17:39:45.190,14.337363,2.140001,25.503550,19.814826,0.000000,-52.929212,18.209591,2.032829,0.326885,0.688178,7.738936,8.648562,3.704137,-0.051690,-0.050816,0.689662,1.240639,1.235246,6.587029,-1.518602,-2.012497,1,0,,38.991423,-76.936567,-11.522000,,,
2026-09-11T17:39:45.223,14.370779,2.159367,25.575428,19.994143,0.000000,-53.012296,18.238175,2.050889,0.323345,0.680726,7.761807,8.644810,3.773123,-0.101761,-0.047680,0.682210,1.719694,4.882241,9.579920,-1.402873,-1.742489,1,0,,38.991423,-76.936567,-11.522000,,,
2026-09-11T17:39:45.260,14.404192,2.188835,25.649745,20.266988,0.000000,-53.471662,18.396214,2.076978,0.348344,0.733356,7.785432,8.639156,3.842754,-0.126129,-0.084513,0.734839,-0.097282,1.405097,4.715135,-1.404861,-1.709179,1,0,,38.991423,-76.936567,-11.522000,,,
2026-09-11T17:39:45.291,14.437612,2.179554,25.722728,20.181051,0.000000,-53.885023,18.538425,2.066458,0.347773,0.732153,7.809920,8.631441,3.912530,0.005516,-0.082802,0.733637,-1.807268,4.248633,9.617382,-1.517488,-1.491238,1,0,,38.991423,-76.936567,-11.522000,,,
2026-09-11T17:39:45.323,14.471033,2.150742,25.794686,19.914276,0.000000,-54.105436,18.614255,2.038234,0.356503,0.750532,7.834697,8.621857,3.981453,-0.077312,0.042291,0.752016,-2.426263,0.315676,10.422704,-1.670881,-1.531758,1,0,,38.991423,-76.936567,-11.522000,,,
2026-09-11T17:39:45.357,14.504446,2.160838,25.866394,20.007763,0.000000,-54.240705,18.660793,2.047242,0.342831,0.721749,7.859294,8.610649,4.049784,-0.072301,-0.112909,0.723233,1.534250,-3.206480,4.243338,-1.565340,-1.796745,1,0,,38.991423,-76.936567,-11.522000,,,
2026-09-11T17:39:45.390,14.537865,2.180433,25.939981,20.189190,0.000000,-55.782911,19.191368,2.059257,0.370811,0.780655,7.884398,8.597499,4.118167,-0.018918,-0.115822,0.782138,-2.617101,-2.228659,8.871096,-1.729707,-2.003936,1,0,,38.991423,-76.936567,-11.522000,,,
2026-09-11T17:39:45.424,14.571283,2.200492,26.013625,20.374923,0.000000,-57.113630,19.649185,2.072355,0.382881,0.806065,7.910911,8.581903,4.186577,0.079271,-0.123648,0.807549,-3.572955,2.024093,12.645087,-1.955998,-1.937126,1,0,,38.991423,-76.936567,-11.522000,,,
2026-09-11T17:39:45.457,14.604696,2.161892,26.085481,20.017518,0.000000,-57.013380,19.614695,2.036440,0.395934,0.833546,7.938303,8.564090,4.254123,0.035932,0.037532,0.835030,-1.393917,-3.956395,4.847918,-2.037092,-2.260648,1,0,,38.991423,-76.936567,-11.522000,,,
2026-09-11T17:39:45.490,14.638118,2.142938,26.157097,19.842016,0.000000,-56.457883,19.423584,2.020974,0.371305,0.781694,7.965295,8.544713,4.320349,0.044992,-0.008823,0.783178,-0.405799,-0.682151,5.430531,-2.050984,-2.360668,1,0,,38.991423,-76.936567,-11.522000,,,
2026-09-11T17:39:45.524,14.671531,2.133201,26.228371,19.751865,0.000000,-56.753828,19.525399,2.010528,0.383766,0.807929,7.991852,8.523831,4.385605,0.118429,-0.086541,0.809413,-3.273852,2.246507,13.576817,-2.250354,-2.272468,1,0,,38.991423,-76.936567,-11.522000,,,
2026-09-11T17:39:45.557,14.704943,2.123746,26.299395,19.664313,0.000000,-56.882230,19.569575,2.001069,0.357306,0.752223,8.017916,8.501520,4.449999,0.055705,-0.100732,0.753706,-2.880998,2.636812,8.417048,-2.425815,-2.152221,1,0,,38.991423,-76.936567,-11.522000,,,
2026-09-11T17:39:45.591,14.738363,2.143518,26.370966,19.847390,0.000000,-56.690656,19.503666,2.020523,0.364555,0.767484,8.043310,8.477835,4.514028,-0.095381,-0.089558,0.768968,1.547686,0.427178,9.527847,-2.316976,-2.179572,1,0,,38.991423,-76.936567,-11.522000,,,
2026-09-11T17:39:45.624,14.771782,2.124334,26.441750,19.669760,0.000000,-56.472990,19.428781,2.003365,0.373028,0.785321,8.069257,8.452258,4.577412,-0.072349,-0.065189,0.786805,-1.435596,-0.525244,9.615813,-2.404388,-2.269871,1,0,,38.991423,-76.936567,-11.522000,,,
2026-09-11T17:39:45.658,14.805192,2.143997,26.513036,19.851825,0.000000,-56.039030,19.279483,2.023760,0.360622,0.759204,8.095058,8.425100,4.640166,-0.112275,-0.025958,0.760688,2.390959,-0.724908,18.220658,-2.244918,-2.369720,1,0,,38.991423,-76.936567,-11.522000,,,
2026-09-11T17:39:45.691,14.838610,2.115164,26.583456,19.584850,0.000000,-55.759565,19.183337,1.997713,0.346624,0.729736,8.119937,8.396814,4.702249,-0.131002,-0.037324,0.731219,-0.028145,3.705345,5.860552,-2.249591,-2.175964,1,0,,38.991423,-76.936567,-11.522000,,,
2026-09-11T17:39:45.724,14.872032,2.105881,26.653717,19.498895,0.000000,-55.901700,19.232236,1.988354,0.347188,0.730922,8.144346,8.367379,4.763112,-0.028463,-0.108335,0.732405,-0.871909,3.387315,8.633383,-2.317150,-2.004716,1,0,,38.991423,-76.936567,-11.522000,,,
2026-09-11T17:39:45.760,14.905445,2.125924,26.725675,19.684481,0.000000,-56.468870,19.427363,2.004882,0.364316,0.766981,8.169371,8.336135,4.823233,-0.105114,-0.059117,0.768464,0.604874,0.342939,8.211500,-2.295344,-2.038308,1,0,,38.991423,-76.936567,-11.522000,,,
2026-09-11T17:39:45.792,14.938868,2.126556,26.797017,19.690329,0.000000,-56.486722,19.433505,2.005402,0.362187,0.762499,8.194930,8.303044,4.882756,-0.178029,-0.072317,0.763982,0.342350,-3.106649,7.844045,-2.296441,-2.294780,1,0,,38.991423,-76.936567,-11.522000,,,
2026-09-11T17:39:45.825,14.972282,2.146363,26.868383,19.873733,0.000000,-56.558820,19.458310,2.023772,0.380636,0.801339,8.221058,8.268068,4.941585,-0.199376,-0.006826,0.802823,-2.350458,1.736071,8.468337,-2.475050,-2.240253,1,0,,38.991423,-76.936567,-11.522000,,,
2026-09-11T17:39:45.858,15.005696,2.175549,26.941161,20.143971,0.000000,-56.691343,19.503902,2.050713,0.363633,0.765542,8.247236,8.231257,5.000180,-0.039362,0.036842,0.767026,0.564275,-0.470033,5.136625,-2.466314,-2.326073,1,0,,38.991423,-76.936567,-11.522000,,,
2026-09-11T17:39:45.891,15.039116,2.204812,27.014714,20.414925,0.000000,-57.232419,19.690053,2.075894,0.380877,0.801846,8.273426,8.192575,5.058591,-0.092934,-0.011683,0.803330,-0.225063,3.353874,7.653306,-2.506498,-2.169015,1,0,,38.991423,-76.936567,-11.522000,,,
2026-09-11T17:39:45.925,15.072533,2.234320,27.089475,20.688152,0.000000,-57.761823,19.872187,2.101274,0.401106,0.844434,8.300933,8.151418,5.116442,-0.106673,0.022438,0.845918,0.277724,-3.035452,8.487852,-2.508888,-2.435336,1,0,,38.991423,-76.936567,-11.522000,,,
2026-09-11T17:39:45.958,15.105945,2.283393,27.165535,21.142528,0.000000,-58.416196,20.097315,2.144358,0.398130,0.838168,8.329043,8.107903,5.174016,0.026605,-0.062398,0.839651,0.743148,-2.917969,13.105607,-2.480251,-2.692621,1,0,,38.991423,-76.936567,-11.522000,,,
2026-09-11T17:39:45.992,15.139370,2.322361,27.243383,21.503343,0.000000,-58.813077,20.233857,2.179045,0.393220,0.827832,8.356886,8.062284,5.231583,0.067976,-0.056541,0.829316,3.390649,2.300934,12.647539,-2.280005,-2.608792,1,0,,38.991423,-76.936567,-11.522000,,,
