timestamp,time_s,speed_mps,distance_m,wheel_omega_rad_s,motor_current_A,steer_motor_deg,steer_column_deg,vx_mps,vy_mps,yaw_rate_rad_s,heading_rad,x_m,y_m,gyro_x_rad_s,gyro_y_rad_s,gyro_z_rad_s,accel_x_mps2,accel_y_mps2,accel_z_mps2,grade_deg,bank_deg,moving,gps_new_fix,gps_time_s,gps_latitude_deg,gps_longitude_deg,gps_altitude_m,gps_east_m,gps_north_m,gps_sigma_m
2026-09-11T18:25:16.569,0.000010,-0.000000,-0.000000,-0.000000,0.000000,-8.399724,2.889813,-0.000000,-0.001064,-0.002240,0.000000,0.000000,0.000000,0.000601,0.002021,-0.000757,0.199075,-0.260268,9.703386,0.010441,-4.848153,0,1,-0.132232,38.991381,-76.936746,-10.067000,0.000000,0.000000,9.120894
2026-09-11T18:25:16.603,0.033422,-0.000000,-0.000000,-0.000000,0.000000,-8.399724,2.889813,-0.000000,-0.000689,-0.001451,-0.000062,-0.000000,-0.000029,-0.001607,-0.001127,0.000033,0.197898,-0.257523,9.702209,0.010364,-4.847976,0,0,,38.991381,-76.936746,-10.067000,,,
2026-09-11T18:25:16.636,0.066835,-0.000000,-0.000000,-0.000000,0.000000,-8.399724,2.889813,-0.000000,-0.000566,-0.001192,-0.000106,-0.000000,-0.000050,-0.002803,-0.000197,0.000292,0.202213,-0.260759,9.699660,0.010568,-4.848009,0,0,,38.991381,-76.936746,-10.067000,,,
2026-09-11T18:25:16.669,0.100241,-0.000000,-0.000000,-0.000000,0.000000,-8.399724,2.889813,-0.000000,-0.001125,-0.002369,-0.000165,-0.000000,-0.000079,0.000279,0.001223,-0.000885,0.198977,-0.264191,9.689657,0.010561,-4.848265,0,0,,38.991381,-76.936746,-10.067000,,,
2026-09-11T18:25:16.703,0.133646,-0.000000,-0.000000,-0.000000,0.000000,-8.399724,2.889813,-0.000000,0.000225,0.000475,-0.000197,-0.000000,-0.000094,-0.001325,0.000259,0.001958,0.199467,-0.262524,9.696914,0.010585,-4.848409,0,0,,38.991381,-76.936746,-10.067000,,,
2026-09-11T18:25:16.736,0.167047,-0.000000,-0.000000,-0.000000,0.000000,-8.399724,2.889813,-0.000000,-0.000736,-0.001549,-0.000215,-0.000000,-0.000102,-0.000533,0.000633,-0.000065,0.196329,-0.258503,9.699954,0.010405,-4.848292,0,0,,38.991381,-76.936746,-10.067000,,,
2026-09-11T18:25:16.769,0.200452,-0.000000,-0.000000,-0.000000,0.000000,-8.399724,2.889813,-0.000000,-0.000968,-0.002039,-0.000275,-0.000000,-0.000131,0.001679,0.000669,-0.000555,0.200056,-0.260268,9.702405,0.010469,-4.848291,0,0,,38.991381,-76.936746,-10.067000,,,
2026-09-11T18:25:16.803,0.233861,-0.000000,-0.000000,-0.000000,0.000000,-8.399724,2.889813,-0.000000,-0.000551,-0.001160,-0.000328,-0.000000,-0.000156,-0.001820,0.000347,0.000324,0.201821,-0.260268,9.703876,0.010647,-4.848289,0,0,,38.991381,-76.936746,-10.067000,,,
2026-09-11T18:25:16.836,0.267264,-0.000000,-0.000000,-0.000000,0.000000,-8.399724,2.889813,-0.000000,-0.001076,-0.002266,-0.000385,-0.000000,-0.000183,-0.000798,0.001250,-0.000783,0.199271,-0.263210,9.696914,0.010657,-4.848478,0,0,,38.991381,-76.936746,-10.067000,,,
2026-09-11T18:25:16.869,0.300672,-0.000000,-0.000000,-0.000000,0.000000,-8.399724,2.889813,-0.000000,-0.000860,-0.001811,-0.000454,-0.000000,-0.000215,0.002651,0.000749,-0.000328,0.199761,-0.262524,9.696914,0.010699,-4.848620,0,0,,38.991381,-76.936746,-10.067000,,,
2026-09-11T18:25:16.903,0.334076,-0.000000,-0.000000,-0.000000,0.000000,-8.399724,2.889813,-0.000000,-0.001073,-0.002259,-0.000522,-0.000000,-0.000248,-0.001551,0.000025,-0.000775,0.200252,-0.260465,9.692207,0.010772,-4.848628,0,0,,38.991381,-76.936746,-10.067000,,,
2026-09-11T18:25:16.936,0.367477,-0.000000,-0.000000,-0.000000,0.000000,-8.399724,2.889813,-0.000000,-0.000811,-0.001707,-0.000588,-0.000000,-0.000279,-0.000061,0.001259,-0.000224,0.198781,-0.263505,9.694658,0.010750,-4.848832,0,0,,38.991381,-76.936746,-10.067000,,,
2026-09-11T18:25:16.971,0.400881,-0.000000,-0.000000,-0.000000,0.000000,-8.399724,2.889813,-0.000000,-0.000837,-0.001762,-0.000646,-0.000000,-0.000307,0.003678,-0.000295,-0.000278,0.198781,-0.260955,9.700934,0.010727,-4.848869,0,0,,38.991381,-76.936746,-10.067000,,,
2026-09-11T18:25:17.004,0.434290,-0.000000,-0.000000,-0.000000,0.000000,-8.399724,2.889813,-0.000000,-0.000913,-0.001923,-0.000707,-0.000000,-0.000336,-0.000387,0.000659,-0.000439,0.202213,-0.260465,9.699856,0.010927,-4.848874,0,0,,38.991381,-76.936746,-10.067000,,,
2026-09-11T18:25:17.036,0.467698,-0.000000,-0.000000,-0.000000,0.000000,-8.399724,2.889813,-0.000000,-0.000806,-0.001697,-0.000768,-0.000000,-0.000365,-0.000852,0.001203,-0.000213,0.198389,-0.256444,9.702896,0.010877,-4.848618,0,0,,38.991381,-76.936746,-10.067000,,,
2026-09-11T18:25:17.069,0.501109,-0.000000,-0.000000,-0.000000,0.000000,-8.399724,2.889813,-0.000000,-0.000609,-0.001281,-0.000817,-0.000000,-0.000388,0.000460,-0.000832,0.000202,0.196133,-0.259190,9.697404,0.010682,-4.848543,0,0,,38.991381,-76.936746,-10.067000,,,
2026-09-11T18:25:17.103,0.534524,-0.000000,-0.000000,-0.000000,0.000000,-8.399724,2.889813,-0.000000,-0.001273,-0.002680,-0.000884,-0.000000,-0.000420,-0.000960,0.001271,-0.001196,0.199271,-0.258013,9.699365,0.010692,-4.848393,0,0,,38.991381,-76.936746,-10.067000,,,
2026-09-11T18:25:17.137,0.567936,-0.000000,-0.000000,-0.000000,0.000000,-8.399724,2.889813,-0.000000,-0.000912,-0.001920,-0.000960,-0.000000,-0.000456,0.001019,0.000879,-0.000436,0.200742,-0.259778,9.701131,0.010797,-4.848359,0,0,,38.991381,-76.936746,-10.067000,,,
2026-09-11T18:25:17.169,0.601343,-0.000000,-0.000000,-0.000000,0.000000,-8.399724,2.889813,-0.000000,-0.000135,-0.000284,-0.000997,-0.000000,-0.000474,0.001325,0.000148,0.001199,0.202213,-0.260465,9.698875,0.010996,-4.848369,0,0,,38.991381,-76.936746,-10.067000,,,
2026-09-11T18:25:17.204,0.634756,-0.000000,-0.000000,-0.000000,0.000000,-8.399724,2.889813,-0.000000,-0.001219,-0.002565,-0.001045,-0.000000,-0.000496,0.000335,0.001666,-0.001082,0.198290,-0.258699,9.694658,0.010939,-4.848265,0,0,,38.991381,-76.936746,-10.067000,,,
2026-09-11T18:25:17.238,0.668169,-0.000000,-0.000000,-0.000000,0.000000,-8.399724,2.889813,-0.000000,-0.001122,-0.002362,-0.001127,-0.000000,-0.000535,0.001382,0.001041,-0.000879,0.198094,-0.258994,9.699660,0.010870,-4.848181,0,0,,38.991381,-76.936746,-10.067000,,,
2026-09-11T18:25:17.270,0.701573,-0.000000,-0.000000,-0.000000,0.000000,-8.399724,2.889813,-0.000000,0.000187,0.000393,-0.001160,-0.000000,-0.000551,0.001221,-0.000982,0.001877,0.200252,-0.260955,9.699169,0.010942,-4.848225,0,0,,38.991381,-76.936746,-10.067000,,,
2026-09-11T18:25:17.304,0.734985,-0.000000,-0.000000,-0.000000,0.000000,-8.399724,2.889813,-0.000000,-0.001164,-0.002451,-0.001194,-0.000000,-0.000567,-0.000181,0.000929,-0.000967,0.201232,-0.260955,9.697110,0.011076,-4.848269,0,0,,38.991381,-76.936746,-10.067000,,,
2026-09-11T18:25:17.337,0.768397,-0.000000,-0.000000,-0.000000,0.000000,-8.399724,2.889813,-0.000000,-0.000510,-0.001073,-0.001253,-0.000000,-0.000595,0.001519,0.000905,0.000411,0.199565,-0.260465,9.700640,0.011100,-4.848281,0,0,,38.991381,-76.936746,-10.067000,,,
2026-09-11T18:25:17.371,0.801800,-0.000000,-0.000000,-0.000000,0.000000,-8.399724,2.889813,-0.000000,-0.000823,-0.001732,-0.001300,-0.000000,-0.000618,-0.001650,-0.000045,-0.000249,0.201036,-0.258503,9.701131,0.011220,-4.848165,0,0,,38.991381,-76.936746,-10.067000,,,
2026-09-11T18:25:17.406,0.835224,-0.000000,-0.000000,-0.000000,0.000000,-8.399724,2.889813,-0.000000,-0.001231,-0.002593,-0.001372,-0.000000,-0.000652,0.002295,0.001541,-0.001109,0.201036,-0.259778,9.699660,0.011338,-4.848133,0,0,,38.991381,-76.936746,-10.067000,,,
2026-09-11T18:25:17.439,0.868639,-0.000000,-0.000000,-0.000000,0.000000,-8.399724,2.889813,-0.000000,-0.000219,-0.000460,-0.001423,-0.000000,-0.000676,0.003015,0.000197,0.001023,0.198781,-0.258209,9.696423,0.011309,-4.848000,0,1,0.866463,38.991381,-76.936745,-9.922000,0.042348,-0.011675,8.228829
2026-09-11T18:25:17.472,0.902042,-0.000000,-0.000000,-0.000000,0.000000,-8.399724,2.889813,-0.000000,-0.000738,-0.001554,-0.001457,-0.000001,-0.000692,-0.003532,-0.000516,-0.000071,0.202802,-0.258994,9.706622,0.011541,-4.847919,0,0,,38.991381,-76.936745,-9.922000,,,
2026-09-11T18:25:17.505,0.935506,-0.000000,-0.000000,-0.000000,0.000000,-8.399724,2.889813,-0.000000,-0.000372,-0.000784,-0.001496,-0.000001,-0.000711,0.001193,0.001009,0.000700,0.199075,-0.257523,9.702896,0.011528,-4.847744,0,0,,38.991381,-76.936745,-9.922000,,,
2026-09-11T18:25:17.538,0.968909,-0.000000,-0.000000,-0.000000,0.000000,-8.399724,2.889813,-0.000000,-0.001161,-0.002443,-0.001550,-0.000001,-0.000736,0.000655,-0.000625,-0.000960,0.199565,-0.263505,9.699660,0.011548,-4.847958,0,0,,38.991381,-76.936745,-9.922000,,,
2026-09-11T18:25:17.573,1.002326,-0.000000,-0.000000,-0.000000,0.000000,-8.399724,2.889813,-0.000000,-0.000499,-0.001052,-0.001609,-0.000001,-0.000764,-0.003236,0.001097,0.000432,0.197310,-0.260268,9.699660,0.011422,-4.847960,0,0,,38.991381,-76.936745,-9.922000,,,
2026-09-11T18:25:17.606,1.035746,-0.000000,-0.000000,-0.000000,0.000000,-8.399724,2.889813,-0.000000,-0.001225,-0.002580,-0.001669,-0.000001,-0.000793,0.001229,0.000642,-0.001096,0.200056,-0.259778,9.698385,0.011474,-4.847930,0,0,,38.991381,-76.936745,-9.922000,,,
2026-09-11T18:25:17.639,1.069157,-0.000000,-0.000000,-0.000000,0.000000,-8.399724,2.889813,-0.000000,-0.001785,-0.003758,-0.001775,-0.000001,-0.000843,0.000842,-0.000065,-0.002274,0.199565,-0.256248,9.701915,0.011494,-4.847673,0,0,,38.991381,-76.936745,-9.922000,,,
2026-09-11T18:25:17.673,1.102570,-0.000000,-0.000000,-0.000000,0.000000,-8.399724,2.889813,-0.000000,-0.001065,-0.002243,-0.001875,-0.000001,-0.000891,-0.002675,0.000184,-0.000759,0.198094,-0.258503,9.700444,0.011419,-4.847564,0,0,,38.991381,-76.936745,-9.922000,,,
2026-09-11T18:25:17.706,1.135977,-0.000000,-0.000000,-0.000000,0.000000,-8.399724,2.889813,-0.000000,-0.000832,-0.001752,-0.001942,-0.000001,-0.000922,0.002951,-0.000196,-0.000268,0.198290,-0.259190,9.688970,0.011358,-4.847500,0,0,,38.991381,-76.936745,-9.922000,,,
2026-09-11T18:25:17.740,1.169384,-0.000000,-0.000000,-0.000000,0.000000,-8.399724,2.889813,-0.000000,-0.001580,-0.003325,-0.002027,-0.000001,-0.000963,0.001143,-0.000592,-0.001842,0.199565,-0.260465,9.701131,0.011379,-4.847520,0,0,,38.991381,-76.936745,-9.922000,,,
2026-09-11T18:25:17.773,1.202798,-0.000000,-0.000000,-0.000000,0.000000,-8.399724,2.889813,-0.000000,-0.000481,-0.001012,-0.002099,-0.000001,-0.000997,0.000408,0.001748,0.000471,0.196819,-0.259974,9.700934,0.011223,-4.847508,0,0,,38.991381,-76.936745,-9.922000,,,
2026-09-11T18:25:17.805,1.236206,-0.000000,-0.000000,-0.000000,0.000000,-8.399724,2.889813,-0.000000,-0.000517,-0.001089,-0.002134,-0.000001,-0.001014,0.002421,-0.000759,0.000395,0.201232,-0.262230,9.698875,0.011354,-4.847642,0,0,,38.991381,-76.936745,-9.922000,,,
2026-09-11T18:25:17.838,1.269608,-0.000000,-0.000000,-0.000000,0.000000,-8.399724,2.889813,-0.000000,0.000609,0.001281,-0.002131,-0.000001,-0.001012,0.000274,-0.001265,0.002765,0.200252,-0.260268,9.701915,0.011420,-4.847648,0,0,,38.991381,-76.936745,-9.922000,,,
2026-09-11T18:25:17.873,1.303019,-0.000000,-0.000000,-0.000000,0.000000,-8.399724,2.889813,-0.000000,-0.001815,-0.003820,-0.002174,-0.000001,-0.001032,-0.000908,0.000637,-0.002337,0.200252,-0.260465,9.696914,0.011485,-4.847666,0,0,,38.991381,-76.936745,-9.922000,,,
2026-09-11T18:25:17.906,1.336437,-0.000000,-0.000000,-0.000000,0.000000,-8.399724,2.889813,-0.000000,-0.000928,-0.001953,-0.002270,-0.000001,-0.001078,-0.000116,-0.001455,-0.000469,0.197506,-0.262916,9.694168,0.011372,-4.847843,0,0,,38.991381,-76.936745,-9.922000,,,
2026-09-11T18:25:17.940,1.369849,-0.000000,-0.000000,-0.000000,0.000000,-8.399724,2.889813,-0.000000,-0.000679,-0.001429,-0.002327,-0.000001,-0.001105,0.000023,-0.001235,0.000054,0.197310,-0.258013,9.699954,0.011248,-4.847701,0,0,,38.991381,-76.936745,-9.922000,,,
2026-09-11T18:25:17.973,1.403249,-0.000000,-0.000000,-0.000000,0.000000,-8.399724,2.889813,-0.000000,-0.000226,-0.000477,-0.002358,-0.000001,-0.001120,0.002720,0.000832,0.001007,0.198879,-0.258013,9.701915,0.011226,-4.847560,0,0,,38.991381,-76.936745,-9.922000,,,
2026-09-11T18:25:18.006,1.436652,-0.000000,-0.000000,-0.000000,0.000000,-8.399724,2.889813,-0.000000,-0.000219,-0.000460,-0.002374,-0.000001,-0.001128,-0.000522,-0.001821,0.001023,0.198781,-0.261739,9.700150,0.011198,-4.847661,0,0,,38.991381,-76.936745,-9.922000,,,
2026-09-11T18:25:18.040,1.470053,-0.000000,-0.000000,-0.000000,0.000000,-8.399724,2.889813,-0.000000,0.000544,0.001145,-0.002363,-0.000001,-0.001122,-0.002668,-0.001949,0.002628,0.198290,-0.258699,9.696129,0.011139,-4.847565,0,0,,38.991381,-76.936745,-9.922000,,,
2026-09-11T18:25:18.074,1.503455,-0.000000,-0.000000,-0.000000,0.000000,-8.399724,2.889813,-0.000000,-0.001269,-0.002671,-0.002388,-0.000001,-0.001134,0.001474,0.000315,-0.001188,0.198290,-0.261445,9.702896,0.011081,-4.847648,0,0,,38.991381,-76.936745,-9.922000,,,
2026-09-11T18:25:18.107,1.536868,-0.000000,-0.000000,-0.000000,0.000000,-8.399724,2.889813,-0.000000,-0.000825,-0.001736,-0.002462,-0.000001,-0.001169,0.000060,-0.001145,-0.000252,0.197310,-0.260465,9.702405,0.010959,-4.847666,0,0,,38.991381,-76.936745,-9.922000,,,
2026-09-11T18:25:18.139,1.570280,-0.000000,-0.000000,-0.000000,0.000000,-8.399724,2.889813,-0.000000,0.000088,0.000184,-0.002488,-0.000001,-0.001182,-0.002640,-0.000510,0.001668,0.198290,-0.261739,9.700640,0.010903,-4.847767,0,0,,38.991381,-76.936745,-9.922000,,,
2026-09-11T18:25:18.172,1.603683,-0.000000,-0.000000,-0.000000,0.000000,-8.399724,2.889813,-0.000000,-0.001100,-0.002316,-0.002523,-0.000002,-0.001199,0.000920,-0.000555,-0.000832,0.199565,-0.258994,9.699169,0.010929,-4.847689,0,0,,38.991381,-76.936745,-9.922000,,,
2026-09-11T18:25:18.207,1.637096,-0.000000,-0.000000,-0.000000,0.000000,-8.399724,2.889813,-0.000000,0.000606,0.001277,-0.002541,-0.000002,-0.001207,-0.002568,-0.001021,0.002760,0.199075,-0.260759,9.697894,0.010924,-4.847726,0,0,,38.991381,-76.936745,-9.922000,,,
2026-09-11T18:25:18.241,1.670510,-0.000000,-0.000000,-0.000000,0.000000,-8.399724,2.889813,-0.000000,-0.000490,-0.001031,-0.002537,-0.000002,-0.001205,-0.003450,-0.000936,0.000453,0.198879,-0.253208,9.699954,0.010906,-4.847273,0,0,,38.991381,-76.936745,-9.922000,,,
2026-09-11T18:25:18.274,1.703922,-0.000000,-0.000000,-0.000000,0.000000,-8.399724,2.889813,-0.000000,-0.000795,-0.001674,-0.002582,-0.000002,-0.001226,0.002274,0.001117,-0.000190,0.198094,-0.259484,9.697208,0.010837,-4.847232,0,0,,38.991381,-76.936745,-9.922000,,,
2026-09-11T18:25:18.307,1.737343,-0.000000,-0.000000,-0.000000,0.000000,-8.399724,2.889813,-0.000000,-0.001160,-0.002442,-0.002651,-0.000002,-0.001259,0.000707,0.000369,-0.000959,0.198389,-0.258994,9.706622,0.010789,-4.847160,0,0,,38.991381,-76.936745,-9.922000,,,
2026-09-11T18:25:18.340,1.770745,-0.000000,-0.000000,-0.000000,0.000000,-8.399724,2.889813,-0.000000,-0.000950,-0.002001,-0.002725,-0.000002,-0.001294,-0.001112,0.000494,-0.000517,0.200938,-0.261739,9.693187,0.010905,-4.847266,0,0,,38.991381,-76.936745,-9.922000,,,
2026-09-11T18:25:18.373,1.804154,-0.000000,-0.000000,-0.000000,0.000000,-8.399724,2.889813,-0.000000,-0.000873,-0.001837,-0.002789,-0.000002,-0.001325,0.002878,0.000222,-0.000354,0.199761,-0.261936,9.693874,0.010944,-4.847384,0,0,,38.991381,-76.936745,-9.922000,,,
2026-09-11T18:25:18.408,1.837569,-0.000000,-0.000000,-0.000000,0.000000,-8.399724,2.889813,-0.000000,-0.000541,-0.001139,-0.002839,-0.000002,-0.001348,-0.001934,-0.000957,0.000344,0.201527,-0.258699,9.696129,0.011098,-4.847291,0,0,,38.991381,-76.936745,-9.922000,,,
2026-09-11T18:25:18.440,1.871041,-0.000000,-0.000000,-0.000000,0.000000,-8.399724,2.889813,-0.000000,-0.000821,-0.001728,-0.002887,-0.000002,-0.001371,-0.001936,-0.000027,-0.000245,0.197114,-0.259190,9.701131,0.010963,-4.847230,0,1,1.865321,38.991381,-76.936745,-9.857000,0.069428,-0.020200,8.227278
2026-09-11T18:25:18.473,1.904462,-0.000000,-0.000000,-0.000000,0.000000,-8.399724,2.889813,-0.000000,-0.000067,-0.000140,-0.002918,-0.000002,-0.001386,0.000262,-0.000818,0.001343,0.197114,-0.258994,9.703190,0.010830,-4.847158,0,0,,38.991381,-76.936745,-9.857000,,,
2026-09-11T18:25:18.506,1.937869,-0.000000,-0.000000,-0.000000,0.000000,-8.399724,2.889813,-0.000000,0.000126,0.000265,-0.002916,-0.000002,-0.001385,-0.002071,-0.000193,0.001748,0.198290,-0.258503,9.695639,0.010775,-4.847055,0,0,,38.991381,-76.936745,-9.857000,,,
2026-09-11T18:25:18.542,1.971273,-0.000000,-0.000000,-0.000000,0.000000,-8.399724,2.889813,-0.000000,-0.000736,-0.001550,-0.002937,-0.000002,-0.001395,0.000919,-0.000934,-0.000067,0.202017,-0.260955,9.696423,0.010962,-4.847112,0,0,,38.991381,-76.936745,-9.857000,,,
2026-09-11T18:25:18.575,2.004680,-0.000000,-0.000000,-0.000000,0.000000,-8.399724,2.889813,-0.000000,-0.000142,-0.000299,-0.002968,-0.000002,-0.001410,0.000533,-0.001541,0.001185,0.199075,-0.261249,9.702405,0.010956,-4.847187,0,0,,38.991381,-76.936745,-9.857000,,,
2026-09-11T18:25:18.608,2.038098,-0.000000,-0.000000,-0.000000,0.000000,-8.399724,2.889813,-0.000000,-0.000174,-0.000366,-0.002979,-0.000002,-0.001415,-0.002327,-0.000061,0.001118,0.198879,-0.257228,9.703876,0.010938,-4.847001,0,0,,38.991381,-76.936745,-9.857000,,,
2026-09-11T18:25:18.641,2.071506,-0.000000,-0.000000,-0.000000,0.000000,-8.399724,2.889813,-0.000000,-0.000957,-0.002016,-0.003019,-0.000002,-0.001434,0.001288,-0.001279,-0.000532,0.198487,-0.262720,9.696423,0.010894,-4.847172,0,0,,38.991381,-76.936745,-9.857000,,,
2026-09-11T18:25:18.674,2.104905,-0.000000,-0.000000,-0.000000,0.000000,-8.399724,2.889813,-0.000000,-0.000612,-0.001289,-0.003074,-0.000002,-0.001460,-0.000677,-0.001356,0.000195,0.199565,-0.258994,9.694364,0.010921,-4.847100,0,0,,38.991381,-76.936745,-9.857000,,,
2026-09-11T18:25:18.708,2.138310,-0.000000,-0.000000,-0.000000,0.000000,-8.399724,2.889813,-0.000000,-0.001332,-0.002803,-0.003142,-0.000002,-0.001493,-0.001576,0.001108,-0.001320,0.198585,-0.258994,9.699954,0.010884,-4.847029,0,0,,38.991381,-76.936745,-9.857000,,,
2026-09-11T18:25:18.742,2.171726,-0.000000,-0.000000,-0.000000,0.000000,-8.399724,2.889813,-0.000000,0.000206,0.000434,-0.003182,-0.000002,-0.001511,-0.000243,-0.001688,0.001917,0.197604,-0.258503,9.699954,0.010784,-4.846928,0,0,,38.991381,-76.936745,-9.857000,,,
2026-09-11T18:25:18.775,2.205125,-0.000000,-0.000000,-0.000000,0.000000,-8.399724,2.889813,-0.000000,0.000022,0.000046,-0.003174,-0.000002,-0.001508,0.001177,0.000122,0.001530,0.204174,-0.217413,9.723098,0.011110,-4.844169,0,0,,38.991381,-76.936745,-9.857000,,,
2026-09-11T18:25:18.808,2.238533,-0.000000,-0.000000,-0.000000,0.000000,-8.399724,2.889813,-0.000000,-0.000688,-0.001448,-0.003197,-0.000002,-0.001519,0.001835,0.001375,0.000035,0.213687,-0.277724,9.662296,0.012048,-4.845343,0,0,,38.991381,-76.936745,-9.857000,,,
2026-09-11T18:25:18.842,2.271939,-0.000000,-0.000000,-0.000000,0.000000,-8.399724,2.889813,-0.000000,-0.000419,-0.000881,-0.003236,-0.000002,-0.001537,0.019241,-0.001079,0.000602,0.154651,-0.161123,9.660629,0.009156,-4.838959,0,0,,38.991381,-76.936745,-9.857000,,,
2026-09-11T18:25:18.875,2.305495,-0.000000,-0.000000,-0.000000,0.000000,-10.119771,3.481573,-0.000000,0.001643,0.003460,-0.003193,-0.000002,-0.001517,0.041090,-0.001319,0.004943,0.158377,-0.045013,9.546480,0.006526,-4.825073,0,0,,38.991381,-76.936745,-9.857000,,,
2026-09-11T18:25:18.909,2.338916,-0.000000,-0.000000,-0.000000,0.000000,-14.213551,4.889983,-0.000000,0.010665,0.022453,-0.002760,-0.000002,-0.001311,0.038303,-0.000494,0.023937,0.179854,0.465718,9.770071,0.005325,-4.778338,0,0,,38.991381,-76.936745,-9.857000,,,
2026-09-11T18:25:18.942,2.372319,-0.000000,-0.000000,-0.000000,0.000000,-19.594792,6.741328,-0.000000,0.011947,0.025151,-0.001965,-0.000001,-0.000933,0.012014,-0.001831,0.026635,0.131605,-0.192308,9.708976,0.001018,-4.774715,0,0,,38.991381,-76.936745,-9.857000,,,
2026-09-11T18:25:18.975,2.405722,-0.000000,-0.000000,-0.000000,0.000000,-22.776021,7.835787,-0.000000,0.011645,0.024516,-0.001135,-0.000000,-0.000539,-0.009835,0.002056,0.026000,0.257327,-0.235065,9.732414,0.004890,-4.773898,0,0,,38.991381,-76.936745,-9.857000,,,
2026-09-11T18:25:19.009,2.439129,-0.000000,-0.000000,-0.000000,0.000000,-27.744588,9.545156,-0.000000,0.010364,0.021819,-0.000362,-0.000000,-0.000172,-0.006277,0.001857,0.023303,0.279686,-0.324208,9.680929,0.010166,-4.778857,0,0,,38.991381,-76.936745,-9.857000,,,
2026-09-11T18:25:19.043,2.472548,-0.000000,-0.000000,-0.000000,0.000000,-33.577641,11.551941,-0.000000,0.014670,0.030885,0.000519,-0.000000,0.000247,-0.003498,0.001462,0.032369,0.215550,-0.000294,9.656118,0.011236,-4.762798,0,0,,38.991381,-76.936745,-9.857000,,,
2026-09-11T18:25:19.076,2.505963,-0.000000,-0.000000,-0.000000,0.000000,-36.377782,12.515292,-0.000000,0.015215,0.032032,0.001570,-0.000001,0.000746,-0.016839,0.002006,0.033515,0.348626,-0.456205,9.815182,0.020904,-4.776423,0,0,,38.991381,-76.936745,-9.857000,,,
2026-09-11T18:25:19.109,2.539369,-0.000000,-0.000000,-0.000000,0.000000,-41.627873,14.321516,-0.000000,0.012242,0.025773,0.002536,-0.000002,0.001205,-0.011656,0.005068,0.027257,0.242518,-0.202998,9.756538,0.023598,-4.773512,0,0,,38.991381,-76.936745,-9.857000,,,
2026-09-11T18:25:19.142,2.572774,-0.000000,-0.000000,-0.000000,0.000000,-46.630772,16.042697,-0.000000,0.015718,0.033091,0.003519,-0.000003,0.001672,-0.018983,0.002631,0.034574,0.240753,-0.319795,9.730551,0.026148,-4.778190,0,0,,38.991381,-76.936745,-9.857000,,,
2026-09-11T18:25:19.176,2.606178,-0.000000,-0.000000,-0.000000,0.000000,-53.342732,18.351857,-0.000000,0.011679,0.024587,0.004482,-0.000005,0.002129,-0.021166,0.003672,0.026071,0.196623,-0.353039,9.656706,0.025816,-4.784966,0,0,,38.991381,-76.936745,-9.857000,,,
2026-09-11T18:25:19.210,2.639592,-0.000000,-0.000000,-0.000000,0.000000,-59.732655,20.550225,-0.000000,0.013673,0.028786,0.005374,-0.000007,0.002553,-0.009504,0.004823,0.030269,0.125133,-0.042169,9.710153,0.020861,-4.771552,0,0,,38.991381,-76.936745,-9.857000,,,
2026-09-11T18:25:19.243,2.673008,-0.000000,-0.000000,-0.000000,0.000000,-63.154897,21.727602,-0.000000,0.015040,0.031663,0.006384,-0.000010,0.003032,-0.010505,0.003317,0.033147,0.231535,-0.436984,9.686028,0.022846,-4.783837,0,0,,38.991381,-76.936745,-9.857000,,,
2026-09-11T18:25:19.276,2.706412,-0.000000,-0.000000,-0.000000,0.000000,-70.154561,24.135743,-0.000000,0.013635,0.028706,0.007392,-0.000013,0.003511,0.000718,0.002220,0.030190,0.145825,-0.172989,9.717606,0.019264,-4.778902,0,0,,38.991381,-76.936745,-9.857000,,,
2026-09-11T18:25:19.309,2.739823,-0.000000,-0.000000,-0.000000,0.000000,-74.240102,25.541319,-0.000000,0.014139,0.029766,0.008369,-0.000017,0.003975,0.003613,0.004421,0.031249,0.206920,-0.389520,9.649548,0.019674,-4.788033,0,0,,38.991381,-76.936745,-9.857000,,,
2026-09-11T18:25:19.343,2.773239,-0.000000,-0.000000,-0.000000,0.000000,-81.369542,27.994108,-0.000000,0.008076,0.017003,0.009151,-0.000020,0.004346,-0.014043,0.002930,0.018487,0.212804,-0.254385,9.700248,0.020460,-4.788318,0,0,,38.991381,-76.936745,-9.857000,,,
2026-09-11T18:25:19.376,2.806658,-0.000000,-0.000000,-0.000000,0.000000,-84.092091,28.930765,-0.000000,0.007198,0.015154,0.009688,-0.000022,0.004602,-0.005132,0.003558,0.016637,0.215942,-0.194662,9.694266,0.021441,-4.784735,0,0,,38.991381,-76.936745,-9.857000,,,
2026-09-11T18:25:19.410,2.840078,-0.000000,-0.000000,-0.000000,0.000000,-85.237416,29.324799,-0.000000,0.006730,0.014169,0.010178,-0.000025,0.004834,-0.005391,0.001771,0.015652,0.230260,-0.371182,9.732120,0.023337,-4.792616,0,0,,38.991381,-76.936745,-9.857000,,,
2026-09-11T18:25:19.443,2.873483,-0.000000,-0.000000,-0.000000,0.000000,-85.843037,29.533155,-0.000000,0.001347,0.002837,0.010462,-0.000026,0.004969,-0.014019,0.000299,0.004320,0.150238,-0.333720,9.678085,0.020035,-4.797983,0,1,2.870182,38.991381,-76.936745,-9.841000,0.108032,0.011490,8.165632
2026-09-11T18:25:19.476,2.906886,-0.000000,-0.000000,-0.000000,0.000000,-85.843037,29.533155,-0.000000,-0.001627,-0.003426,0.010452,-0.000026,0.004965,-0.018366,0.001894,-0.001942,0.198977,-0.363827,9.702405,0.019923,-4.805238,0,0,,38.991381,-76.936745,-9.841000,,,
2026-09-11T18:25:19.510,2.940293,-0.000000,-0.000000,-0.000000,0.000000,-85.194844,29.310153,-0.000000,-0.002552,-0.005372,0.010305,-0.000025,0.004895,-0.013914,0.000226,-0.003889,0.151219,-0.288119,9.699562,0.016722,-4.807515,0,0,,38.991381,-76.936745,-9.841000,,,
2026-09-11T18:25:19.544,2.973714,-0.000000,-0.000000,-0.000000,0.000000,-84.689473,29.136287,-0.000000,-0.003790,-0.007980,0.010082,-0.000024,0.004789,-0.007257,0.000405,-0.006496,0.111207,-0.353726,9.705347,0.010965,-4.814014,0,0,,38.991381,-76.936745,-9.841000,,,
2026-09-11T18:25:19.577,3.007138,-0.000000,-0.000000,-0.000000,0.000000,-83.935536,28.876905,-0.000000,-0.007025,-0.014789,0.009701,-0.000022,0.004608,-0.002386,-0.000242,-0.013305,0.080316,-0.392168,9.704857,0.003273,-4.822931,0,0,,38.991381,-76.936745,-9.841000,,,
2026-09-11T18:25:19.612,3.040584,-0.000000,-0.000000,-0.000000,0.000000,-81.808995,28.145296,-0.000000,-0.009203,-0.019376,0.009130,-0.000020,0.004337,-0.008171,-0.002098,-0.017892,0.169263,-0.341958,9.712604,0.001422,-4.828502,0,0,,38.991381,-76.936745,-9.841000,,,
2026-09-11T18:25:19.644,3.073992,-0.000000,-0.000000,-0.000000,0.000000,-78.522710,27.014694,-0.000000,-0.011057,-0.023278,0.008418,-0.000017,0.003998,-0.007249,0.000560,-0.021795,0.214471,-0.278607,9.723490,0.002518,-4.829906,0,0,,38.991381,-76.936745,-9.841000,,,
2026-09-11T18:25:19.678,3.107400,-0.000000,-0.000000,-0.000000,0.000000,-72.929982,25.090590,-0.000000,-0.012376,-0.026055,0.007594,-0.000014,0.003607,-0.010708,0.000122,-0.024572,0.228691,-0.286943,9.720156,0.004521,-4.831834,0,0,,38.991381,-76.936745,-9.841000,,,
2026-09-11T18:25:19.711,3.140806,-0.000000,-0.000000,-0.000000,0.000000,-69.395818,23.874708,-0.000000,-0.011053,-0.023270,0.006770,-0.000011,0.003216,-0.011503,-0.002153,-0.021786,0.166811,-0.244872,9.665434,0.002500,-4.831018,0,0,,38.991381,-76.936745,-9.841000,,,
2026-09-11T18:25:19.745,3.174238,-0.000000,-0.000000,-0.000000,0.000000,-66.700734,22.947500,-0.000000,-0.009754,-0.020534,0.006037,-0.000009,0.002868,-0.000027,-0.000711,-0.019051,0.185738,-0.200154,9.702307,0.001724,-4.827316,0,0,,38.991381,-76.936745,-9.841000,,,
2026-09-11T18:25:19.777,3.207645,-0.000000,-0.000000,-0.000000,0.000000,-62.216252,21.404674,-0.000000,-0.009478,-0.019954,0.005361,-0.000007,0.002547,-0.002337,0.000046,-0.018471,0.237223,-0.331563,9.735748,0.004289,-4.832159,0,0,,38.991381,-76.936745,-9.841000,,,
2026-09-11T18:25:19.812,3.241065,-0.000000,-0.000000,-0.000000,0.000000,-57.124089,19.652783,-0.000000,-0.012072,-0.025414,0.004603,-0.000005,0.002186,-0.011363,-0.000928,-0.023931,0.247324,-0.345782,9.717410,0.007479,-4.837871,0,0,,38.991381,-76.936745,-9.841000,,,
2026-09-11T18:25:19.845,3.274486,-0.000000,-0.000000,-0.000000,0.000000,-55.925893,19.240559,-0.000000,-0.011643,-0.024511,0.003769,-0.000003,0.001790,-0.006889,-0.000202,-0.023027,0.276646,-0.142393,9.762716,0.012532,-4.830356,0,0,,38.991381,-76.936745,-9.841000,,,
2026-09-11T18:25:19.877,3.307891,-0.000000,-0.000000,-0.000000,0.000000,-53.278874,18.329888,-0.000000,-0.006990,-0.014716,0.003114,-0.000002,0.001479,0.008231,-0.000965,-0.013233,0.233594,-0.157887,9.721136,0.014742,-4.823929,0,0,,38.991381,-76.936745,-9.841000,,,
2026-09-11T18:25:19.911,3.341298,-0.000000,-0.000000,-0.000000,0.000000,-50.302266,17.305825,-0.000000,-0.006996,-0.014728,0.002622,-0.000002,0.001245,0.012015,-0.002540,-0.013244,0.199761,-0.370495,9.752027,0.014739,-4.831329,0,0,,38.991381,-76.936745,-9.841000,,,
2026-09-11T18:25:19.944,3.374708,-0.000000,-0.000000,-0.000000,0.000000,-45.822591,15.764653,-0.000000,-0.010889,-0.022925,0.001993,-0.000001,0.000947,0.010000,-0.000395,-0.021441,0.174853,-0.250854,9.714566,0.013124,-4.830906,0,0,,38.991381,-76.936745,-9.841000,,,
2026-09-11T18:25:19.978,3.408123,-0.000000,-0.000000,-0.000000,0.000000,-44.072331,15.162499,-0.000000,-0.008004,-0.016852,0.001328,-0.000000,0.000631,0.012306,-0.001070,-0.015368,0.181423,-0.099930,9.660139,0.011952,-4.820721,0,0,,38.991381,-76.936745,-9.841000,,,
2026-09-11T18:25:20.011,3.441546,-0.000000,-0.000000,-0.000000,0.000000,-43.281316,14.890361,-0.000000,-0.001763,-0.003712,0.000985,-0.000000,0.000468,0.010100,-0.001205,-0.002228,0.114247,-0.199860,9.686224,0.006445,-4.817114,0,0,,38.991381,-76.936745,-9.841000,,,
2026-09-11T18:25:20.045,3.474954,-0.000000,-0.000000,-0.000000,0.000000,-43.281316,14.890361,-0.000000,-0.000449,-0.000946,0.000907,-0.000000,0.000431,0.015938,-0.000996,0.000538,0.059821,-0.239871,9.664650,-0.002519,-4.816138,0,0,,38.991381,-76.936745,-9.841000,,,
2026-09-11T18:25:20.078,3.508356,-0.000000,-0.000000,-0.000000,0.000000,-43.303975,14.898157,-0.000000,0.001095,0.002306,0.000929,-0.000000,0.000441,0.010500,0.000673,0.003789,0.119151,-0.252619,9.701817,-0.007545,-4.815998,0,0,,38.991381,-76.936745,-9.841000,,,
2026-09-11T18:25:20.111,3.541764,-0.000000,-0.000000,-0.000000,0.000000,-43.347920,14.913275,-0.000000,0.001013,0.002132,0.001004,-0.000000,0.000477,0.007396,0.002083,0.003616,0.282235,-0.223395,9.698189,-0.001966,-4.813968,0,0,,38.991381,-76.936745,-9.841000,,,
2026-09-11T18:25:20.145,3.575173,-0.000000,-0.000000,-0.000000,0.000000,-43.347920,14.913275,-0.000000,0.001316,0.002770,0.001085,-0.000000,0.000516,0.013306,0.000449,0.004254,0.354314,-0.304889,9.690539,0.008214,-4.817234,0,0,,38.991381,-76.936745,-9.841000,,,
2026-09-11T18:25:20.179,3.608593,-0.000000,-0.000000,-0.000000,0.000000,-43.435811,14.943513,-0.000000,0.000055,0.000115,0.001134,-0.000000,0.000538,0.020087,-0.000430,0.001599,0.343919,-0.347548,9.734081,0.017613,-4.823225,0,0,,38.991381,-76.936745,-9.841000,,,
2026-09-11T18:25:20.212,3.642009,-0.000000,-0.000000,-0.000000,0.000000,-43.435811,14.943513,-0.000000,-0.001601,-0.003370,0.001079,-0.000000,0.000513,0.041299,-0.000580,-0.001887,0.247814,-0.234967,9.745947,0.020687,-4.821864,0,0,,38.991381,-76.936745,-9.841000,,,
2026-09-11T18:25:20.245,3.675539,-0.000000,-0.000000,-0.000000,0.000000,-43.435811,14.943513,-0.000000,-0.000127,-0.000267,0.001018,-0.000000,0.000484,0.054190,-0.002384,0.001217,0.183090,-0.227024,9.659060,0.019535,-4.819998,0,0,,38.991381,-76.936745,-9.841000,,,
2026-09-11T18:25:20.279,3.708945,-0.000000,-0.000000,-0.000000,0.000000,-43.435811,14.943513,-0.000000,-0.000021,-0.000045,0.001013,-0.000000,0.000481,0.044318,-0.002623,0.001439,0.088358,-0.221434,9.729374,0.012273,-4.817797,0,0,,38.991381,-76.936745,-9.841000,,,
2026-09-11T18:25:20.312,3.742748,-0.000000,-0.000000,-0.000000,0.000000,-43.435811,14.943513,-0.000000,-0.002455,-0.005168,0.000925,-0.000000,0.000439,0.014427,0.000500,-0.003684,0.116405,-0.134449,9.673966,0.006841,-4.809901,0,0,,38.991381,-76.936745,-9.841000,,,
2026-09-11T18:25:20.346,3.776174,-0.000000,-0.000000,-0.000000,0.000000,-43.435811,14.943513,-0.000000,-0.000282,-0.000594,0.000829,-0.000000,0.000394,-0.006571,-0.000544,0.000890,0.170342,-0.117876,9.689951,0.005021,-4.801106,0,0,,38.991381,-76.936745,-9.841000,,,
2026-09-11T18:25:20.379,3.809590,-0.000000,-0.000000,-0.000000,0.000000,-43.435811,14.943513,-0.000000,0.001108,0.002333,0.000858,-0.000000,0.000407,-0.023684,-0.000021,0.003817,0.226141,-0.221532,9.700738,0.006832,-4.799121,0,0,,38.991381,-76.936745,-9.841000,,,
2026-09-11T18:25:20.412,3.843000,-0.000000,-0.000000,-0.000000,0.000000,-43.435811,14.943513,-0.000000,0.000839,0.001767,0.000926,-0.000000,0.000440,-0.037884,0.002900,0.003251,0.196427,-0.210451,9.687990,0.006701,-4.796440,0,0,,38.991381,-76.936745,-9.841000,,,
2026-09-11T18:25:20.445,3.876407,-0.000000,-0.000000,-0.000000,0.000000,-43.553227,14.983908,-0.000000,0.001909,0.004019,0.001023,-0.000000,0.000486,-0.042930,0.000254,0.005502,0.186032,-0.263407,9.702013,0.005899,-4.797216,0,1,3.868363,38.991381,-76.936744,-9.885000,0.122868,-0.039104,3.499973
2026-09-11T18:25:20.478,3.909812,-0.000000,-0.000000,-0.000000,0.000000,-43.699483,15.034226,-0.000000,0.001797,0.003783,0.001153,-0.000000,0.000548,-0.052780,0.000922,0.005266,0.161417,-0.238105,9.750164,0.003513,-4.796346,0,0,,38.991381,-76.936744,-9.885000,,,
2026-09-11T18:25:20.513,3.943224,-0.000000,-0.000000,-0.000000,0.000000,-43.821706,15.076275,-0.000000,0.002051,0.004319,0.001289,-0.000000,0.000612,-0.051348,0.004825,0.005802,0.143079,-0.304791,9.712114,-0.000033,-4.799801,0,0,,38.991381,-76.936744,-9.885000,,,
2026-09-11T18:25:20.546,3.976650,-0.000000,-0.000000,-0.000000,0.000000,-44.138936,15.185414,-0.000000,0.003740,0.007873,0.001492,-0.000001,0.000709,-0.054076,0.001790,0.009357,0.200448,-0.346175,9.713879,0.000172,-4.805898,0,0,,38.991381,-76.936744,-9.885000,,,
2026-09-11T18:25:20.579,4.010067,-0.000000,-0.000000,-0.000000,0.000000,-44.209660,15.209746,-0.000000,0.001759,0.003704,0.001686,-0.000001,0.000801,-0.048500,0.001583,0.005187,0.243303,-0.340977,9.684263,0.003147,-4.811589,0,0,,38.991381,-76.936744,-9.885000,,,
2026-09-11T18:25:20.612,4.043473,-0.000000,-0.000000,-0.000000,0.000000,-44.402608,15.276127,-0.000000,0.000839,0.001767,0.001777,-0.000001,0.000844,-0.026802,0.001898,0.003250,0.236831,-0.349411,9.677300,0.005671,-4.817762,0,0,,38.991381,-76.936744,-9.885000,,,
2026-09-11T18:25:20.645,4.076883,-0.000000,-0.000000,-0.000000,0.000000,-44.446553,15.291245,-0.000000,0.001247,0.002625,0.001851,-0.000001,0.000879,-0.014674,-0.000416,0.004109,0.205253,-0.387853,9.703092,0.006123,-4.826354,0,0,,38.991381,-76.936744,-9.885000,,,
2026-09-11T18:25:20.679,4.110286,-0.000000,-0.000000,-0.000000,0.000000,-44.446553,15.291245,-0.000000,-0.000686,-0.001444,0.001870,-0.000001,0.000888,0.005997,-0.000482,0.000040,0.164359,-0.370888,9.709368,0.003925,-4.833751,0,0,,38.991381,-76.936744,-9.885000,,,
2026-09-11T18:25:20.713,4.143697,-0.000000,-0.000000,-0.000000,0.000000,-44.446553,15.291245,-0.000000,-0.001263,-0.002659,0.001802,-0.000001,0.000856,0.027529,-0.001475,-0.001175,0.179756,-0.340683,9.689265,0.002748,-4.839114,0,0,,38.991381,-76.936744,-9.885000,,,
2026-09-11T18:25:20.746,4.177119,-0.000000,-0.000000,-0.000000,0.000000,-44.446553,15.291245,-0.000000,-0.000822,-0.001730,0.001728,-0.000001,0.000821,0.036238,-0.003047,-0.000247,0.200252,-0.364905,9.700346,0.002909,-4.845987,0,0,,38.991381,-76.936744,-9.885000,,,
2026-09-11T18:25:20.779,4.210528,-0.000000,-0.000000,-0.000000,0.000000,-44.490498,15.306364,-0.000000,-0.001604,-0.003376,0.001643,-0.000001,0.000780,0.046273,-0.002270,-0.001892,0.205057,-0.345684,9.699562,0.003379,-4.851538,0,0,,38.991381,-76.936744,-9.885000,,,
2026-09-11T18:25:20.812,4.243927,-0.000000,-0.000000,-0.000000,0.000000,-44.490498,15.306364,-0.000000,-0.002172,-0.004572,0.001510,-0.000001,0.000717,0.050518,-0.002222,-0.003088,0.261739,-0.251443,9.703582,0.007511,-4.850930,0,0,,38.991381,-76.936744,-9.885000,,,
2026-09-11T18:25:20.846,4.277329,-0.000000,-0.000000,-0.000000,0.000000,-44.490498,15.306364,-0.000000,-0.000456,-0.000960,0.001418,-0.000000,0.000674,0.039238,-0.002497,0.000523,0.272429,-0.215844,9.683773,0.012288,-4.848025,0,0,,38.991381,-76.936744,-9.885000,,,
2026-09-11T18:25:20.881,4.310729,-0.000000,-0.000000,-0.000000,0.000000,-44.490498,15.306364,-0.000000,-0.000190,-0.000400,0.001395,-0.000000,0.000663,0.032099,-0.001019,0.001083,0.256444,-0.233202,9.705446,0.015978,-4.846276,0,0,,38.991381,-76.936744,-9.885000,,,
2026-09-11T18:25:20.914,4.344148,-0.000000,-0.000000,-0.000000,0.000000,-44.490498,15.306364,-0.000000,-0.000128,-0.000269,0.001384,-0.000000,0.000657,0.027165,-0.002021,0.001214,0.210353,-0.244578,9.674064,0.016646,-4.845281,0,0,,38.991381,-76.936744,-9.885000,,,
2026-09-11T18:25:20.948,4.377575,-0.000000,-0.000000,-0.000000,0.000000,-44.490498,15.306364,-0.000000,0.000597,0.001258,0.001401,-0.000000,0.000665,0.014921,-0.000712,0.002741,0.152886,-0.205940,9.717115,0.013588,-4.841795,0,0,,38.991381,-76.936744,-9.885000,,,
2026-09-11T18:25:20.981,4.411027,-0.000000,-0.000000,-0.000000,0.000000,-44.490498,15.306364,-0.000000,-0.000556,-0.001170,0.001402,-0.000000,0.000666,0.000474,-0.000060,0.000313,0.189563,-0.233104,9.682498,0.001413,-4.840106,0,0,,38.991381,-76.936744,-9.885000,,,
2026-09-11T18:25:21.013,4.444439,-0.000000,-0.000000,-0.000000,0.000000,-44.490498,15.306364,-0.000000,0.000966,0.002034,0.001416,-0.000000,0.000673,-0.008278,-0.000714,0.003517,0.217413,-0.195447,9.695737,-0.017868,-4.836001,0,0,,38.991381,-76.936744,-9.885000,,,
2026-09-11T18:25:21.046,4.477840,-0.000000,-0.000000,-0.000000,0.000000,-44.490498,15.306364,-0.000000,0.001160,0.002442,0.001491,-0.000001,0.000708,-0.015489,0.001007,0.003926,0.212804,-0.223592,9.697600,-0.027467,-4.833763,0,0,,38.991381,-76.936744,-9.885000,,,
2026-09-11T18:25:21.081,4.511264,-0.000000,-0.000000,-0.000000,0.000000,-44.490498,15.306364,-0.000000,0.001405,0.002959,0.001581,-0.000001,0.000751,-0.022890,0.000716,0.004442,0.205744,-0.224572,9.698385,-0.028869,-4.831611,0,0,,38.991381,-76.936744,-9.885000,,,
2026-09-11T18:25:21.115,4.544688,-0.000000,-0.000000,-0.000000,0.000000,-44.490498,15.306364,-0.000000,0.001990,0.004190,0.001701,-0.000001,0.000808,-0.029709,0.000696,0.005673,0.233104,-0.265662,9.645625,-0.026748,-4.832144,0,0,,38.991381,-76.936744,-9.885000,,,
2026-09-11T18:25:21.147,4.578108,-0.000000,-0.000000,-0.000000,0.000000,-44.490498,15.306364,-0.000000,0.001679,0.003536,0.001830,-0.000001,0.000869,-0.032645,0.003700,0.005019,0.258209,-0.285766,9.731825,-0.023120,-4.833971,0,0,,38.991381,-76.936744,-9.885000,,,
2026-09-11T18:25:21.180,4.611513,-0.000000,-0.000000,-0.000000,0.000000,-44.490498,15.306364,-0.000000,0.002282,0.004803,0.001969,-0.000001,0.000935,-0.035683,0.003979,0.006287,0.333622,-0.243303,9.689461,-0.015266,-4.833031,0,0,,38.991381,-76.936744,-9.885000,,,
2026-09-11T18:25:21.214,4.644923,-0.000000,-0.000000,-0.000000,0.000000,-44.490498,15.306364,-0.000000,0.003409,0.007177,0.002169,-0.000001,0.001030,-0.036692,0.002365,0.008661,0.398052,-0.269487,9.694462,-0.003328,-4.833795,0,0,,38.991381,-76.936744,-9.885000,,,
2026-09-11T18:25:21.248,4.678357,0.184766,0.006213,1.710800,0.000000,-44.490498,15.306364,0.178212,0.003625,0.007632,0.002417,0.002978,0.001155,-0.034520,0.003433,0.009115,0.383832,-0.234183,9.700542,-0.005018,-4.832353,0,0,,38.991381,-76.936744,-9.885000,,,
2026-09-11T18:25:21.281,4.711785,0.145551,0.011709,1.347698,0.000000,-44.490498,15.306364,0.140388,0.005765,0.012137,0.002747,0.008302,0.001326,-0.027734,0.004421,0.013621,0.325581,-0.365102,9.685538,-0.022376,-4.839425,0,0,,38.991381,-76.936744,-9.885000,,,
2026-09-11T18:25:21.314,4.745190,0.027906,0.011644,0.258389,0.000000,-44.490498,15.306364,0.026916,0.004875,0.010264,0.003122,0.011096,0.001511,-0.014375,0.001520,0.011747,0.255463,-0.339898,9.706917,-0.033118,-4.844692,0,0,,38.991381,-76.936744,-9.885000,,,
2026-09-11T18:25:21.347,4.778597,0.008298,0.011719,0.076838,0.000000,-44.490498,15.306364,0.008004,0.004092,0.008615,0.003437,0.011679,0.001663,-0.000830,0.003078,0.010099,0.290767,-0.295867,9.691814,-0.031170,-4.847037,0,0,,38.991381,-76.936744,-9.885000,,,
2026-09-11T18:25:21.382,4.812002,-0.000000,0.011569,-0.000000,0.000000,-44.490498,15.306364,-0.000000,0.004973,0.010470,0.003756,0.011812,0.001815,0.016764,-0.000040,0.011953,0.408055,-0.304595,9.695050,-0.033850,-4.849918,0,0,,38.991381,-76.936744,-9.885000,,,
2026-09-11T18:25:21.415,4.845465,0.009804,0.011815,0.090776,0.000000,-44.490498,15.306364,0.009456,0.005820,0.012253,0.004136,0.011970,0.001996,0.030098,-0.002318,0.013736,0.499649,-0.283706,9.668573,-0.041698,-4.851425,0,0,,38.991381,-76.936744,-9.885000,,,
2026-09-11T18:25:21.448,4.878880,0.009804,0.012144,0.090776,0.000000,-44.490498,15.306364,0.009456,0.006373,0.013416,0.004565,0.012285,0.002201,0.039676,-0.001118,0.014900,0.563000,-0.305673,9.668965,-0.035240,-4.854335,0,1,4.870522,38.991380,-76.936744,-9.886000,0.150956,-0.091365,4.812634
2026-09-11T18:25:21.481,4.912290,0.009804,0.012468,0.090776,0.000000,-44.490498,15.306364,0.009456,0.007432,0.015647,0.005050,0.012600,0.002433,0.042960,-0.001542,0.017130,0.577808,-0.214177,9.682694,-0.007387,-4.851294,0,0,,38.991380,-76.936744,-9.886000,,,
2026-09-11T18:25:21.514,4.945697,0.211863,0.016233,1.961695,0.000000,-44.490498,15.306364,0.204348,0.010122,0.021309,0.005667,0.016169,0.002747,0.033257,-0.004825,0.022793,0.573983,-0.074236,9.642487,0.019282,-4.839504,0,0,,38.991380,-76.936744,-9.886000,,,
2026-09-11T18:25:21.549,4.979116,0.201079,0.027034,1.861839,0.000000,-44.423894,15.283450,0.193967,0.014118,0.029722,0.006520,0.022822,0.003192,0.035166,0.001148,0.031206,0.432179,-0.767272,9.819595,0.023746,-4.872788,0,0,,38.991380,-76.936744,-9.886000,,,
2026-09-11T18:25:21.582,5.012540,0.035860,0.026983,0.332035,0.000000,-44.423894,15.283450,0.034592,0.015364,0.032345,0.007557,0.026638,0.003710,0.019073,-0.000917,0.033828,0.264289,-0.196035,9.787527,0.015461,-4.868430,0,0,,38.991380,-76.936744,-9.886000,,,
2026-09-11T18:25:21.614,5.045943,0.035860,0.028162,0.332035,0.000000,-44.423894,15.283450,0.034592,0.015775,0.033211,0.008652,0.027790,0.004240,-0.000582,0.002379,0.034695,0.378046,-0.128663,9.659158,0.012294,-4.859766,0,0,,38.991380,-76.936744,-9.886000,,,
2026-09-11T18:25:21.648,5.079352,0.232251,0.032653,2.150477,0.000000,-44.423894,15.283450,0.224038,0.014925,0.031422,0.009732,0.032105,0.004794,-0.022273,-0.000568,0.032905,0.453754,-0.166223,9.647292,0.013555,-4.854007,0,0,,38.991380,-76.936744,-9.886000,,,
2026-09-11T18:25:21.682,5.112757,0.214197,0.042747,1.983308,0.000000,-44.423894,15.283450,0.206622,0.019124,0.040261,0.010929,0.039292,0.005437,-0.053612,0.002870,0.041745,0.415508,-0.372947,9.772425,0.013546,-4.861771,0,0,,38.991380,-76.936744,-9.886000,,,
2026-09-11T18:25:21.716,5.146166,0.069545,0.043510,0.643933,0.000000,-44.423894,15.283450,0.067085,0.019551,0.041160,0.012289,0.043856,0.006134,-0.079564,0.001612,0.042643,0.234183,-0.395796,9.568937,0.002446,-4.870568,0,0,,38.991380,-76.936744,-9.886000,,,
2026-09-11T18:25:21.749,5.179589,0.069545,0.045849,0.643933,0.000000,-44.379949,15.268331,0.067090,0.020443,0.043038,0.013696,0.046089,0.006832,-0.085667,0.001622,0.044521,0.146217,-0.196133,9.791842,-0.004600,-4.866355,0,0,,38.991380,-76.936744,-9.886000,,,
2026-09-11T18:25:21.781,5.212999,0.225138,0.053569,2.084608,0.000000,-44.379949,15.268331,0.217191,0.018813,0.039607,0.015077,0.050828,0.007558,-0.102465,-0.001001,0.041090,0.269487,-0.327248,9.804198,0.006059,-4.871044,0,0,,38.991380,-76.936744,-9.886000,,,
2026-09-11T18:25:21.815,5.246402,0.117296,0.058239,1.086075,0.000000,-44.379949,15.268331,0.113156,0.023974,0.050472,0.016582,0.056334,0.008358,-0.099521,0.002020,0.051956,0.050897,0.068058,9.708289,-0.003074,-4.849920,0,0,,38.991380,-76.936744,-9.886000,,,
2026-09-11T18:25:21.849,5.279809,0.117296,0.062168,1.086075,0.000000,-44.379949,15.268331,0.113156,0.018369,0.038672,0.018071,0.060101,0.009131,-0.064179,0.000951,0.040156,0.136018,-0.525342,9.765560,-0.012174,-4.867334,0,0,,38.991380,-76.936744,-9.886000,,,
2026-09-11T18:25:21.883,5.313233,0.126918,0.066294,1.175166,0.000000,-44.446553,15.291245,0.122425,0.014842,0.031246,0.019239,0.064027,0.009759,-0.037315,-0.004634,0.032730,0.330680,-0.553487,9.709662,-0.001005,-4.886350,0,0,,38.991380,-76.936744,-9.886000,,,
2026-09-11T18:25:21.916,5.346644,0.126918,0.070530,1.175166,0.000000,-44.446553,15.291245,0.122425,0.020352,0.042846,0.020477,0.068105,0.010428,-0.006669,-0.003802,0.044329,-0.060409,-0.577416,9.734767,-0.008813,-4.906789,0,0,,38.991380,-76.936744,-9.886000,,,
2026-09-11T18:25:21.948,5.380050,0.117199,0.074457,1.085178,0.000000,-44.750050,15.395660,0.112994,0.017776,0.037423,0.021817,0.072023,0.011148,0.029900,-0.003445,0.038906,-0.122779,-0.537699,9.720548,-0.025363,-4.924363,0,0,,38.991380,-76.936744,-9.886000,,,
2026-09-11T18:25:21.982,5.413459,0.117199,0.078369,1.085178,0.000000,-46.849812,16.118055,0.112592,0.021000,0.044210,0.023181,0.075775,0.011880,0.075654,-0.007240,0.045693,0.404230,-0.242518,9.672691,-0.011324,-4.922692,0,0,,38.991380,-76.936744,-9.886000,,,
2026-09-11T18:25:22.016,5.446862,0.166297,0.083919,1.539788,0.000000,-50.247334,17.286927,0.158785,0.021761,0.045813,0.024685,0.080290,0.012703,0.096813,-0.002645,0.047296,-0.109442,-0.405897,9.576880,-0.020963,-4.931759,0,0,,38.991380,-76.936744,-9.886000,,,
2026-09-11T18:25:22.050,5.480271,0.156654,0.089490,1.450497,0.000000,-57.019032,19.616640,0.147561,0.022538,0.047448,0.026242,0.085386,0.013573,0.100033,-0.005715,0.048931,0.234281,-0.271546,9.607967,-0.010388,-4.932016,0,0,,38.991380,-76.936744,-9.886000,,,
2026-09-11T18:25:22.083,5.513720,0.079506,0.090950,0.736164,0.000000,-57.814168,19.890195,0.074763,0.025924,0.054577,0.027949,0.089081,0.014483,0.093054,-0.001725,0.056060,-0.246637,-0.217021,10.114971,-0.040557,-4.928549,0,0,,38.991380,-76.936744,-9.886000,,,
2026-09-11T18:25:22.116,5.547119,0.079506,0.093583,0.736164,0.000000,-59.151753,20.350374,0.074543,0.022541,0.047454,0.029653,0.091550,0.015364,0.066327,-0.002783,0.048938,-0.096497,0.018142,9.420562,-0.051952,-4.909878,0,0,,38.991380,-76.936744,-9.886000,,,
2026-09-11T18:25:22.149,5.580532,0.157302,0.098478,1.456501,0.000000,-60.770177,20.907171,0.146945,0.022249,0.046840,0.031228,0.095226,0.016226,0.033716,-0.006761,0.048324,0.062664,-0.339016,9.446256,-0.047163,-4.914736,0,0,,38.991380,-76.936744,-9.886000,,,
2026-09-11T18:25:22.182,5.613939,0.157302,0.103728,1.456501,0.000000,-61.883916,21.290338,0.146567,0.019235,0.040495,0.032687,0.100104,0.017075,-0.005949,-0.003449,0.041978,0.125623,-0.189759,9.722607,-0.039528,-4.909820,0,0,,38.991380,-76.936744,-9.886000,,,
2026-09-11T18:25:22.217,5.647340,0.069068,0.105598,0.639519,0.000000,-62.420873,21.475071,0.064273,0.020754,0.043693,0.034093,0.103601,0.017859,-0.016850,0.000123,0.045177,0.117974,-0.422372,9.776250,-0.047498,-4.919806,0,0,,38.991380,-76.936744,-9.886000,,,
2026-09-11T18:25:22.250,5.680765,0.069068,0.107921,0.639519,0.000000,-63.126744,21.717917,0.064165,0.019341,0.040717,0.035503,0.105723,0.018603,-0.010362,0.000963,0.042201,0.154259,-0.332053,9.684263,-0.055436,-4.923828,0,0,,38.991380,-76.936744,-9.886000,,,
2026-09-11T18:25:22.283,5.714172,0.069068,0.110209,0.639519,0.000000,-64.331120,22.132266,0.063979,0.018096,0.038097,0.036820,0.107839,0.019305,0.013178,0.000690,0.039581,0.084239,-0.167400,9.773896,-0.050847,-4.917139,0,0,,38.991380,-76.936744,-9.886000,,,
2026-09-11T18:25:22.316,5.747580,0.155665,0.115965,1.441342,0.000000,-66.700734,22.947500,0.143346,0.018727,0.039425,0.038115,0.111277,0.020051,0.026297,-0.000926,0.040909,0.113169,-0.201036,9.671907,-0.043355,-4.912908,0,0,,38.991380,-76.936744,-9.886000,,,
2026-09-11T18:25:22.350,5.780988,0.116790,0.120299,1.081388,0.000000,-69.593572,23.942743,0.106740,0.021682,0.045647,0.039536,0.115425,0.020887,0.034959,-0.004375,0.047130,0.153082,-0.347842,9.631307,-0.037230,-4.918173,0,0,,38.991380,-76.936744,-9.886000,,,
2026-09-11T18:25:22.384,5.814406,0.019602,0.120332,0.181503,0.000000,-69.825658,24.022589,0.017904,0.020356,0.042854,0.041015,0.117478,0.021671,0.033150,-0.001632,0.044337,0.193779,-0.401386,9.746633,-0.023878,-4.926580,0,0,,38.991380,-76.936744,-9.886000,,,
2026-09-11T18:25:22.417,5.847818,0.029321,0.121491,0.271492,0.000000,-70.508870,24.257639,0.026732,0.018087,0.038078,0.042367,0.118196,0.022344,0.032155,-0.000015,0.039561,0.050308,-0.294592,9.703484,-0.015309,-4.927999,0,0,,38.991380,-76.936744,-9.886000,,,
2026-09-11T18:25:22.450,5.881225,0.029321,0.122466,0.271492,0.000000,-71.168736,24.484657,0.026684,0.018534,0.039019,0.043655,0.119061,0.022994,0.025465,-0.001864,0.040502,0.047955,-0.210353,9.691030,-0.012322,-4.923952,0,1,5.874792,38.991380,-76.936743,-9.983000,0.224850,-0.158453,4.729014
2026-09-11T18:25:22.483,5.914633,0.274811,0.131143,2.544544,0.000000,-71.516866,24.604426,0.249859,0.014775,0.031104,0.044826,0.123651,0.023756,0.026757,0.000198,0.032588,0.099047,-0.300868,9.698973,-0.027352,-4.926243,0,0,,38.991380,-76.936743,-9.983000,,,
2026-09-11T18:25:22.518,5.948042,0.120515,0.136015,1.115879,0.000000,-71.516866,24.604426,0.109573,0.012625,0.026578,0.045789,0.129629,0.024484,0.028034,0.000083,0.028062,0.164065,-0.200350,9.735258,-0.040769,-4.921689,0,0,,38.991380,-76.936743,-9.983000,,,
2026-09-11T18:25:22.551,5.981467,0.024080,0.136112,0.222963,0.000000,-71.516866,24.604426,0.021894,0.014543,0.030617,0.046745,0.131803,0.025039,0.025361,-0.001366,0.032100,0.183679,-0.251541,9.649351,-0.031540,-4.920353,0,0,,38.991380,-76.936743,-9.983000,,,
2026-09-11T18:25:22.583,6.014874,0.009643,0.136228,0.089292,0.000000,-71.516866,24.604426,0.008768,0.013614,0.028660,0.047735,0.132292,0.025533,0.032547,-0.000322,0.030144,0.134743,-0.161417,9.751733,-0.019519,-4.913173,0,0,,38.991380,-76.936743,-9.983000,,,
2026-09-11T18:25:22.617,6.048276,0.009643,0.136550,0.089292,0.000000,-71.516866,24.604426,0.008768,0.013254,0.027903,0.048680,0.132563,0.025995,0.031675,-0.001965,0.029386,0.044424,-0.189759,9.748987,-0.021144,-4.907908,0,0,,38.991380,-76.936743,-9.983000,,,
2026-09-11T18:25:22.650,6.081695,0.009643,0.136871,0.089292,0.000000,-71.516866,24.604426,0.008768,0.012505,0.026326,0.049586,0.132834,0.026439,0.026712,-0.003357,0.027810,-0.004805,-0.162496,9.676222,-0.031106,-4.900933,0,0,,38.991380,-76.936743,-9.983000,,,
2026-09-11T18:25:22.685,6.115103,0.009643,0.137193,0.089292,0.000000,-71.516866,24.604426,0.008768,0.010050,0.021158,0.050379,0.133108,0.026830,0.025559,-0.002050,0.022641,-0.039129,-0.273017,9.650038,-0.042609,-4.901185,0,0,,38.991380,-76.936743,-9.983000,,,
2026-09-11T18:25:22.719,6.148522,0.009643,0.137517,0.089292,0.000000,-71.516866,24.604426,0.008768,0.008085,0.017021,0.051017,0.133386,0.027148,0.017474,-0.002419,0.018505,-0.081493,-0.175441,9.715350,-0.042328,-4.895117,0,0,,38.991380,-76.936743,-9.983000,,,
2026-09-11T18:25:22.751,6.181943,0.281772,0.151592,2.609004,0.000000,-71.516866,24.604426,0.256189,0.008914,0.018767,0.051615,0.137793,0.027660,0.008407,-0.001394,0.020250,-0.050112,-0.195643,9.692108,-0.034680,-4.890724,0,0,,38.991380,-76.936743,-9.983000,,,
2026-09-11T18:25:22.785,6.215498,0.056286,0.151672,0.521164,0.000000,-71.516866,24.604426,0.051175,0.004741,0.009981,0.052098,0.142931,0.028155,0.005959,-0.000665,0.011465,-0.012749,-0.248599,9.692305,-0.039462,-4.889526,0,0,,38.991380,-76.936743,-9.983000,,,
2026-09-11T18:25:22.817,6.248901,0.007267,0.151592,0.067285,0.000000,-71.516866,24.604426,0.006607,0.004047,0.008519,0.052407,0.143887,0.028352,-0.003970,-0.000765,0.010002,-0.045405,-0.121995,9.691814,-0.052744,-4.880126,0,0,,38.991380,-76.936743,-9.983000,,,
2026-09-11T18:25:22.851,6.282310,-0.000000,0.151566,-0.000000,0.000000,-71.516866,24.604426,-0.000000,0.001813,0.003816,0.052613,0.143992,0.028455,-0.015092,0.001294,0.005300,0.022751,-0.201919,9.702209,-0.062319,-4.875996,0,0,,38.991380,-76.936743,-9.983000,,,
2026-09-11T18:25:22.885,6.315730,-0.000000,0.151566,-0.000000,0.000000,-71.516866,24.604426,-0.000000,0.001808,0.003806,0.052740,0.143989,0.028516,-0.021275,-0.001911,0.005290,0.038246,-0.166321,9.690637,-0.070789,-4.869607,0,0,,38.991380,-76.936743,-9.983000,,,
2026-09-11T18:25:22.918,6.349148,-0.000000,0.151566,-0.000000,0.000000,-71.516866,24.604426,-0.000000,0.000986,0.002076,0.052838,0.143986,0.028562,-0.019531,-0.001635,0.003560,0.083062,-0.225651,9.717704,-0.061976,-4.867129,0,0,,38.991380,-76.936743,-9.983000,,,
2026-09-11T18:25:22.951,6.382556,-0.000000,0.151566,-0.000000,0.000000,-71.516866,24.604426,-0.000000,-0.000685,-0.001443,0.052849,0.143986,0.028567,-0.016331,0.000724,0.000041,0.110521,-0.188092,9.706917,-0.049061,-4.862249,0,0,,38.991380,-76.936743,-9.983000,,,
2026-09-11T18:25:22.984,6.415964,-0.000000,0.151566,-0.000000,0.000000,-71.551885,24.616474,-0.000000,-0.000633,-0.001332,0.052803,0.143987,0.028545,-0.018125,0.000123,0.000152,0.141510,-0.186915,9.709172,-0.031861,-4.857346,0,0,,38.991380,-76.936743,-9.983000,,,
2026-09-11T18:25:23.019,6.449369,-0.000000,0.151566,-0.000000,0.000000,-71.683034,24.661594,-0.000000,-0.000197,-0.000414,0.052773,0.143988,0.028531,-0.027779,-0.000601,0.001070,0.044620,-0.162398,9.687303,-0.020809,-4.850913,0,0,,38.991380,-76.936743,-9.983000,,,
2026-09-11T18:25:23.053,6.482790,-0.000000,0.151566,-0.000000,0.000000,-71.759251,24.687816,-0.000000,-0.003115,-0.006558,0.052657,0.143991,0.028476,-0.039087,0.001792,-0.005074,-0.037461,-0.285374,9.703190,-0.032041,-4.852507,0,0,,38.991380,-76.936743,-9.983000,,,
2026-09-11T18:25:23.085,6.516212,-0.000000,0.151566,-0.000000,0.000000,-71.880788,24.729629,-0.000000,-0.003513,-0.007395,0.052424,0.143997,0.028366,-0.051550,0.001210,-0.005912,-0.085416,-0.262524,9.699365,-0.049555,-4.852605,0,0,,38.991380,-76.936743,-9.983000,,,
2026-09-11T18:25:23.118,6.549618,-0.000000,0.151566,-0.000000,0.000000,-72.060689,24.791521,-0.000000,-0.005257,-0.011067,0.052115,0.144004,0.028219,-0.058272,0.001588,-0.009584,-0.027753,-0.294690,9.704367,-0.063564,-4.854783,0,0,,38.991380,-76.936743,-9.983000,,,
2026-09-11T18:25:23.153,6.583024,-0.000000,0.151566,-0.000000,0.000000,-72.239903,24.853178,-0.000000,-0.007654,-0.016114,0.051661,0.144015,0.028004,-0.060347,0.002968,-0.014630,0.090712,-0.299691,9.729276,-0.069754,-4.857260,0,0,,38.991380,-76.936743,-9.983000,,,
2026-09-11T18:25:23.186,6.616444,-0.244005,0.136261,-2.259310,0.000000,-72.453450,24.926646,-0.221276,-0.008434,-0.017755,0.051095,0.140337,0.027547,-0.063914,0.000803,-0.016272,0.206528,-0.224768,9.668867,-0.068384,-4.855115,0,0,,38.991380,-76.936743,-9.983000,,,
2026-09-11T18:25:23.218,6.649863,-0.041492,0.136213,-0.384186,0.000000,-72.800893,25.046179,-0.037590,-0.006399,-0.013472,0.050574,0.136029,0.027078,-0.056891,0.001751,-0.011988,0.281451,-0.182502,9.723980,-0.062180,-4.850038,0,0,,38.991380,-76.936743,-9.983000,,,
2026-09-11T18:25:23.252,6.683283,-0.012562,0.136220,-0.116311,0.000000,-73.248586,25.200201,-0.011366,-0.004196,-0.008833,0.050201,0.135221,0.026860,-0.040518,0.003414,-0.007349,0.360394,-0.370103,9.687990,-0.050936,-4.857132,0,0,,38.991380,-76.936743,-9.983000,,,
2026-09-11T18:25:23.285,6.716688,-0.000000,0.136394,-0.000000,0.000000,-73.541783,25.301072,-0.000000,-0.004304,-0.009061,0.049902,0.135039,0.026709,-0.036809,0.002191,-0.007578,0.380596,-0.298122,9.692599,-0.038514,-4.859482,0,0,,38.991380,-76.936743,-9.983000,,,
2026-09-11T18:25:23.320,6.750103,-0.000000,0.136394,-0.000000,0.000000,-73.670186,25.345247,-0.000000,-0.002921,-0.006149,0.049648,0.135045,0.026589,-0.024137,0.001642,-0.004666,0.425707,-0.291944,9.675241,-0.023308,-4.861406,0,0,,38.991380,-76.936743,-9.983000,,,
2026-09-11T18:25:23.353,6.783527,-0.000000,0.136394,-0.000000,0.000000,-73.670186,25.345247,-0.000000,-0.002233,-0.004702,0.049467,0.135049,0.026502,-0.007049,-0.000467,-0.003218,0.433454,-0.309204,9.685636,-0.007764,-4.864427,0,0,,38.991380,-76.936743,-9.983000,,,
2026-09-11T18:25:23.385,6.816939,-0.000000,0.136394,-0.000000,0.000000,-73.670186,25.345247,-0.000000,-0.000933,-0.001964,0.049355,0.135051,0.026450,-0.000727,-0.000273,-0.000481,0.353824,-0.262132,9.682596,0.002450,-4.864367,0,0,,38.991380,-76.936743,-9.983000,,,
2026-09-11T18:25:23.419,6.850345,-0.000000,0.136394,-0.000000,0.000000,-73.670186,25.345247,-0.000000,0.000301,0.000633,0.049333,0.135052,0.026439,0.007856,0.000110,0.002117,0.286256,-0.366376,9.720057,-0.006103,-4.871053,0,0,,38.991380,-76.936743,-9.983000,,,
2026-09-11T18:25:23.452,6.883753,-0.000000,0.136394,-0.000000,0.000000,-73.670186,25.345247,-0.000000,0.000992,0.002088,0.049378,0.135051,0.026461,0.014925,-0.001466,0.003571,0.167596,-0.309008,9.717115,-0.024667,-4.873953,0,1,6.872576,38.991379,-76.936743,-9.975000,0.224129,-0.206081,4.705718
2026-09-11T18:25:23.487,6.917175,-0.000000,0.136394,-0.000000,0.000000,-73.670186,25.345247,-0.000000,0.000837,0.001762,0.049443,0.135049,0.026491,0.011611,-0.000963,0.003245,0.141314,-0.349607,9.680439,-0.031176,-4.879450,0,0,,38.991379,-76.936743,-9.975000,,,
2026-09-11T18:25:23.520,6.950593,-0.000000,0.136394,-0.000000,0.000000,-73.670186,25.345247,-0.000000,0.000014,0.000029,0.049473,0.135049,0.026505,0.007288,0.000546,0.001513,0.130625,-0.310871,9.687009,-0.035879,-4.882378,0,0,,38.991379,-76.936743,-9.975000,,,
2026-09-11T18:25:23.553,6.984006,-0.000000,0.136394,-0.000000,0.000000,-73.670186,25.345247,-0.000000,0.001227,0.002584,0.049516,0.135048,0.026526,-0.000478,-0.000708,0.004067,0.196525,-0.334113,9.690147,-0.035530,-4.886778,0,0,,38.991379,-76.936743,-9.975000,,,
2026-09-11T18:25:23.586,7.017415,-0.000000,0.136394,-0.000000,0.000000,-73.670186,25.345247,-0.000000,0.000695,0.001464,0.049584,0.135046,0.026558,-0.006372,0.000686,0.002947,0.274782,-0.280568,9.707211,-0.049966,-4.887664,0,0,,38.991379,-76.936743,-9.975000,,,
2026-09-11T18:25:23.620,7.050821,-0.000000,0.136394,-0.000000,0.000000,-73.670186,25.345247,-0.000000,0.002178,0.004585,0.049685,0.135044,0.026606,-0.010497,0.001095,0.006068,0.261641,-0.300672,9.707603,-0.069493,-4.889840,0,0,,38.991379,-76.936743,-9.975000,,,
2026-09-11T18:25:23.654,7.084240,-0.000000,0.136394,-0.000000,0.000000,-73.670186,25.345247,-0.000000,0.002452,0.005162,0.049848,0.135040,0.026683,-0.008211,-0.001167,0.006645,0.252619,-0.318324,9.704661,-0.070522,-4.893136,0,0,,38.991379,-76.936743,-9.975000,,,
2026-09-11T18:25:23.687,7.117658,-0.000000,0.136394,-0.000000,0.000000,-73.670186,25.345247,-0.000000,0.003003,0.006321,0.050040,0.135035,0.026774,-0.003045,0.000826,0.007805,0.246931,-0.287825,9.687205,-0.067504,-4.894421,0,0,,38.991379,-76.936743,-9.975000,,,
2026-09-11T18:25:23.719,7.151062,-0.000000,0.136394,-0.000000,0.000000,-73.788976,25.386115,-0.000000,0.002996,0.006306,0.050251,0.135030,0.026874,0.004457,0.000939,0.007790,0.253404,-0.365788,9.687401,-0.063127,-4.900736,0,0,,38.991379,-76.936743,-9.975000,,,
2026-09-11T18:25:23.753,7.184470,-0.000000,0.136394,-0.000000,0.000000,-73.802022,25.390604,-0.000000,0.003879,0.008166,0.050492,0.135024,0.026989,0.010558,-0.001669,0.009649,0.219277,-0.325090,9.713683,-0.061005,-4.904348,0,0,,38.991379,-76.936743,-9.975000,,,
2026-09-11T18:25:23.787,7.217870,-0.000000,0.136394,-0.000000,0.000000,-73.802022,25.390604,-0.000000,0.003769,0.007935,0.050761,0.135018,0.027117,0.014928,0.000252,0.009418,0.179560,-0.309988,9.700052,-0.061476,-4.906942,0,0,,38.991379,-76.936743,-9.975000,,,
2026-09-11T18:25:23.821,7.251279,-0.000000,0.136394,-0.000000,0.000000,-73.802022,25.390604,-0.000000,0.003060,0.006443,0.051001,0.135012,0.027231,0.010024,-0.002067,0.007926,0.154651,-0.355197,9.657785,-0.064110,-4.912433,0,0,,38.991379,-76.936743,-9.975000,,,
2026-09-11T18:25:23.854,7.284686,0.340359,0.150348,3.151475,0.000000,-73.937291,25.437141,0.307364,0.004368,0.009196,0.051263,0.140133,0.027618,0.008938,-0.000837,0.010680,0.188680,-0.282432,9.712016,-0.065068,-4.913338,0,0,,38.991379,-76.936743,-9.975000,,,
2026-09-11T18:25:23.886,7.318093,0.075657,0.151617,0.700532,0.000000,-74.522313,25.638410,0.068208,0.004131,0.008698,0.051562,0.146391,0.028081,0.018496,0.001053,0.010181,0.241538,-0.258111,9.704269,-0.062596,-4.912515,0,0,,38.991379,-76.936743,-9.975000,,,
2026-09-11T18:25:23.920,7.351497,0.016835,0.151700,0.155878,0.000000,-75.724629,26.052051,0.015124,0.006390,0.013452,0.051932,0.147772,0.028328,0.022923,0.001121,0.014936,0.286943,-0.238596,9.672397,-0.057215,-4.910413,0,0,,38.991379,-76.936743,-9.975000,,,
2026-09-11T18:25:23.953,7.384903,-0.000000,0.151566,-0.000000,0.000000,-78.861226,27.131156,-0.000000,0.008990,0.018927,0.052472,0.148011,0.028598,0.014309,-0.001526,0.020410,0.278607,-0.230849,9.702700,-0.069350,-4.907820,0,0,,38.991379,-76.936743,-9.975000,,,
2026-09-11T18:25:23.987,7.418308,-0.000000,0.151566,-0.000000,0.000000,-82.898702,28.520195,-0.000000,0.009694,0.020408,0.053129,0.147994,0.028910,0.010205,-0.000249,0.021891,0.219767,-0.204959,9.682008,-0.090492,-4.903581,0,0,,38.991379,-76.936743,-9.975000,,,
2026-09-11T18:25:24.021,7.451725,-0.000000,0.151566,-0.000000,0.000000,-82.986592,28.550433,-0.000000,0.009443,0.019880,0.053802,0.147977,0.029229,-0.004424,-0.002873,0.021363,0.223297,-0.389324,9.737906,-0.097389,-4.911320,0,0,,38.991379,-76.936743,-9.975000,,,
2026-09-11T18:25:24.054,7.485138,-0.000000,0.151566,-0.000000,0.000000,-83.030537,28.565552,-0.000000,0.006892,0.014509,0.054377,0.147962,0.029502,-0.001911,-0.001157,0.015992,0.182109,-0.329896,9.755263,-0.117462,-4.915126,0,0,,38.991379,-76.936743,-9.975000,,,
2026-09-11T18:25:24.087,7.518549,0.009804,0.151903,0.090776,0.000000,-83.030537,28.565552,0.008610,0.006750,0.014211,0.054857,0.148094,0.029737,0.005882,0.001368,0.015694,0.244774,-0.256248,9.652784,-0.118002,-4.914132,0,0,,38.991379,-76.936743,-9.975000,,,
2026-09-11T18:25:24.120,7.551956,0.009804,0.152230,0.090776,0.000000,-83.030537,28.565552,0.008610,0.008525,0.017947,0.055394,0.148367,0.030008,0.011070,0.000591,0.019430,0.346077,-0.228985,9.709859,-0.098777,-4.911387,0,0,,38.991379,-76.936743,-9.975000,,,
2026-09-11T18:25:24.154,7.585499,0.009804,0.152558,0.090776,0.000000,-83.056630,28.574529,0.008610,0.011475,0.024157,0.056100,0.148636,0.030359,0.020930,-0.000346,0.025641,0.558391,-0.177598,9.685538,-0.089817,-4.905327,0,0,,38.991379,-76.936743,-9.975000,,,
2026-09-11T18:25:24.188,7.618911,0.009804,0.152887,0.090776,0.000000,-83.162373,28.610908,0.008607,0.013245,0.027884,0.056969,0.148900,0.030787,0.041421,-0.009916,0.029368,1.506596,-0.537404,9.263754,-0.031710,-4.922644,0,0,,38.991379,-76.936743,-9.975000,,,
2026-09-11T18:25:24.222,7.652339,0.308082,0.163245,2.852610,0.000000,-82.919988,28.527519,0.270677,0.033331,0.070170,0.058608,0.153515,0.031837,0.072177,0.002547,0.071653,-0.165536,0.344606,9.320142,-0.083465,-4.883887,0,0,,38.991379,-76.936743,-9.975000,,,
2026-09-11T18:25:24.255,7.685760,0.103988,0.167003,0.962851,0.000000,-83.107442,28.592010,0.091307,0.028191,0.059349,0.060773,0.159492,0.033221,0.096306,-0.001012,0.060833,0.903291,-0.609974,10.411328,-0.067168,-4.906478,0,0,,38.991379,-76.936743,-9.975000,,,
2026-09-11T18:25:24.288,7.719159,0.065113,0.168560,0.602897,0.000000,-83.294209,28.656265,0.057137,0.031443,0.066196,0.062869,0.161905,0.034368,0.101509,-0.000014,0.067680,0.475623,-0.247128,9.241591,-0.080960,-4.905227,0,0,,38.991379,-76.936743,-9.975000,,,
2026-09-11T18:25:24.321,7.752567,0.290963,0.176747,2.694106,0.000000,-83.294209,28.656265,0.255324,0.038775,0.081632,0.065339,0.167038,0.035877,0.093013,-0.000321,0.083116,0.756289,-0.192897,9.578449,-0.074260,-4.901584,0,0,,38.991379,-76.936743,-9.975000,,,
2026-09-11T18:25:24.356,7.785991,0.146311,0.182847,1.354732,0.000000,-83.716496,28.801547,0.128211,0.041888,0.088185,0.068177,0.173343,0.037646,0.110804,0.004952,0.089669,0.396483,0.074825,9.605418,-0.091485,-4.880032,0,0,,38.991379,-76.936743,-9.975000,,,
2026-09-11T18:25:24.389,7.819399,0.136668,0.187032,1.265440,0.000000,-84.242467,28.982500,0.119552,0.049838,0.104922,0.071402,0.177365,0.039463,0.113111,0.006613,0.106406,0.538287,0.114149,9.628856,-0.099363,-4.856265,0,0,,38.991379,-76.936743,-9.975000,,,
2026-09-11T18:25:24.421,7.852820,0.233913,0.195810,2.165862,0.000000,-84.656514,29.124947,0.204337,0.053481,0.112591,0.075037,0.182636,0.041584,0.096552,0.007168,0.114075,0.847295,0.121701,9.186576,-0.087727,-4.832940,0,0,,38.991379,-76.936743,-9.975000,,,
2026-09-11T18:25:24.455,7.886225,0.273128,0.205355,2.528964,0.000000,-84.788350,29.170304,0.238489,0.057037,0.120078,0.078923,0.189868,0.043994,0.083916,-0.001001,0.121562,0.946048,0.491509,9.722705,-0.055130,-4.786325,0,1,7.867125,38.991379,-76.936743,-10.031000,0.255963,-0.271501,8.216185
2026-09-11T18:25:24.489,7.919623,0.234641,0.212536,2.172598,0.000000,-84.788350,29.170304,0.204882,0.064276,0.135318,0.083188,0.197084,0.046611,0.085311,0.000786,0.136801,0.629783,0.302535,9.825773,-0.039116,-4.752400,0,0,,38.991379,-76.936743,-10.031000,,,
2026-09-11T18:25:24.522,7.953046,0.303075,0.222865,2.806252,0.000000,-84.788350,29.170304,0.264638,0.071785,0.151125,0.087975,0.204707,0.049550,0.063964,-0.010198,0.152609,0.170734,-0.379615,9.277974,-0.067253,-4.763775,0,0,,38.991379,-76.936743,-10.031000,,,
2026-09-11T18:25:24.555,7.986680,0.274145,0.232094,2.538378,0.000000,-84.633855,29.117152,0.239500,0.068175,0.143527,0.092930,0.212937,0.052659,0.048876,0.004259,0.145010,0.328425,-0.642728,9.317200,-0.074348,-4.791865,0,0,,38.991379,-76.936743,-10.031000,,,
2026-09-11T18:25:24.588,8.020085,0.274145,0.241239,2.538378,0.000000,-84.563130,29.092820,0.239557,0.070363,0.148133,0.097801,0.220682,0.055724,0.024181,0.004858,0.149616,0.850335,0.542896,9.554423,-0.044283,-4.742824,0,0,,38.991379,-76.936743,-10.031000,,,
2026-09-11T18:25:24.622,8.053491,0.293752,0.251225,2.719929,0.000000,-84.324864,29.010848,0.256895,0.064612,0.136025,0.102548,0.228708,0.058797,0.027711,0.004634,0.137508,0.083945,0.753151,9.545695,-0.077395,-4.680687,0,0,,38.991379,-76.936743,-10.031000,,,
2026-09-11T18:25:24.656,8.086898,0.274315,0.260578,2.539952,0.000000,-84.282292,28.996201,0.239930,0.070458,0.148333,0.107297,0.236724,0.061909,0.037246,0.018473,0.149817,-0.363533,-0.470621,9.806650,-0.138139,-4.698453,0,0,,38.991379,-76.936743,-10.031000,,,
2026-09-11T18:25:24.690,8.120315,0.303774,0.270640,2.812718,0.000000,-84.348897,29.019116,0.265637,0.072322,0.152256,0.112320,0.244859,0.065207,0.021918,-0.005588,0.153740,0.234183,-1.057941,9.198442,-0.155352,-4.754351,1,0,,38.991379,-76.936743,-10.031000,,,
2026-09-11T18:25:24.723,8.153740,0.313417,0.281161,2.902010,0.000000,-84.348897,29.019116,0.274070,0.070163,0.147712,0.117333,0.253546,0.068607,0.033526,-0.009717,0.149195,0.247912,0.558195,9.507940,-0.175573,-4.705030,1,0,,38.991379,-76.936743,-10.031000,,,
2026-09-11T18:25:24.756,8.187160,0.323221,0.291578,2.992785,0.000000,-84.150456,28.950845,0.282830,0.070088,0.147554,0.122267,0.262505,0.072046,0.019220,0.009641,0.149038,0.384028,-0.563686,10.693662,-0.188800,-4.728955,1,0,,38.991379,-76.936743,-10.031000,,,
2026-09-11T18:25:24.789,8.220563,0.323221,0.302555,2.992785,0.000000,-83.838719,28.843596,0.283122,0.077067,0.162246,0.127441,0.271578,0.075662,-0.005099,0.000404,0.163729,-0.013631,0.083160,9.655628,-0.230515,-4.711030,1,0,,38.991379,-76.936743,-10.031000,,,
2026-09-11T18:25:24.823,8.253973,0.323221,0.313297,2.992785,0.000000,-83.232411,28.635004,0.283688,0.080849,0.170208,0.132995,0.280623,0.079507,0.010757,0.007560,0.171692,1.146790,-0.187895,10.841546,-0.203451,-4.710991,1,0,,38.991379,-76.936743,-10.031000,,,
2026-09-11T18:25:24.857,8.287383,0.342684,0.324894,3.172999,0.000000,-82.715367,28.457122,0.301279,0.079367,0.167088,0.138629,0.289943,0.083482,0.006607,0.005724,0.168571,0.848079,0.526715,8.998876,-0.199447,-4.664847,1,0,,38.991379,-76.936743,-10.031000,,,
2026-09-11T18:25:24.890,8.320803,0.401190,0.337908,3.714719,0.000000,-82.052754,28.229159,0.353473,0.085430,0.179853,0.144427,0.300385,0.087754,0.017015,0.002979,0.181336,1.532289,0.970956,9.382218,-0.156882,-4.591308,1,0,,38.991379,-76.936743,-10.031000,,,
2026-09-11T18:25:24.923,8.354206,0.410812,0.351906,3.803811,0.000000,-81.336583,27.982769,0.362783,0.093708,0.197280,0.150725,0.311777,0.092473,0.029897,0.006232,0.198764,1.699787,0.650181,10.292472,-0.107784,-4.539888,1,0,,38.991379,-76.936743,-10.031000,,,
2026-09-11T18:25:24.957,8.387608,0.459607,0.367727,4.255620,0.000000,-80.099248,27.557081,0.407465,0.102888,0.216607,0.157638,0.323983,0.097695,0.039734,0.007996,0.218091,0.474838,-0.368044,10.133408,-0.139116,-4.555981,1,0,,38.991379,-76.936743,-10.031000,,,
2026-09-11T18:25:24.991,8.421031,0.479137,0.383679,4.436455,0.000000,-78.725957,27.084618,0.426593,0.100931,0.212487,0.164809,0.337194,0.103296,0.025713,-0.002394,0.213970,0.595166,0.562509,10.342486,-0.164849,-4.511832,1,0,,38.991379,-76.936743,-10.031000,,,
2026-09-11T18:25:25.024,8.454449,0.518279,0.400994,4.798881,0.000000,-76.096105,26.179852,0.465111,0.111734,0.235230,0.172289,0.351285,0.109301,0.057156,-0.035935,0.236714,0.770999,-1.922594,7.991145,-0.180912,-4.630214,1,0,,38.991379,-76.936743,-10.031000,,,
2026-09-11T18:25:25.056,8.487852,0.557381,0.419589,5.160938,0.000000,-71.765431,24.689942,0.506426,0.115512,0.243182,0.180280,0.366593,0.115886,0.065474,-0.040742,0.244666,1.467075,-0.040894,9.061149,-0.153525,-4.626403,1,0,,38.991379,-76.936743,-10.031000,,,
2026-09-11T18:25:25.090,8.521261,0.596415,0.439222,5.522357,0.000000,-69.962300,24.069599,0.544557,0.109445,0.230411,0.188191,0.383163,0.122798,0.056363,0.008806,0.231895,1.555041,0.445516,11.374537,-0.122899,-4.591314,1,0,,38.991379,-76.936743,-10.031000,,,
2026-09-11T18:25:25.124,8.554668,0.625974,0.460032,5.796057,0.000000,-66.200856,22.775524,0.577166,0.111288,0.234290,0.195953,0.400851,0.129996,0.016125,-0.031277,0.235773,1.462073,0.894955,8.815982,-0.098049,-4.528171,1,0,,38.991379,-76.936743,-10.031000,,,
2026-09-11T18:25:25.158,8.588085,0.674833,0.482584,6.248452,0.000000,-59.184712,20.361713,0.632666,0.110874,0.233419,0.203768,0.419926,0.137651,0.020920,-0.008229,0.234903,1.085792,0.361473,10.447809,-0.096138,-4.501039,1,0,,38.991379,-76.936743,-10.031000,,,
2026-09-11T18:25:25.191,8.621507,0.684753,0.505245,6.340308,0.000000,-57.193440,19.676642,0.644769,0.110844,0.233356,0.211568,0.440050,0.145679,0.025046,-0.022024,0.234839,1.690666,-0.289002,8.789602,-0.056395,-4.516482,1,0,,38.991379,-76.936743,-10.031000,,,
2026-09-11T18:25:25.223,8.654915,0.714004,0.528967,6.611151,0.000000,-53.676442,18.466666,0.677239,0.108116,0.227614,0.219268,0.460840,0.153974,0.046205,-0.013470,0.229097,0.941929,-0.190445,11.341489,-0.064815,-4.525609,1,0,,38.991379,-76.936743,-10.031000,,,
2026-09-11T18:25:25.257,8.688317,0.733643,0.553318,6.792995,0.000000,-49.785222,17.127943,0.701106,0.096987,0.204183,0.226479,0.482533,0.162404,0.028342,-0.010240,0.205666,0.997140,0.550938,9.776936,-0.066874,-4.485969,1,0,,38.991379,-76.936743,-10.031000,,,
2026-09-11T18:25:25.290,8.721720,0.743527,0.577975,6.884505,0.000000,-44.631261,15.354792,0.716986,0.094593,0.199144,0.233216,0.504866,0.170917,0.010592,0.017495,0.200627,1.166599,-2.042823,8.974164,-0.054602,-4.614520,1,0,,38.991379,-76.936743,-10.031000,,,
2026-09-11T18:25:25.325,8.755139,0.753720,0.603383,6.978888,0.000000,-42.708653,14.693344,0.729071,0.079178,0.166690,0.239328,0.527678,0.179396,0.012420,-0.030620,0.168174,0.110717,1.427456,9.858723,-0.108716,-4.515753,1,0,,38.991379,-76.936743,-10.031000,,,
2026-09-11T18:25:25.358,8.788550,0.792674,0.629677,7.339572,0.000000,-41.202153,14.175053,0.768539,0.090867,0.191299,0.245309,0.551283,0.188159,0.028937,-0.023879,0.192782,0.763252,-1.730580,8.023703,-0.117817,-4.624077,1,0,,38.991379,-76.936743,-10.031000,,,
2026-09-11T18:25:25.390,8.821957,0.812414,0.656697,7.522350,0.000000,-39.201955,13.486911,0.790010,0.083180,0.175115,0.251429,0.575802,0.197378,0.003758,-0.056188,0.176599,0.209666,-1.867873,8.781953,-0.159090,-4.739513,1,0,,38.991379,-76.936743,-10.031000,,,
2026-09-11T18:25:25.424,8.855454,0.822484,0.684623,7.615596,0.000000,-35.104054,12.077083,0.804280,0.089226,0.187845,0.257508,0.600917,0.206895,0.106609,-0.017436,0.189328,1.178269,-1.096972,8.325650,-0.136704,-4.804798,1,0,,38.991379,-76.936743,-10.031000,,,
2026-09-11T18:25:25.458,8.888863,0.881354,0.714427,8.160689,0.000000,-33.213719,11.426738,0.863885,0.080898,0.170311,0.263491,0.627111,0.216821,0.043136,-0.014106,0.171795,0.300966,-1.769708,9.538046,-0.171119,-4.912468,1,1,8.875313,38.991378,-76.936738,-10.081000,0.643724,-0.291516,8.213952
2026-09-11T18:25:25.492,8.922284,0.872110,0.743419,8.075095,0.000000,-31.531438,10.847972,0.856526,0.066047,0.139047,0.268661,0.654202,0.226749,0.119087,0.015802,0.140531,1.527582,1.018911,9.193244,-0.127195,-4.836667,1,0,,38.991378,-76.936738,-10.081000,,,
2026-09-11T18:25:25.524,8.955689,0.891900,0.773118,8.258329,0.000000,-27.546834,9.477122,0.879726,0.063066,0.132771,0.273201,0.681567,0.236589,0.092489,0.022598,0.134255,1.302421,0.322148,11.593814,-0.103337,-4.806670,1,0,,38.991378,-76.936738,-10.081000,,,
2026-09-11T18:25:25.557,8.989091,0.892372,0.802994,8.262707,0.000000,-21.922521,7.542152,0.884652,0.044581,0.093854,0.276985,0.709438,0.246324,0.128736,0.006721,0.095337,-0.025301,-0.603697,10.159395,-0.171984,-4.834716,1,0,,38.991378,-76.936738,-10.081000,,,
2026-09-11T18:25:25.591,9.022498,0.931805,0.834411,8.627823,0.000000,-16.537160,5.689390,0.927215,0.036968,0.077828,0.279853,0.738162,0.255952,0.149213,0.002114,0.079312,0.826112,-1.163363,8.203263,-0.188387,-4.897965,1,0,,38.991378,-76.936738,-10.081000,,,
2026-09-11T18:25:25.625,9.055911,0.922604,0.865575,8.542632,0.000000,-8.518514,2.930681,0.921398,0.017249,0.036313,0.281760,0.767586,0.265381,0.174039,0.050336,0.037797,2.437149,0.564961,11.951266,-0.102082,-4.846175,1,0,,38.991378,-76.936738,-10.081000,,,
2026-09-11T18:25:25.659,9.089321,0.962106,0.896932,8.908391,0.000000,-6.525868,2.245138,0.961368,0.007743,0.016301,0.282639,0.797678,0.274541,0.124122,0.045232,0.017785,1.578478,-3.394376,11.141629,-0.073107,-5.050018,1,0,,38.991378,-76.936738,-10.081000,,,
2026-09-11T18:25:25.691,9.122732,0.981830,0.930213,9.091022,0.000000,-4.258565,1.465102,0.981509,0.000349,0.000735,0.282924,0.828808,0.283727,0.185652,0.015976,0.002219,3.443115,1.011948,9.320142,0.081592,-4.965500,1,0,,38.991378,-76.936738,-10.081000,,,
2026-09-11T18:25:25.724,9.156140,1.001262,0.963882,9.270943,0.000000,-2.370976,0.815703,1.001160,-0.004331,-0.009117,0.282784,0.860628,0.292907,0.209792,0.035561,-0.007634,1.114722,-0.354314,10.684640,0.087283,-4.969695,1,0,,38.991378,-76.936738,-10.081000,,,
2026-09-11T18:25:25.758,9.189541,1.059693,0.999461,9.811971,0.000000,-1.621159,0.557738,1.059643,-0.007671,-0.016149,0.282362,0.893736,0.302310,0.115788,0.046769,-0.014666,1.188958,-1.085106,7.907887,0.097437,-5.020605,1,0,,38.991378,-76.936738,-10.081000,,,
2026-09-11T18:25:25.793,9.222954,1.118143,1.037144,10.353180,0.000000,-1.250370,0.430173,1.118112,-0.004650,-0.009790,0.281928,0.928737,0.312242,0.120982,-0.028055,-0.008307,5.193602,2.393117,9.731923,0.367141,-4.846276,1,0,,38.991378,-76.936738,-10.081000,,,
2026-09-11T18:25:25.826,9.256375,1.186269,1.077234,10.983976,0.000000,-0.771092,0.265284,1.186257,-0.006086,-0.012813,0.281551,0.965776,0.322775,0.003295,0.018416,-0.011330,1.624472,1.091872,8.743217,0.405935,-4.757794,1,0,,38.991378,-76.936738,-10.081000,,,
2026-09-11T18:25:25.858,9.289797,1.225334,1.118073,11.345687,0.000000,1.164562,-0.400652,1.225304,-0.011765,-0.024768,0.280922,1.004576,0.333673,-0.087942,0.079384,-0.023284,1.913179,1.308697,8.725859,0.465277,-4.655278,1,0,,38.991378,-76.936738,-10.081000,,,
2026-09-11T18:25:25.892,9.323203,1.274203,1.160476,11.798174,0.000000,5.015957,-1.725673,1.273625,-0.028755,-0.060538,0.279498,1.044875,0.344566,-0.086673,-0.050266,-0.059054,0.774529,1.621039,13.322825,0.450498,-4.530720,1,0,,38.991378,-76.936738,-10.081000,,,
2026-09-11T18:25:25.925,9.356609,1.274650,1.202899,11.802312,0.000000,6.558850,-2.256485,1.273661,-0.034764,-0.073187,0.277264,1.086075,0.355237,-0.139382,0.106555,-0.071704,2.214538,0.666460,6.950856,0.531635,-4.468257,1,0,,38.991378,-76.936738,-10.081000,,,
2026-09-11T18:25:25.960,9.390020,1.265020,1.245973,11.713148,0.000000,7.411664,-2.549884,1.263767,-0.038512,-0.081079,0.274687,1.127193,0.365610,-0.191915,-0.031357,-0.079595,-1.390681,3.824594,7.684099,0.379875,-4.201563,1,0,,38.991378,-76.936738,-10.081000,,,
2026-09-11T18:25:25.993,9.423447,1.275116,1.289045,11.806634,0.000000,7.347119,-2.527679,1.273876,-0.054979,-0.115746,0.271397,1.168456,0.375543,-0.093537,-0.037374,-0.114262,-0.694507,1.255251,8.317805,0.277290,-4.101093,1,0,,38.991378,-76.936738,-10.081000,,,
2026-09-11T18:25:26.026,9.456855,1.285175,1.331909,11.899773,0.000000,7.321026,-2.518702,1.283934,-0.043090,-0.090716,0.267949,1.210074,0.385346,-0.082296,0.000246,-0.089232,1.294576,-1.794127,9.492249,0.310227,-4.201050,1,0,,38.991378,-76.936738,-10.081000,,,
2026-09-11T18:25:26.059,9.490263,1.295335,1.374708,11.993845,0.000000,7.408917,-2.548939,1.294054,-0.044410,-0.093494,0.264871,1.252003,0.395273,-0.104409,-0.027948,-0.092010,0.141706,1.881994,11.012182,0.274494,-4.061814,1,0,,38.991378,-76.936738,-10.081000,,,
2026-09-11T18:25:26.094,9.523670,1.286153,1.417632,11.908822,0.000000,7.532513,-2.591461,1.284837,-0.038292,-0.080614,0.261963,1.293952,0.405156,-0.059017,-0.081957,-0.079131,0.716670,2.123238,6.401291,0.282019,-3.909655,1,0,,38.991378,-76.936738,-10.081000,,,
2026-09-11T18:25:26.127,9.557090,1.296514,1.460607,12.004762,0.000000,7.472775,-2.570909,1.295209,-0.039423,-0.082995,0.259229,1.335944,0.415009,-0.022541,-0.072059,-0.081512,0.493471,0.271840,12.090423,0.280645,-3.878664,1,0,,38.991378,-76.936738,-10.081000,,,
2026-09-11T18:25:26.160,9.590509,1.316323,1.503769,12.188180,0.000000,7.029889,-2.418540,1.315151,-0.018974,-0.039945,0.257175,1.378366,0.425203,0.006695,-0.018003,-0.038461,0.892797,-0.517301,8.051064,0.307587,-3.902634,1,0,,38.991378,-76.936738,-10.081000,,,
2026-09-11T18:25:26.193,9.623915,1.316437,1.548369,12.189228,0.000000,6.714032,-2.309873,1.315367,-0.019340,-0.040716,0.255828,1.421028,0.435731,0.035098,-0.023682,-0.039233,1.646242,-1.621824,10.998550,0.379163,-3.997704,1,0,,38.991378,-76.936738,-10.081000,,,
2026-09-11T18:25:26.226,9.657323,1.336244,1.593213,12.372630,0.000000,6.437314,-2.214672,1.335246,-0.025757,-0.054224,0.254242,1.464062,0.446171,0.058310,-0.041257,-0.052741,1.145613,1.985160,8.626322,0.413797,-3.857196,1,0,,38.991378,-76.936738,-10.081000,,,
2026-09-11T18:25:26.259,9.690725,1.355952,1.638735,12.555114,0.000000,6.398175,-2.201207,1.354952,-0.027928,-0.058795,0.252354,1.507782,0.456562,0.021208,0.010545,-0.057312,1.127471,-2.085973,7.436677,0.443109,-3.981086,1,0,,38.991378,-76.936738,-10.081000,,,
2026-09-11T18:25:26.294,9.724135,1.365776,1.684809,12.646074,0.000000,6.429074,-2.211837,1.364758,-0.025093,-0.052828,0.250490,1.552007,0.467007,0.064168,-0.005734,-0.051345,0.804145,0.100714,8.509426,0.446163,-3.962672,1,0,,38.991378,-76.936738,-10.081000,,,
2026-09-11T18:25:26.327,9.757553,1.385219,1.731121,12.826104,0.000000,6.391308,-2.198845,1.384199,-0.026703,-0.056217,0.248668,1.596730,0.477513,0.013122,-0.012384,-0.054733,0.842195,-1.586912,12.135730,0.445426,-4.053283,1,0,,38.991378,-76.936738,-10.081000,,,
2026-09-11T18:25:26.360,9.790964,1.385397,1.777250,12.827750,0.000000,6.684506,-2.299715,1.384281,-0.041408,-0.087174,0.246272,1.641849,0.487739,0.100648,0.009797,-0.085690,1.002730,0.385696,10.390636,0.450157,-4.012490,1,0,,38.991378,-76.936738,-10.081000,,,
2026-09-11T18:25:26.393,9.824376,1.385678,1.823662,12.830351,0.000000,6.912472,-2.378144,1.384485,-0.036455,-0.076748,0.243534,1.687038,0.497692,0.169956,-0.015393,-0.075265,2.947585,2.360265,12.986456,0.578958,-3.845348,1,0,,38.991378,-76.936738,-10.081000,,,
2026-09-11T18:25:26.426,9.857789,1.395763,1.870549,12.923728,0.000000,6.956418,-2.393263,1.394545,-0.033839,-0.071241,0.241061,1.732393,0.507691,0.141369,0.013765,-0.069757,0.276057,-1.279376,8.893749,0.531928,-3.915956,1,0,,38.991378,-76.936738,-10.081000,,,
2026-09-11T18:25:26.461,9.891192,1.434742,1.918348,13.284650,0.000000,6.899426,-2.373656,1.433511,-0.038465,-0.080978,0.238519,1.778560,0.517735,0.070458,0.084785,-0.079495,-0.695782,0.100910,6.129058,0.421649,-3.895411,1,1,9.875583,38.991378,-76.936725,-10.164000,1.765235,-0.324133,8.152659
2026-09-11T18:25:26.494,9.924613,1.454288,1.967446,13.465634,0.000000,6.931012,-2.384522,1.453029,-0.029803,-0.062743,0.236118,1.825712,0.527966,0.129276,0.010786,-0.061260,3.105276,1.586618,10.519201,0.558584,-3.780558,1,0,,38.991378,-76.936725,-10.164000,,,
2026-09-11T18:25:26.527,9.958031,1.513160,2.017549,14.010745,0.000000,6.705792,-2.307039,1.511934,-0.027313,-0.057500,0.234108,1.874113,0.538578,0.066419,-0.058046,-0.056017,4.706604,5.528989,8.844716,0.799924,-3.412196,1,0,,38.991378,-76.936725,-10.164000,,,
2026-09-11T18:25:26.560,9.991441,1.552326,2.069489,14.373392,0.000000,6.780636,-2.332788,1.551040,-0.048107,-0.101279,0.231456,1.924190,0.549154,-0.019458,0.037081,-0.099795,0.405407,-0.678032,9.434684,0.766025,-3.444959,1,0,,38.991378,-76.936725,-10.164000,,,
2026-09-11T18:25:26.593,10.024849,1.610736,2.123408,14.914222,0.000000,7.323773,-2.519647,1.609179,-0.034538,-0.072711,0.228550,1.975904,0.559843,0.055728,0.142454,-0.071227,1.193175,2.880507,5.967739,0.789448,-3.249783,1,0,,38.991378,-76.936725,-10.164000,,,
2026-09-11T18:25:26.627,10.058256,1.630458,2.178238,15.096837,0.000000,8.138135,-2.799817,1.628512,-0.050103,-0.105479,0.225573,2.028914,0.570640,-0.147352,-0.094109,-0.103996,0.273998,-0.986353,10.929021,0.753005,-3.303333,1,0,,38.991378,-76.936725,-10.164000,,,
2026-09-11T18:25:26.660,10.091657,1.670082,2.233684,15.463718,0.000000,11.065991,-3.807107,1.666396,-0.066453,-0.139901,0.221475,2.083003,0.580938,-0.188632,0.087298,-0.138417,4.665220,1.954956,10.054856,1.000428,-3.162109,1,0,,38.991378,-76.936725,-10.164000,,,
2026-09-11T18:25:26.695,10.125075,1.680079,2.290947,15.556291,0.000000,16.287931,-5.603646,1.672051,-0.080621,-0.169728,0.216302,2.137987,0.590651,-0.292598,0.018701,-0.168244,2.075774,-1.241914,10.819383,1.080198,-3.225934,1,0,,38.991378,-76.936725,-10.164000,,,
2026-09-11T18:25:26.728,10.158495,1.709671,2.347960,15.830288,0.000000,17.026075,-5.857595,1.700744,-0.096485,-0.203126,0.210071,2.193697,0.599682,-0.215902,0.037728,-0.201643,0.053642,-0.489352,6.385404,1.031347,-3.236373,1,0,,38.991378,-76.936725,-10.164000,,,
2026-09-11T18:25:26.761,10.191904,1.719210,2.405415,15.918612,0.000000,15.550474,-5.349934,1.711721,-0.069604,-0.146534,0.204230,2.250053,0.608690,-0.193521,0.065251,-0.145051,-0.017064,0.818561,10.952949,0.984141,-3.168217,1,0,,38.991378,-76.936725,-10.164000,,,
2026-09-11T18:25:26.794,10.225456,1.699790,2.461778,15.738798,0.000000,12.452330,-4.284058,1.695041,-0.050740,-0.106820,0.199980,2.306446,0.618185,-0.117308,-0.027335,-0.105337,-0.674894,-1.487963,7.740585,0.903328,-3.254883,1,0,,38.991378,-76.936725,-10.164000,,,
2026-09-11T18:25:26.828,10.258860,1.651899,2.516714,15.295360,0.000000,7.411665,-2.549885,1.650263,-0.031272,-0.065835,0.197096,2.361494,0.627864,-0.122860,-0.035917,-0.064352,0.240851,2.889529,7.106193,0.890995,-3.061788,1,0,,38.991378,-76.936725,-10.164000,,,
2026-09-11T18:25:26.862,10.292273,1.623006,2.571252,15.027835,0.000000,5.299543,-1.823237,1.622185,-0.020298,-0.042733,0.195283,2.415284,0.637677,0.004832,-0.003167,-0.041250,-0.460226,2.364776,9.995624,0.837059,-2.907272,1,0,,38.991378,-76.936725,-10.164000,,,
2026-09-11T18:25:26.894,10.325720,1.652635,2.626508,15.302178,0.000000,2.982115,-1.025957,1.652370,-0.009557,-0.020121,0.194231,2.469107,0.647784,-0.102579,-0.115098,-0.018637,0.344508,5.586947,10.230101,0.840116,-2.547986,1,0,,38.991378,-76.936725,-10.164000,,,
2026-09-11T18:25:26.927,10.359125,1.643140,2.681211,15.214256,0.000000,0.190214,-0.065441,1.643139,0.008724,0.018367,0.194202,2.523118,0.658394,0.054154,-0.102035,0.019851,1.213279,6.112289,13.781285,0.902774,-2.163216,1,0,,38.991378,-76.936725,-10.164000,,,
2026-09-11T18:25:26.962,10.392534,1.662742,2.737076,15.395756,0.000000,-6.799151,2.339157,1.661356,0.038959,0.082019,0.195879,2.577116,0.669874,0.104027,-0.036126,0.083502,-2.200612,0.952716,13.651249,0.745336,-2.123295,1,0,,38.991378,-76.936725,-10.164000,,,
2026-09-11T18:25:26.995,10.425955,1.653557,2.792120,15.310716,0.000000,-6.847902,2.355930,1.652160,0.035607,0.074963,0.198502,2.631170,0.681943,0.084675,-0.061523,0.076447,1.402351,0.492980,8.332809,0.824759,-2.112752,1,0,,38.991378,-76.936725,-10.164000,,,
2026-09-11T18:25:27.028,10.459373,1.653923,2.847004,15.314106,0.000000,-6.938540,2.387112,1.652488,0.023958,0.050438,0.200598,2.685095,0.693865,0.101679,-0.009212,0.051922,1.238678,-0.642139,8.819415,0.891125,-2.173163,1,0,,38.991378,-76.936725,-10.164000,,,
2026-09-11T18:25:27.061,10.492774,1.615569,2.900729,14.958974,0.000000,-6.373430,2.192694,1.614386,0.027854,0.058639,0.202419,2.738376,0.705632,0.147837,0.006170,0.060123,1.578184,-0.348136,14.642604,0.973541,-2.214589,1,0,,38.991378,-76.936725,-10.164000,,,
2026-09-11T18:25:27.094,10.526180,1.626177,2.955189,15.057191,0.000000,-4.650637,1.599990,1.625543,0.001445,0.003042,0.203450,2.791284,0.717018,0.138844,0.039002,0.004526,2.493439,5.593223,15.672302,1.107115,-1.865402,1,0,,38.991378,-76.936725,-10.164000,,,
2026-09-11T18:25:27.129,10.559586,1.636056,3.009685,15.148668,0.000000,-4.507128,1.550617,1.635457,0.001921,0.004044,0.203568,2.844617,0.728081,0.113584,0.080721,0.005528,-1.270353,0.377850,7.298992,0.991347,-1.857582,1,0,,38.991378,-76.936725,-10.164000,,,
2026-09-11T18:25:27.163,10.593002,1.616702,3.064141,14.969462,0.000000,-4.249636,1.462031,1.616176,0.015404,0.032429,0.204177,2.897761,0.739364,0.199308,0.011896,0.033912,2.172565,1.863754,10.581376,1.095416,-1.756646,1,0,,38.991378,-76.936725,-10.164000,,,
2026-09-11T18:25:27.196,10.626422,1.626340,3.118686,15.058699,0.000000,-3.242327,1.115479,1.626031,-0.002589,-0.005450,0.204628,2.950766,0.750571,0.182429,0.030431,-0.003966,-0.706471,-0.616936,6.668032,1.006177,-1.813414,1,0,,38.991378,-76.936725,-10.164000,,,
2026-09-11T18:25:27.228,10.659826,1.626656,3.172801,15.061633,0.000000,-0.874773,0.300954,1.626634,-0.012792,-0.026930,0.204087,3.004015,0.761344,0.134857,-0.074422,-0.025447,2.401158,6.132883,10.930885,1.114590,-1.430548,1,0,,38.991378,-76.936725,-10.164000,,,
2026-09-11T18:25:27.262,10.693246,1.636759,3.228308,15.155175,0.000000,4.415831,-1.519208,1.636184,-0.025869,-0.054462,0.202727,3.057542,0.771725,0.046030,-0.067217,-0.052978,0.647729,-1.457562,10.934415,1.103284,-1.540160,1,0,,38.991378,-76.936725,-10.164000,,,
2026-09-11T18:25:27.296,10.726658,1.646925,3.283065,15.249306,0.000000,7.211851,-2.481141,1.645381,-0.048416,-0.101929,0.200115,3.111504,0.781477,0.128268,0.041439,-0.100445,-0.312734,0.622624,12.552022,1.023078,-1.508816,1,0,,38.991378,-76.936725,-10.164000,,,
2026-09-11T18:25:27.330,10.760074,1.656988,3.338248,15.342485,0.000000,9.010862,-3.100067,1.654564,-0.049116,-0.103402,0.196684,3.165880,0.790746,0.098156,0.061115,-0.101919,0.470719,-0.431296,9.417718,0.988973,-1.545815,1,0,,38.991378,-76.936725,-10.164000,,,
2026-09-11T18:25:27.363,10.793482,1.686362,3.394386,15.614464,0.000000,9.203810,-3.166448,1.683788,-0.050492,-0.106299,0.193181,3.220908,0.799914,0.107949,-0.065680,-0.104816,2.074989,2.209340,8.565913,1.057937,-1.411003,1,0,,38.991378,-76.936725,-10.164000,,,
2026-09-11T18:25:27.395,10.826888,1.725411,3.452017,15.976031,0.000000,9.474348,-3.259523,1.722620,-0.058179,-0.122483,0.189360,3.277113,0.808947,0.103488,-0.047294,-0.120999,2.030075,0.739716,11.387286,1.120692,-1.370715,1,0,,38.991378,-76.936725,-10.164000,,,
2026-09-11T18:25:27.429,10.860293,1.774449,3.510379,16.430079,0.000000,9.498381,-3.267791,1.771563,-0.053931,-0.113539,0.185418,3.334802,0.817979,-0.030313,0.037765,-0.112055,1.048723,-4.935393,12.157108,1.116601,-1.698727,1,0,,38.991378,-76.936725,-10.164000,,,
2026-09-11T18:25:27.463,10.893697,1.823401,3.571685,16.883340,0.000000,9.254621,-3.183929,1.820586,-0.051317,-0.108037,0.181717,3.394113,0.827200,-0.019660,0.048605,-0.106553,1.512872,-2.021347,11.133490,1.144366,-1.834821,1,1,10.871098,38.991378,-76.936707,-10.229000,3.363525,-0.353044,8.150611
2026-09-11T18:25:27.497,10.927115,1.853032,3.633854,17.157705,0.000000,8.896192,-3.060617,1.850389,-0.043736,-0.092077,0.178373,3.454744,0.836621,-0.107032,0.014685,-0.090593,2.074499,-0.384911,10.417703,1.212048,-1.865248,1,0,,38.991378,-76.936707,-10.229000,,,
2026-09-11T18:25:27.529,10.960538,1.892265,3.696677,17.520976,0.000000,8.815168,-3.032741,1.889615,-0.054457,-0.114647,0.174919,3.516559,0.845988,-0.164667,0.002281,-0.113164,0.172891,1.336058,7.947800,1.159614,-1.780951,1,0,,38.991378,-76.936707,-10.229000,,,
2026-09-11T18:25:27.562,10.993942,1.921414,3.760675,17.790870,0.000000,8.848127,-3.044080,1.918703,-0.062301,-0.131160,0.170813,3.579553,0.855006,-0.257680,-0.013002,-0.129676,0.923983,2.825590,6.631551,1.158095,-1.598992,1,0,,38.991378,-76.936707,-10.229000,,,
2026-09-11T18:25:27.595,11.027348,1.950596,3.826017,18.061073,0.000000,8.885893,-3.057073,1.947820,-0.060746,-0.127887,0.166486,3.643565,0.863819,-0.346316,0.000096,-0.126404,0.425903,-2.343986,11.563512,1.127392,-1.753688,1,0,,38.991378,-76.936707,-10.229000,,,
2026-09-11T18:25:27.630,11.060755,1.960396,3.891941,18.151813,0.000000,8.962797,-3.083531,1.957557,-0.059169,-0.124567,0.162269,3.708246,0.872518,-0.321330,0.044287,-0.123084,0.137489,4.746026,8.820003,1.082739,-1.448249,1,0,,38.991378,-76.936707,-10.229000,,,
2026-09-11T18:25:27.664,11.094173,1.980045,3.958502,18.333749,0.000000,8.062605,-2.773832,1.977725,-0.051995,-0.109463,0.158359,3.773456,0.881180,-0.330796,0.025938,-0.107979,-2.117452,-2.417241,9.041045,0.897656,-1.611537,1,0,,38.991378,-76.936707,-10.229000,,,
2026-09-11T18:25:27.697,11.127595,1.989910,4.025225,18.425096,0.000000,5.359281,-1.843789,1.988880,-0.014992,-0.031563,0.156002,3.839100,0.890450,-0.221656,-0.043321,-0.030080,-1.312816,-4.187538,10.839781,0.773726,-1.897554,1,0,,38.991378,-76.936707,-10.229000,,,
2026-09-11T18:25:27.729,11.161000,1.960930,4.090206,18.156761,0.000000,-0.569216,0.195831,1.960919,0.010823,0.022785,0.155856,3.904282,0.900627,-0.142999,0.010640,0.024268,0.052662,0.328425,12.962136,0.745859,-1.895039,1,0,,38.991378,-76.936707,-10.229000,,,
2026-09-11T18:25:27.764,11.194401,1.941861,4.155140,17.980193,0.000000,-7.930742,2.728466,1.939659,0.044194,0.093041,0.157790,3.968480,0.911707,-0.089902,-0.050210,0.094524,0.207018,2.796072,5.811911,0.733872,-1.741710,1,0,,38.991378,-76.936707,-10.229000,,,
2026-09-11T18:25:27.798,11.227814,1.922934,4.220024,17.804945,0.000000,-7.187105,2.472628,1.921144,0.051390,0.108189,0.161152,4.031909,0.923526,-0.073449,0.005717,0.109673,0.104049,0.748542,7.793051,0.717802,-1.724291,1,0,,38.991378,-76.936707,-10.229000,,,
2026-09-11T18:25:27.831,11.261234,1.933419,4.284529,17.902024,0.000000,-7.026430,2.417350,1.931698,0.037756,0.079486,0.164288,4.095198,0.935426,-0.040026,-0.011086,0.080969,1.106877,1.649577,9.606006,0.769247,-1.645224,1,0,,38.991378,-76.936707,-10.229000,,,
2026-09-11T18:25:27.864,11.294642,1.914345,4.348236,17.725420,0.000000,-7.253710,2.495542,1.912530,0.040167,0.084562,0.167028,4.158319,0.947299,-0.208524,-0.033277,0.086046,-0.802772,-1.460112,5.517418,0.701442,-1.768805,1,0,,38.991378,-76.936707,-10.229000,,,
2026-09-11T18:25:27.896,11.328049,1.934331,4.412761,17.910472,0.000000,-8.112017,2.790831,1.932037,0.065878,0.138692,0.170757,4.221324,0.959840,0.092805,-0.011473,0.140175,-0.892994,6.178484,6.460033,0.632882,-1.403616,1,0,,38.991378,-76.936707,-10.229000,,,
2026-09-11T18:25:27.930,11.361455,1.924690,4.476655,17.821200,0.000000,-9.354848,3.218411,1.921654,0.056666,0.119296,0.175066,4.284380,0.972930,0.217014,-0.029414,0.120779,2.344672,1.708122,9.583843,0.775844,-1.329231,1,0,,38.991378,-76.936707,-10.229000,,,
2026-09-11T18:25:27.964,11.394853,1.924690,4.540654,17.821200,0.000000,-9.575261,3.294241,1.921509,0.064611,0.136024,0.179330,4.347195,0.986236,0.127441,0.068440,0.137508,-0.136509,-1.569750,9.086352,0.753583,-1.469834,1,0,,38.991378,-76.936707,-10.229000,,,
2026-09-11T18:25:27.998,11.428276,1.905864,4.604802,17.646886,0.000000,-8.481435,2.917925,1.903393,0.055245,0.116306,0.183547,4.409703,0.999739,0.113661,-0.060955,0.117790,0.318030,0.266152,7.480317,0.757739,-1.487527,1,0,,38.991378,-76.936707,-10.229000,,,
2026-09-11T18:25:28.031,11.461715,1.906410,4.669640,17.651946,0.000000,-8.236989,2.833826,1.904079,0.035221,0.074150,0.186731,4.471997,1.012945,0.155033,-0.053878,0.075634,1.831784,1.686352,9.386141,0.856738,-1.407846,1,0,,38.991378,-76.936707,-10.229000,,,
2026-09-11T18:25:28.064,11.495121,1.935820,4.734687,17.924258,0.000000,-7.697285,2.648149,1.933753,0.027816,0.058560,0.188948,4.534776,1.025950,0.228858,0.036438,0.060044,-1.346061,0.844549,8.218659,0.745924,-1.381791,1,0,,38.991378,-76.936707,-10.229000,,,
2026-09-11T18:25:28.097,11.528526,1.926683,4.798223,17.839655,0.000000,-7.329930,2.521765,1.924817,0.027286,0.057444,0.190885,4.597891,1.039020,0.216232,-0.034784,0.058927,-1.771473,-2.835201,6.639985,0.605750,-1.593960,1,0,,38.991378,-76.936707,-10.229000,,,
2026-09-11T18:25:28.130,11.561935,1.897851,4.861488,17.572698,0.000000,-6.500462,2.236398,1.896406,0.022712,0.047814,0.192644,4.660394,1.052005,0.212660,-0.006064,0.049297,-0.021771,-1.309874,9.918740,0.577190,-1.703796,1,0,,38.991378,-76.936707,-10.229000,,,
2026-09-11T18:25:28.165,11.595341,1.888541,4.925909,17.486487,0.000000,-4.956196,1.705113,1.887704,0.014891,0.031350,0.193966,4.722302,1.064764,0.212739,-0.008022,0.032833,-0.016671,-3.798410,10.886853,0.546053,-1.971361,1,0,,38.991378,-76.936707,-10.229000,,,
2026-09-11T18:25:28.198,11.628764,1.908616,4.989410,17.672367,0.000000,-3.088521,1.062564,1.908287,0.005645,0.011885,0.194688,4.784479,1.077351,0.216529,0.053998,0.013368,-0.061095,-2.645148,10.292079,0.507248,-2.159065,1,0,,38.991378,-76.936707,-10.229000,,,
2026-09-11T18:25:28.231,11.662173,1.918778,5.052739,17.766461,0.000000,-0.694874,0.239062,1.918761,-0.016769,-0.035303,0.194297,4.847237,1.089524,0.166074,0.028459,-0.033819,-1.187683,-2.854716,7.825707,0.390352,-2.352306,1,0,,38.991378,-76.936707,-10.229000,,,
2026-09-11T18:25:28.264,11.695575,1.909415,5.116312,17.679772,0.000000,2.653210,-0.912801,1.909173,-0.018486,-0.038919,0.193058,4.910087,1.101251,0.198626,0.050086,-0.037435,1.529837,0.016181,12.148576,0.444329,-2.357256,1,0,,38.991378,-76.936707,-10.229000,,,
2026-09-11T18:25:28.297,11.728980,1.929033,5.180679,17.861419,0.000000,5.315335,-1.828670,1.928051,-0.031406,-0.066118,0.191303,4.973157,1.112674,0.078391,0.011686,-0.064634,2.949644,-0.247030,12.098857,0.588307,-2.375738,1,0,,38.991378,-76.936707,-10.229000,,,
2026-09-11T18:25:28.331,11.762385,1.948453,5.245290,18.041234,0.000000,5.828259,-2.005135,1.947260,-0.049027,-0.103214,0.188475,5.036974,1.123571,-0.005614,0.008214,-0.101731,1.396957,-1.097953,11.422884,0.630274,-2.444300,1,0,,38.991378,-76.936707,-10.229000,,,
2026-09-11T18:25:28.365,11.795795,1.968334,5.311785,18.225316,0.000000,6.157162,-2.118290,1.966989,-0.051102,-0.107583,0.184954,5.101535,1.134065,0.035629,0.061025,-0.106099,2.002028,3.100471,9.489405,0.706649,-2.239820,1,0,,38.991378,-76.936707,-10.229000,,,
2026-09-11T18:25:28.398,11.829211,1.997781,5.378894,18.497975,0.000000,6.094677,-2.096793,1.996444,-0.039404,-0.082956,0.181770,5.166923,1.144652,0.020211,0.036124,-0.081473,-0.066195,0.538777,4.165277,0.644677,-2.206294,1,0,,38.991378,-76.936707,-10.229000,,,
2026-09-11T18:25:28.432,11.862624,2.027238,5.446396,18.770725,0.000000,5.479443,-1.885130,2.026141,-0.020892,-0.043983,0.179649,5.233212,1.155739,-0.081644,0.027395,-0.042500,0.506219,-0.203586,3.970418,0.619883,-2.226124,1,1,11.869615,38.991378,-76.936685,-10.246000,5.249900,-0.370279,8.148378
2026-09-11T18:25:28.464,11.896027,2.066127,5.515517,19.130807,0.000000,4.958279,-1.705830,2.065212,-0.015563,-0.032765,0.178368,5.300562,1.167306,-0.159080,0.040606,-0.031281,0.525538,-0.825426,6.582027,0.597949,-2.287339,1,0,,38.991378,-76.936685,-10.246000,,,
2026-09-11T18:25:28.498,11.929433,2.095725,5.586054,19.404859,0.000000,3.805401,-1.309198,2.095178,-0.003481,-0.007328,0.177698,5.369010,1.179299,-0.182584,0.046650,-0.005844,-0.757466,-0.405995,9.534025,0.492757,-2.324131,1,0,,38.991378,-76.936685,-10.246000,,,
2026-09-11T18:25:28.533,11.962848,2.145154,5.658452,19.862532,0.000000,3.801281,-1.307780,2.144595,-0.009436,-0.019865,0.177244,5.438772,1.191592,-0.285018,0.059829,-0.018382,-0.274684,0.397267,5.066802,0.419312,-2.306789,1,0,,38.991378,-76.936685,-10.246000,,,
2026-09-11T18:25:28.565,11.996252,2.145818,5.729451,19.868689,0.000000,3.884366,-1.336364,2.145235,-0.013778,-0.029006,0.176427,5.509372,1.203815,-0.336769,-0.053306,-0.027523,1.120116,-1.834922,8.412537,0.439978,-2.432757,1,0,,38.991378,-76.936685,-10.246000,,,
2026-09-11T18:25:28.598,12.029659,2.165780,5.801469,20.053523,0.000000,5.239117,-1.802449,2.164709,-0.036405,-0.076642,0.174663,5.580403,1.215562,-0.358193,0.010154,-0.075159,3.043984,1.684096,11.669325,0.591106,-2.323000,1,0,,38.991378,-76.936685,-10.246000,,,
2026-09-11T18:25:28.631,12.063065,2.175759,5.874015,20.145915,0.000000,5.772641,-1.986000,2.174452,-0.058185,-0.122495,0.171336,5.652068,1.226481,-0.218729,-0.031605,-0.121011,0.884462,4.980601,10.021612,0.607065,-1.994714,1,0,,38.991378,-76.936685,-10.246000,,,
2026-09-11T18:25:28.666,12.096481,2.185298,5.947504,20.234238,0.000000,5.673764,-1.951983,2.184030,-0.039034,-0.082177,0.167917,5.724119,1.237173,-0.162704,-0.051543,-0.080693,0.267231,2.538942,5.682463,0.589186,-1.833562,1,0,,38.991378,-76.936685,-10.246000,,,
2026-09-11T18:25:28.699,12.129902,2.195121,6.020862,20.325197,0.000000,1.998837,-0.687673,2.194963,-0.009163,-0.019290,0.166221,5.796411,1.248547,-0.071877,-0.072509,-0.017806,0.012258,3.734961,11.139668,0.562510,-1.605614,1,0,,38.991378,-76.936685,-10.246000,,,
2026-09-11T18:25:28.732,12.163311,2.195565,6.093524,20.329302,0.000000,-5.368183,1.846852,2.194424,0.033184,0.069861,0.167066,5.868649,1.261105,-0.171862,0.009866,0.071345,0.343429,-1.576419,11.638434,0.565074,-1.736618,1,0,,38.991378,-76.936685,-10.246000,,,
2026-09-11T18:25:28.765,12.196718,2.205483,6.167738,20.421141,0.000000,-7.034671,2.420185,2.203516,0.049755,0.104747,0.169983,5.940837,1.274792,0.006786,0.003349,0.106231,-1.202295,-0.395208,7.340376,0.474520,-1.794748,1,0,,38.991378,-76.936685,-10.246000,,,
2026-09-11T18:25:28.800,12.230118,2.215677,6.241450,20.515525,0.000000,-7.310016,2.514914,2.213543,0.054515,0.114768,0.173648,6.013218,1.289120,-0.030548,-0.042410,0.116252,0.154455,3.728194,8.741550,0.475312,-1.586982,1,0,,38.991378,-76.936685,-10.246000,,,
2026-09-11T18:25:28.834,12.263534,2.196748,6.315345,20.340261,0.000000,-7.458332,2.565940,2.194546,0.047617,0.100247,0.177241,6.085441,1.303655,0.053126,0.037194,0.101730,-1.983003,-0.417861,10.579905,0.337783,-1.647557,1,0,,38.991378,-76.936685,-10.246000,,,
2026-09-11T18:25:28.867,12.296951,2.158609,6.387241,19.987123,0.000000,-7.546909,2.596414,2.156393,0.052572,0.110677,0.180765,6.156678,1.318245,0.102676,0.000715,0.112161,0.317637,2.383506,4.839876,0.351885,-1.527349,1,0,,38.991378,-76.936685,-10.246000,,,
2026-09-11T18:25:28.900,12.330361,2.149164,6.458928,19.899665,0.000000,-7.156894,2.462234,2.147180,0.039081,0.082276,0.183988,6.227099,1.332789,0.086010,0.113904,0.083759,-0.917118,-0.482193,10.608344,0.287729,-1.589932,1,0,,38.991378,-76.936685,-10.246000,,,
2026-09-11T18:25:28.933,12.363764,2.120059,6.529345,19.630180,0.000000,-6.814258,2.344355,2.118285,0.035626,0.075003,0.186615,6.296891,1.347141,0.000660,0.004975,0.076486,1.209650,-2.992009,1.603289,0.363769,-1.813035,1,0,,38.991378,-76.936685,-10.246000,,,
2026-09-11T18:25:28.967,12.397172,2.100343,6.599449,19.447620,0.000000,-4.421298,1.521089,2.099603,0.003078,0.006481,0.187976,6.365994,1.360895,-0.038195,0.035689,0.007964,2.412828,1.718223,8.783326,0.515568,-1.719520,1,0,,38.991378,-76.936685,-10.246000,,,
2026-09-11T18:25:29.001,12.430580,2.071242,6.669250,19.178169,0.000000,-2.255619,0.776016,2.071052,-0.009534,-0.020072,0.187749,6.434455,1.373800,0.012594,-0.031638,-0.018588,-2.016541,-0.886423,4.942356,0.378338,-1.792001,1,0,,38.991378,-76.936685,-10.246000,,,
2026-09-11T18:25:29.037,12.463998,2.071701,6.738604,19.182419,0.000000,-0.381763,0.131340,2.071696,-0.015286,-0.032181,0.186876,6.502542,1.386282,0.028860,-0.084853,-0.030698,-1.832667,1.455013,5.285392,0.256368,-1.710532,1,0,,38.991378,-76.936685,-10.246000,,,
2026-09-11T18:25:29.067,12.497406,2.081713,6.808053,19.275118,0.000000,2.165692,-0.745077,2.081537,-0.017149,-0.036104,0.185736,6.570819,1.398601,0.002036,-0.053244,-0.034620,0.587320,-0.499453,13.426089,0.291804,-1.755902,1,0,,38.991378,-76.936685,-10.246000,,,
2026-09-11T18:25:29.100,12.530811,2.091991,6.876992,19.370291,0.000000,3.964016,-1.363767,2.091399,-0.031968,-0.067301,0.184009,6.639478,1.410606,0.055628,-0.063375,-0.065817,0.259974,0.909665,12.099739,0.301355,-1.705354,1,0,,38.991378,-76.936685,-10.246000,,,
2026-09-11T18:25:29.134,12.564212,2.092648,6.946364,19.376373,0.000000,4.058087,-1.396131,2.092027,-0.029927,-0.063004,0.181832,6.708367,1.422298,0.140218,0.009938,-0.061520,-0.603795,0.545152,12.391095,0.251208,-1.679528,1,0,,38.991378,-76.936685,-10.246000,,,
2026-09-11T18:25:29.167,12.597617,2.083519,7.015770,19.291847,0.000000,3.909771,-1.345105,2.082945,-0.023414,-0.049294,0.179957,6.777121,1.433967,0.143045,0.198049,-0.047810,-2.742037,0.667735,6.967723,0.063296,-1.647940,1,0,,38.991378,-76.936685,-10.246000,,,
2026-09-11T18:25:29.201,12.631019,2.083935,7.085286,19.295692,0.000000,4.139111,-1.424006,2.083291,-0.031060,-0.065390,0.178041,6.845753,1.445461,0.042745,-0.195279,-0.063907,0.202703,0.701764,12.336472,0.067985,-1.612330,1,0,,38.991378,-76.936685,-10.246000,,,
2026-09-11T18:25:29.234,12.664435,2.113438,7.155667,19.568867,0.000000,3.717511,-1.278960,2.112911,-0.024335,-0.051231,0.176093,6.914929,1.456898,0.028858,-0.068396,-0.049748,-0.646160,0.197212,10.093593,0.015201,-1.611568,1,0,,38.991378,-76.936685,-10.246000,,,
2026-09-11T18:25:29.267,12.697851,2.104283,7.225915,19.484100,0.000000,4.851849,-1.669214,2.103390,-0.030060,-0.063284,0.174180,6.984456,1.468278,0.016926,-0.038446,-0.061800,0.006570,0.425118,11.782788,0.005227,-1.594454,1,0,,38.991378,-76.936685,-10.246000,,,
2026-09-11T18:25:29.300,12.731255,2.104376,7.295956,19.484962,0.000000,5.895550,-2.028286,2.103057,-0.050000,-0.105263,0.171365,7.053894,1.479039,-0.044232,-0.081648,-0.103779,0.684308,1.102464,12.626454,0.041062,-1.528000,1,0,,38.991378,-76.936685,-10.246000,,,
2026-09-11T18:25:29.335,12.764658,2.104815,7.367875,19.489030,0.000000,6.849301,-2.356411,2.103035,-0.052281,-0.110065,0.167768,7.123423,1.489210,-0.045250,-0.051056,-0.108581,-1.058039,2.598174,4.338756,-0.034954,-1.364844,1,0,,38.991378,-76.936685,-10.246000,,,
2026-09-11T18:25:29.368,12.798067,2.114875,7.437461,19.582172,0.000000,7.522900,-2.588154,2.112717,-0.050405,-0.106116,0.164157,7.193162,1.499152,0.030353,-0.117787,-0.104633,-0.663420,0.966445,10.200976,-0.082052,-1.309533,1,0,,38.991378,-76.936685,-10.246000,,,
2026-09-11T18:25:29.402,12.831488,2.115258,7.507624,19.585725,0.000000,7.238629,-2.490354,2.113261,-0.056280,-0.118484,0.160404,7.263139,1.508802,-0.088836,-0.060087,-0.117001,-0.613210,3.924033,9.228156,-0.124085,-1.061614,1,0,,38.991378,-76.936685,-10.246000,,,
2026-09-11T18:25:29.436,12.864893,2.076463,7.577383,19.226507,0.000000,7.183011,-2.471219,2.074532,-0.051222,-0.107836,0.156624,7.332493,1.518071,0.030657,-0.018404,-0.106353,-1.557100,2.463431,5.716493,-0.224803,-0.912787,1,1,12.872734,38.991378,-76.936661,-10.312000,7.318199,-0.337106,8.597748
2026-09-11T18:25:29.468,12.898293,2.067095,7.646035,19.139764,0.000000,6.990750,-2.405074,2.065274,-0.041443,-0.087249,0.153366,7.401038,1.527215,-0.023663,-0.031387,-0.085766,-0.137097,-4.033083,3.939135,-0.228844,-1.188880,1,0,,38.991378,-76.936661,-10.312000,,,
2026-09-11T18:25:29.502,12.931700,2.067819,7.714764,19.146476,0.000000,7.121213,-2.449958,2.065929,-0.051237,-0.107866,0.150107,7.469485,1.536115,-0.053255,-0.025655,-0.106383,0.472779,-1.610056,6.971155,-0.191581,-1.302358,1,0,,38.991378,-76.936661,-10.312000,,,
2026-09-11T18:25:29.535,12.965115,2.039221,7.783151,18.881678,0.000000,6.728451,-2.314834,2.037557,-0.049602,-0.104426,0.146560,7.537539,1.544582,0.131154,0.048930,-0.102942,0.766194,3.870881,13.509053,-0.135825,-1.060437,1,0,,38.991378,-76.936661,-10.312000,,,
2026-09-11T18:25:29.569,12.998532,2.049401,7.850847,18.975936,0.000000,6.874020,-2.364915,2.047656,-0.044022,-0.092678,0.143266,7.605307,1.552891,-0.022863,0.066718,-0.091194,0.245460,-2.400374,9.313474,-0.111958,-1.228687,1,0,,38.991378,-76.936661,-10.312000,,,
2026-09-11T18:25:29.602,13.031935,2.039861,7.918981,18.887599,0.000000,7.231762,-2.487992,2.037938,-0.058382,-0.122909,0.139666,7.673103,1.560819,-0.055761,-0.106991,-0.121425,3.047907,-1.276532,10.762897,0.095946,-1.318339,1,0,,38.991378,-76.936661,-10.312000,,,
2026-09-11T18:25:29.635,13.065455,2.020417,7.987007,18.707568,0.000000,7.324460,-2.519883,2.018464,-0.042867,-0.090246,0.136093,7.740676,1.568483,-0.119767,0.145942,-0.088763,1.643398,-3.522647,10.031615,0.213026,-1.557575,1,0,,38.991378,-76.936661,-10.312000,,,
2026-09-11T18:25:29.669,13.098866,2.010776,8.054484,18.618293,0.000000,6.563656,-2.258139,2.009214,-0.034545,-0.072726,0.133371,7.807523,1.576239,0.034278,0.079258,-0.071243,-0.219179,0.069039,6.747466,0.206103,-1.563263,1,0,,38.991378,-76.936661,-10.312000,,,
2026-09-11T18:25:29.702,13.132281,1.981974,8.120341,18.351607,0.000000,6.253979,-2.151598,1.980576,-0.029464,-0.062028,0.131119,7.873741,1.583969,0.000692,0.098432,-0.060545,-0.258896,-2.011148,10.407504,0.193542,-1.705027,1,0,,38.991378,-76.936661,-10.312000,,,
2026-09-11T18:25:29.735,13.165705,1.982431,8.186545,18.355840,0.000000,4.503720,-1.549445,1.981706,-0.005224,-0.010998,0.129899,7.939472,1.592012,0.108984,0.120615,-0.009514,1.858654,0.896524,7.995460,0.317019,-1.663563,1,0,,38.991378,-76.936661,-10.312000,,,
2026-09-11T18:25:29.769,13.199105,1.972987,8.252710,18.268399,0.000000,3.278058,-1.127772,1.972605,-0.020235,-0.042599,0.129004,8.005012,1.600116,0.069926,-0.016372,-0.041115,-4.096434,2.821864,10.431138,0.050794,-1.493997,1,0,,38.991378,-76.936661,-10.312000,,,
2026-09-11T18:25:29.803,13.232513,1.973270,8.318566,18.271019,0.000000,1.687787,-0.580661,1.973169,-0.016259,-0.034230,0.127721,8.070457,1.607948,0.179660,0.095437,-0.032747,-0.884462,4.368176,9.429977,-0.008465,-1.227249,1,0,,38.991378,-76.936661,-10.312000,,,
2026-09-11T18:25:29.836,13.265929,1.934838,8.383413,17.915169,0.000000,0.238278,-0.081976,1.934836,0.016219,0.034144,0.127719,8.135220,1.616264,0.016332,0.004220,0.035628,-0.776392,-3.562364,-0.455813,-0.062601,-1.485406,1,0,,38.991378,-76.936661,-10.312000,,,
2026-09-11T18:25:29.870,13.299340,1.935551,8.448179,17.921769,0.000000,-3.259494,1.121386,1.935180,0.006211,0.013075,0.128508,8.199294,1.624896,0.089042,0.042640,0.014559,-1.004397,5.367866,10.469874,-0.131541,-1.160021,1,0,,38.991378,-76.936661,-10.312000,,,
2026-09-11T18:25:29.903,13.332766,1.916855,8.512787,17.748659,0.000000,-6.486042,2.231436,1.915402,0.016896,0.035570,0.129321,8.263064,1.633552,-0.062675,-0.007310,0.037054,1.992613,2.201593,13.212794,-0.005787,-1.045885,1,0,,38.991378,-76.936661,-10.312000,,,
2026-09-11T18:25:29.936,13.366186,1.927207,8.576629,17.844512,0.000000,-6.698902,2.304668,1.925648,0.026995,0.056832,0.130865,8.326612,1.642606,0.013311,-0.019316,0.058315,-0.529755,-1.109132,13.158759,-0.046596,-1.150085,1,0,,38.991378,-76.936661,-10.312000,,,
2026-09-11T18:25:29.970,13.399601,1.917663,8.640424,17.756138,0.000000,-6.877429,2.366088,1.916028,0.066994,0.141040,0.134171,8.390025,1.652643,0.036083,0.049668,0.142523,1.068140,-1.453542,8.575229,0.013313,-1.285810,1,0,,38.991378,-76.936661,-10.312000,,,
2026-09-11T18:25:30.004,13.433018,1.937023,8.705356,17.935401,0.000000,-7.268817,2.500740,1.935179,0.058768,0.123723,0.138595,8.453489,1.663474,0.013621,0.068183,0.125206,0.668127,-0.025595,10.213038,0.045431,-1.325596,1,0,,38.991378,-76.936661,-10.312000,,,
2026-09-11T18:25:30.036,13.466437,1.937554,8.770444,17.940312,0.000000,-7.372501,2.536411,1.935656,0.053593,0.112826,0.142547,8.517267,1.674395,-0.051587,0.042086,0.114310,1.456778,-2.256706,13.211029,0.130693,-1.508012,1,0,,38.991378,-76.936661,-10.312000,,,
2026-09-11T18:25:30.070,13.499836,1.976712,8.836492,18.302885,0.000000,-7.464511,2.568066,1.974726,0.046225,0.097316,0.146057,8.581651,1.685436,0.038681,0.069229,0.098800,-0.011278,0.792475,12.066102,0.119357,-1.489330,1,0,,38.991378,-76.936661,-10.312000,,,
2026-09-11T18:25:30.103,13.533242,1.977012,8.902132,18.305671,0.000000,-7.636859,2.627360,1.974934,0.057043,0.120091,0.149688,8.646647,1.696862,0.071326,-0.003972,0.121574,0.103754,-0.361375,3.913442,0.113710,-1.548426,1,0,,38.991378,-76.936661,-10.312000,,,
2026-09-11T18:25:30.137,13.566649,1.957850,8.967106,18.128240,0.000000,-7.674625,2.640353,1.955771,0.048497,0.102098,0.153399,8.711285,1.708516,0.104862,-0.005681,0.103582,-3.329652,3.205598,2.524134,-0.114009,-1.373620,1,0,,38.991378,-76.936661,-10.312000,,,
2026-09-11T18:25:30.170,13.600058,1.948590,9.032687,18.042501,0.000000,-7.683551,2.643424,1.946517,0.071534,0.150597,0.157620,8.775374,1.720593,0.085854,0.077943,0.152081,-1.721459,-4.650019,5.459264,-0.235206,-1.715163,1,0,,38.991378,-76.936661,-10.312000,,,
2026-09-11T18:25:30.204,13.633471,1.949378,9.097988,18.049798,0.000000,-7.193973,2.474991,1.947560,0.031264,0.065819,0.161236,8.839333,1.732616,0.030862,0.079575,0.067302,-1.729403,-3.860486,5.822797,-0.355608,-1.991133,1,0,,38.991378,-76.936661,-10.312000,,,
2026-09-11T18:25:30.237,13.666875,1.969465,9.163801,18.235785,0.000000,-7.314136,2.516331,1.967566,0.035783,0.075333,0.163593,8.903682,1.744295,0.042232,-0.046632,0.076817,1.523757,1.981630,12.535743,-0.264319,-1.887333,1,0,,38.991378,-76.936661,-10.312000,,,
2026-09-11T18:25:30.270,13.700287,1.960700,9.228717,18.154626,0.000000,-7.136981,2.455384,1.958899,0.037017,0.077931,0.166154,8.968189,1.756261,0.141168,0.019403,0.079414,-0.124643,1.638397,11.547232,-0.279450,-1.807150,1,0,,38.991378,-76.936661,-10.312000,,,
2026-09-11T18:25:30.304,13.733695,1.922191,9.293547,17.798062,0.000000,-5.938785,2.043160,1.920969,0.020355,0.042853,0.168171,9.031934,1.767988,-0.034092,0.019263,0.044336,0.747463,1.013713,11.470250,-0.233618,-1.763732,1,0,,38.991378,-76.936661,-10.312000,,,
2026-09-11T18:25:30.337,13.767111,1.932232,9.357491,17.891040,0.000000,-5.318058,1.829607,1.931247,0.015796,0.033254,0.169443,9.095282,1.779398,0.061491,-0.000830,0.034738,-2.243958,-1.034602,12.289204,-0.379350,-1.852176,1,0,,38.991378,-76.936661,-10.312000,,,
2026-09-11T18:25:30.370,13.800520,1.912789,9.420851,17.711009,0.000000,-4.669864,1.606605,1.912037,0.016329,0.034376,0.170573,9.158464,1.790788,0.074126,-0.051157,0.035860,0.576925,2.045667,11.162321,-0.344095,-1.740413,1,0,,38.991378,-76.936661,-10.312000,,,
2026-09-11T18:25:30.404,13.833924,1.912888,9.484655,17.711924,0.000000,-4.417179,1.519672,1.912215,0.005488,0.011554,0.171340,9.221345,1.802014,0.036928,-0.174847,0.013038,0.222513,0.974389,7.497380,-0.332762,-1.696384,1,0,,38.991378,-76.936661,-10.312000,,,
2026-09-11T18:25:30.437,13.867330,1.903430,9.548664,17.624355,0.000000,-3.630970,1.249187,1.902978,0.018305,0.038536,0.172177,9.284064,1.813297,0.163735,-0.134669,0.040019,4.329734,5.479466,15.386242,-0.054550,-1.364641,1,1,13.866892,38.991377,-76.936638,-10.315000,9.285669,-0.403823,8.144964
2026-09-11T18:25:30.471,13.900741,1.913672,9.612743,17.719183,0.000000,-3.409870,1.173120,1.913271,-0.001187,-0.002498,0.172779,9.346822,1.824520,0.104955,0.015232,-0.001015,-1.896704,-1.953191,12.249585,-0.178975,-1.512495,1,0,,38.991377,-76.936638,-10.315000,,,
2026-09-11T18:25:30.504,13.934160,1.913959,9.676504,17.721838,0.000000,-2.071598,0.712706,1.913810,-0.001594,-0.003355,0.172681,9.409827,1.835465,0.056778,-0.038412,-0.001872,1.911316,-1.759803,11.372968,-0.054285,-1.646110,1,0,,38.991377,-76.936638,-10.315000,,,
2026-09-11T18:25:30.537,13.967577,1.914139,9.740308,17.723506,0.000000,-0.498493,0.171500,1.914130,-0.013546,-0.028519,0.172148,9.472882,1.846189,0.021717,0.027811,-0.027035,-1.336941,-0.676953,12.779732,-0.143584,-1.705026,1,0,,38.991377,-76.936638,-10.315000,,,
2026-09-11T18:25:30.571,14.000983,1.885501,9.803507,17.458343,0.000000,1.165936,-0.401125,1.885455,-0.016802,-0.035373,0.171081,9.535500,1.856528,0.093107,0.135023,-0.033889,-0.600853,-0.051877,7.728719,-0.187344,-1.722042,1,0,,38.991377,-76.936638,-10.315000,,,
2026-09-11T18:25:30.604,14.034388,1.915387,9.867708,17.735067,0.000000,3.699658,-1.272818,1.914915,-0.025302,-0.053267,0.169601,9.598176,1.866595,0.039504,-0.082350,-0.051783,-1.568181,3.671806,8.698303,-0.296966,-1.495654,1,0,,38.991377,-76.936638,-10.315000,,,
2026-09-11T18:25:30.638,14.067793,1.915752,9.931738,17.738442,0.000000,4.244168,-1.460149,1.915130,-0.036793,-0.077459,0.167417,9.661414,1.876301,-0.013930,0.014310,-0.075975,-1.364792,-4.409854,5.697075,-0.395375,-1.791673,1,0,,38.991377,-76.936638,-10.315000,,,
2026-09-11T18:25:30.671,14.101203,1.896669,9.995210,17.561747,0.000000,4.803784,-1.652678,1.895880,-0.031963,-0.067290,0.164999,9.724390,1.885701,-0.077851,0.032122,-0.065807,1.091186,-1.856987,2.868543,-0.336225,-1.920592,1,0,,38.991377,-76.936638,-10.315000,,,
2026-09-11T18:25:30.705,14.134621,1.887091,10.059218,17.473064,0.000000,4.892361,-1.683152,1.886277,-0.041048,-0.086417,0.162431,9.786940,1.894798,-0.069226,-0.014559,-0.084933,-1.139827,-0.073256,8.431071,-0.426347,-1.930376,1,0,,38.991377,-76.936638,-10.315000,,,
2026-09-11T18:25:30.738,14.168026,1.867834,10.121586,17.294757,0.000000,4.919827,-1.692601,1.867019,-0.025877,-0.054478,0.160078,9.848995,1.903760,-0.020209,0.118716,-0.052994,1.984572,-0.913686,14.553951,-0.317708,-1.998382,1,0,,38.991377,-76.936638,-10.315000,,,
2026-09-11T18:25:30.771,14.201425,1.877463,10.183942,17.383919,0.000000,4.452221,-1.531728,1.876792,-0.015992,-0.033667,0.158606,9.910835,1.912990,-0.050053,-0.096038,-0.032183,1.839630,1.124921,12.491221,-0.222736,-1.936256,1,0,,38.991377,-76.936638,-10.315000,,,
2026-09-11T18:25:30.805,14.234831,1.858421,10.246142,17.207603,0.000000,4.242795,-1.459677,1.857818,-0.030115,-0.063401,0.156984,9.972559,1.922031,-0.092464,0.007256,-0.061917,1.025187,0.280176,9.943453,-0.186396,-1.925923,1,0,,38.991377,-76.936638,-10.315000,,,
2026-09-11T18:25:30.838,14.268247,1.897688,10.309887,17.571185,0.000000,4.000409,-1.376287,1.897140,-0.010397,-0.021889,0.155559,10.034638,1.931127,-0.108305,0.005247,-0.020406,-0.370986,-3.577466,9.186576,-0.241814,-2.170271,1,0,,38.991377,-76.936638,-10.315000,,,
2026-09-11T18:25:30.872,14.301655,1.907591,10.373393,17.662877,0.000000,2.090161,-0.719092,1.907441,0.000605,0.001275,0.155215,10.097450,1.940801,-0.071099,0.135247,0.002758,-0.533286,0.551232,8.342125,-0.304498,-2.147588,1,0,,38.991377,-76.936638,-10.315000,,,
2026-09-11T18:25:30.905,14.335059,1.927139,10.437687,17.843879,0.000000,-1.233890,0.424503,1.927086,0.021767,0.045824,0.156002,10.160663,1.951095,-0.055441,-0.027724,0.047308,-0.363925,1.625550,8.331044,-0.355890,-2.061221,1,0,,38.991377,-76.936638,-10.315000,,,
2026-09-11T18:25:30.939,14.368462,1.937491,10.503093,17.939732,0.000000,-7.634113,2.626415,1.935456,0.037465,0.078874,0.158084,10.224223,1.962162,-0.163421,0.010507,0.080357,2.593859,-0.504258,4.472225,-0.215888,-2.117740,1,0,,38.991377,-76.936638,-10.315000,,,
2026-09-11T18:25:30.973,14.401891,1.996247,10.569810,18.483768,0.000000,-7.356708,2.530978,1.994300,0.061430,0.129327,0.161564,10.288806,1.974248,-0.143308,0.039015,0.130810,1.448344,-1.001161,11.208903,-0.151488,-2.212655,1,0,,38.991377,-76.936638,-10.315000,,,
2026-09-11T18:25:31.006,14.435435,2.016247,10.637260,18.668950,0.000000,-8.267200,2.844220,2.013763,0.063974,0.134681,0.165992,10.354787,1.987285,-0.171043,0.115147,0.136165,-0.328327,0.314990,12.064141,-0.199613,-2.222214,1,0,,38.991377,-76.936638,-10.315000,,,
2026-09-11T18:25:31.039,14.468846,2.045836,10.705517,18.942931,0.000000,-9.003972,3.097697,2.042847,0.082899,0.174524,0.171158,10.421181,2.001075,-0.178243,0.238599,0.176008,-0.597715,-3.972576,7.724993,-0.258409,-2.514528,1,0,,38.991377,-76.936638,-10.315000,,,
2026-09-11T18:25:31.073,14.502266,2.065302,10.774277,19.123164,0.000000,-9.876012,3.397710,2.061671,0.091229,0.192062,0.177283,10.488224,2.015830,-0.117911,0.041334,0.193545,1.242895,3.002600,6.433064,-0.192700,-2.354862,1,0,,38.991377,-76.936638,-10.315000,,,
2026-09-11T18:25:31.106,14.535701,2.065575,10.843144,19.125693,0.000000,-12.688512,4.365314,2.059583,0.103750,0.218422,0.184145,10.555413,2.031419,-0.206304,-0.059336,0.219906,0.200448,-4.147723,7.792462,-0.191430,-2.663287,1,0,,38.991377,-76.936638,-10.315000,,,
2026-09-11T18:25:31.139,14.569117,2.066115,10.912582,19.130695,0.000000,-20.207967,6.952282,2.050924,0.115386,0.242918,0.191853,10.622195,2.047851,0.138931,-0.064345,0.244401,0.046189,4.106927,11.611662,-0.196658,-2.437163,1,0,,38.991377,-76.936638,-10.315000,,,
2026-09-11T18:25:31.173,14.602534,2.076222,10.982022,19.224274,0.000000,-28.370122,9.760363,2.046169,0.179550,0.378000,0.202228,10.688356,2.066083,0.070699,-0.153353,0.379484,1.135316,1.282121,8.811766,-0.128270,-2.414117,1,0,,38.991377,-76.936638,-10.315000,,,
2026-09-11T18:25:31.206,14.635954,2.076504,11.051065,19.226893,0.000000,-35.482396,12.207246,2.029553,0.209910,0.441915,0.215929,10.753623,2.086582,0.234933,0.060728,0.443398,0.718141,-2.266611,3.721722,-0.082184,-2.628948,1,0,,38.991377,-76.936638,-10.315000,,,
2026-09-11T18:25:31.239,14.669365,2.066960,11.120534,19.138518,0.000000,-36.239079,12.467573,2.018218,0.224888,0.473448,0.231220,10.817946,2.108655,0.266260,0.001504,0.474931,-1.242601,1.171993,9.341227,-0.158251,-2.622685,1,0,,38.991377,-76.936638,-10.315000,,,
2026-09-11T18:25:31.274,14.702793,2.018776,11.188533,18.692372,0.000000,-37.383717,12.861371,1.968128,0.234623,0.493944,0.247389,10.880852,2.131901,0.267857,-0.076526,0.495427,0.393835,-0.172793,10.845371,-0.125174,-2.704602,1,0,,38.991377,-76.936638,-10.315000,,,
2026-09-11T18:25:31.307,14.736209,1.961077,11.253187,18.158124,0.000000,-36.234959,12.466156,1.914842,0.210165,0.442452,0.263035,10.941755,2.155464,0.279082,-0.021427,0.443935,2.266317,3.307097,8.655742,0.031090,-2.552350,1,0,,38.991377,-76.936638,-10.315000,,,
2026-09-11T18:25:31.340,14.769626,1.952174,11.318485,18.075683,0.000000,-32.667836,11.238934,1.914737,0.186563,0.392765,0.276990,11.001656,2.178920,0.262610,-0.036687,0.394248,-1.810308,2.773909,5.802301,-0.079644,-2.430121,1,0,,38.991377,-76.936638,-10.315000,,,
2026-09-11T18:25:31.373,14.803039,1.933520,11.383126,17.902966,0.000000,-27.903890,9.599962,1.906444,0.138399,0.291366,0.288419,11.061450,2.201942,0.084805,-0.045249,0.292849,-3.086055,-0.899172,12.808368,-0.274924,-2.534176,1,0,,38.991377,-76.936638,-10.315000,,,
2026-09-11T18:25:31.407,14.836453,1.904633,11.446107,17.635493,0.000000,-20.334309,6.995749,1.890454,0.106289,0.223766,0.297026,11.121008,2.224160,0.064308,0.012088,0.225249,2.451957,-0.154553,13.410006,-0.111247,-2.580335,1,0,,38.991377,-76.936638,-10.315000,,,
2026-09-11T18:25:31.440,14.869874,1.895004,11.509899,17.546330,0.000000,-15.610875,5.370714,1.886684,0.091683,0.193017,0.303990,11.180318,2.246003,0.031438,0.008105,0.194501,0.802772,-2.110391,8.630342,-0.059705,-2.748739,1,1,14.865023,38.991377,-76.936616,-10.358000,11.183855,-0.405491,5.244163
2026-09-11T18:25:31.474,14.903290,1.875792,11.572329,17.368445,0.000000,-8.539113,2.937768,1.873327,0.044159,0.092966,0.308768,11.239532,2.267114,0.025605,0.018294,0.094449,-0.504650,0.916431,12.177800,-0.099336,-2.707130,1,0,,38.991377,-76.936616,-10.358000,,,
2026-09-11T18:25:31.507,14.936704,1.886037,11.635204,17.463309,0.000000,-7.666386,2.637518,1.884039,0.043969,0.092565,0.311868,11.298859,2.287686,-0.025944,0.044725,0.094049,1.274865,-0.688819,9.998664,-0.030549,-2.769853,1,0,,38.991377,-76.936616,-10.358000,,,
2026-09-11T18:25:31.540,14.970117,1.886500,11.698327,17.467596,0.000000,-7.796162,2.682166,1.884434,0.051547,0.108521,0.315228,11.358255,2.308622,-0.081884,-0.036738,0.110004,2.041646,4.178614,3.962867,0.075892,-2.518934,1,0,,38.991377,-76.936616,-10.358000,,,
2026-09-11T18:25:31.574,15.003527,1.896623,11.761993,17.561321,0.000000,-7.260579,2.497906,1.894821,0.031069,0.065408,0.318133,11.417819,2.329594,0.015993,0.068892,0.066892,-0.702352,-1.896018,1.913670,-0.004474,-2.658561,1,0,,38.991377,-76.936616,-10.358000,,,
2026-09-11T18:25:31.608,15.036958,1.925969,11.827174,17.833045,0.000000,-7.413701,2.550585,1.924061,0.048910,0.102968,0.320948,11.478002,2.350916,-0.133145,-0.043625,0.104452,-0.252717,-2.603469,11.147121,-0.058901,-2.847320,1,0,,38.991377,-76.936616,-10.358000,,,
2026-09-11T18:25:31.641,15.070381,1.936408,11.891170,17.929704,0.000000,-7.592229,2.612005,1.934396,0.038969,0.082040,0.324039,11.538692,2.372745,-0.084253,0.000569,0.083524,1.146594,1.120214,5.453674,-0.026149,-2.790424,1,0,,38.991377,-76.936616,-10.358000,,,
