timestamp,time_s,speed_mps,distance_m,wheel_omega_rad_s,motor_current_A,steer_motor_deg,steer_column_deg,vx_mps,vy_mps,yaw_rate_rad_s,heading_rad,x_m,y_m,gyro_x_rad_s,gyro_y_rad_s,gyro_z_rad_s,accel_x_mps2,accel_y_mps2,accel_z_mps2,grade_deg,bank_deg,moving,gps_new_fix,gps_time_s,gps_latitude_deg,gps_longitude_deg,gps_altitude_m,gps_east_m,gps_north_m,gps_sigma_m
2026-09-11T18:26:13.952,0.000008,-0.000000,-0.000000,-0.000000,0.000000,-1.043701,0.359072,-0.000000,0.000658,0.001386,0.000000,0.000000,0.000000,-0.012219,-0.001499,0.002869,0.721083,0.324404,9.657393,0.000000,0.000000,0,0,,,,,,,
2026-09-11T18:26:13.986,0.033419,-0.000000,-0.000000,-0.000000,0.000000,-1.043701,0.359072,-0.000000,-0.001077,-0.002268,-0.000015,-0.000000,-0.000007,-0.010566,-0.000421,-0.000784,0.677149,0.384421,9.656805,0.000000,0.000000,0,0,,,,,,,
2026-09-11T18:26:14.020,0.066823,-0.000000,-0.000000,-0.000000,0.000000,-1.043701,0.359072,-0.000000,-0.000414,-0.000872,-0.000067,-0.000000,-0.000032,-0.002018,0.000784,0.000612,0.658615,0.324306,9.674358,0.000000,0.000000,0,0,,,,,,,
2026-09-11T18:26:14.054,0.100232,-0.000000,-0.000000,-0.000000,0.000000,-1.043701,0.359072,-0.000000,-0.000795,-0.001673,-0.000110,-0.000000,-0.000052,0.005019,-0.001644,-0.000190,0.634490,0.349999,9.676124,0.000000,0.000000,0,0,,,,,,,
2026-09-11T18:26:14.087,0.133656,-0.000000,-0.000000,-0.000000,0.000000,-1.043701,0.359072,-0.000000,-0.000655,-0.001379,-0.000161,-0.000000,-0.000076,0.007894,0.000936,0.000105,0.646062,0.384617,9.676026,0.000000,0.000000,0,0,,,,,,,
2026-09-11T18:26:14.121,0.167076,-0.000000,-0.000000,-0.000000,0.000000,-1.043701,0.359072,-0.000000,-0.000297,-0.000625,-0.000194,-0.000000,-0.000092,0.008568,-0.000624,0.000858,0.680974,0.363925,9.667984,0.000000,0.000000,0,0,,,,,,,
2026-09-11T18:26:14.154,0.200498,-0.000000,-0.000000,-0.000000,0.000000,-1.043701,0.359072,-0.000000,0.000294,0.000619,-0.000194,-0.000000,-0.000092,0.003914,-0.001251,0.002102,0.715297,0.395600,9.667396,0.000000,0.000000,0,0,,,,,,,
2026-09-11T18:26:14.188,0.233921,-0.000000,-0.000000,-0.000000,0.000000,-0.992203,0.341354,-0.000000,-0.000536,-0.001128,-0.000203,-0.000000,-0.000096,-0.000817,0.001090,0.000355,0.723535,0.380792,9.666611,0.000000,0.000000,0,0,,,,,,,
2026-09-11T18:26:14.221,0.267340,-0.000000,-0.000000,-0.000000,0.000000,-0.999756,0.343953,-0.000000,0.000642,0.001352,-0.000199,-0.000000,-0.000095,-0.006461,-0.001036,0.002835,0.714807,0.389324,9.663963,0.000000,0.000000,0,0,,,,,,,
2026-09-11T18:26:14.254,0.300759,-0.000000,-0.000000,-0.000000,0.000000,-0.999756,0.343953,-0.000000,0.000656,0.001380,-0.000153,-0.000000,-0.000073,-0.010239,-0.001469,0.002864,0.703921,0.348528,9.666023,0.000000,0.000000,0,0,,,,,,,
2026-09-11T18:26:14.288,0.334175,-0.000000,-0.000000,-0.000000,0.000000,-0.999756,0.343953,-0.000000,-0.001323,-0.002785,-0.000177,-0.000000,-0.000084,-0.007734,0.000927,-0.001302,0.679601,0.371868,9.674947,0.000000,0.000000,0,0,,,,,,,
2026-09-11T18:26:14.321,0.367597,-0.000000,-0.000000,-0.000000,0.000000,-0.999756,0.343953,-0.000000,0.000285,0.000600,-0.000213,-0.000000,-0.000101,-0.004295,-0.001199,0.002083,0.655869,0.352059,9.673966,0.000000,0.000000,0,0,,,,,,,
2026-09-11T18:26:14.356,0.401015,-0.000000,-0.000000,-0.000000,0.000000,-0.999756,0.343953,-0.000000,-0.000425,-0.000894,-0.000218,-0.000000,-0.000104,-0.000573,-0.000319,0.000590,0.665773,0.359708,9.678379,0.000000,0.000000,0,0,,,,,,,
2026-09-11T18:26:14.389,0.434454,-0.000000,-0.000000,-0.000000,0.000000,-0.999756,0.343953,-0.000000,-0.001044,-0.002198,-0.000270,-0.000000,-0.000128,0.003927,0.001785,-0.000715,0.670677,0.358923,9.672299,0.000000,0.000000,0,0,,,,,,,
2026-09-11T18:26:14.422,0.467874,-0.000000,-0.000000,-0.000000,0.000000,-0.999756,0.343953,-0.000000,-0.001068,-0.002248,-0.000344,-0.000000,-0.000164,0.005505,-0.001038,-0.000764,0.690879,0.370299,9.672103,0.000000,0.000000,0,0,,,,,,,
2026-09-11T18:26:14.455,0.501290,-0.000000,-0.000000,-0.000000,0.000000,-0.999756,0.343953,-0.000000,-0.000310,-0.000654,-0.000393,-0.000000,-0.000187,0.002666,-0.000316,0.000830,0.703137,0.378439,9.668082,0.000000,0.000000,0,1,0.482533,38.991413,-76.936702,-10.339000,0.000000,0.000000,3.460645
2026-09-11T18:26:14.488,0.534712,-0.000000,-0.000000,-0.000000,0.000000,-0.999756,0.343953,-0.000000,-0.001394,-0.002935,-0.000453,-0.000000,-0.000215,0.003488,0.002289,-0.001452,0.705883,0.379713,9.669259,0.000000,0.000000,0,0,,38.991413,-76.936702,-10.339000,,,
2026-09-11T18:26:14.522,0.568137,-0.000000,-0.000000,-0.000000,0.000000,-0.999756,0.343953,-0.000000,-0.000236,-0.000497,-0.000510,-0.000000,-0.000242,-0.005606,-0.000199,0.000987,0.688917,0.381773,9.666905,0.000000,0.000000,0,0,,38.991413,-76.936702,-10.339000,,,
2026-09-11T18:26:14.555,0.601554,-0.000000,-0.000000,-0.000000,0.000000,-0.999756,0.343953,-0.000000,-0.000524,-0.001102,-0.000537,-0.000000,-0.000255,-0.006185,-0.000536,0.000381,0.687446,0.371868,9.669455,0.000000,0.000000,0,0,,38.991413,-76.936702,-10.339000,,,
2026-09-11T18:26:14.589,0.634981,-0.000000,-0.000000,-0.000000,0.000000,-0.999756,0.343953,-0.000000,-0.000326,-0.000686,-0.000567,-0.000000,-0.000269,-0.004293,0.001654,0.000798,0.694507,0.364513,9.667886,0.000000,0.000000,0,0,,38.991413,-76.936702,-10.339000,,,
2026-09-11T18:26:14.622,0.668396,-0.000000,-0.000000,-0.000000,0.000000,-0.999756,0.343953,-0.000000,-0.000858,-0.001805,-0.000608,-0.000000,-0.000289,-0.006020,-0.000751,-0.000322,0.683131,0.359414,9.669455,0.000000,0.000000,0,0,,38.991413,-76.936702,-10.339000,,,
2026-09-11T18:26:14.655,0.701813,-0.000000,-0.000000,-0.000000,0.000000,-0.999756,0.343953,-0.000000,-0.000714,-0.001503,-0.000664,-0.000000,-0.000315,-0.000728,0.000453,-0.000019,0.682151,0.359120,9.665238,0.000000,0.000000,0,0,,38.991413,-76.936702,-10.339000,,,
2026-09-11T18:26:14.689,0.735237,-0.000000,-0.000000,-0.000000,0.000000,-0.999756,0.343953,-0.000000,-0.001027,-0.002163,-0.000725,-0.000000,-0.000344,0.002795,0.000973,-0.000679,0.680778,0.359904,9.677006,0.000000,0.000000,0,0,,38.991413,-76.936702,-10.339000,,,
2026-09-11T18:26:14.723,0.768657,-0.000000,-0.000000,-0.000000,0.000000,-0.999756,0.343953,-0.000000,-0.000874,-0.001841,-0.000792,-0.000000,-0.000376,0.003161,0.000403,-0.000357,0.672736,0.368926,9.678575,0.000000,0.000000,0,0,,38.991413,-76.936702,-10.339000,,,
2026-09-11T18:26:14.756,0.802075,-0.000000,-0.000000,-0.000000,0.000000,-0.999756,0.343953,-0.000000,-0.000255,-0.000537,-0.000832,-0.000000,-0.000395,0.002322,0.000870,0.000946,0.684700,0.370888,9.672691,0.000000,0.000000,0,0,,38.991413,-76.936702,-10.339000,,,
2026-09-11T18:26:14.790,0.835511,-0.000000,-0.000000,-0.000000,0.000000,-0.999756,0.343953,-0.000000,-0.000301,-0.000633,-0.000851,-0.000000,-0.000404,0.004403,-0.000223,0.000850,0.698037,0.380988,9.667298,0.000000,0.000000,0,0,,38.991413,-76.936702,-10.339000,,,
2026-09-11T18:26:14.823,0.868930,-0.000000,-0.000000,-0.000000,0.000000,-0.999756,0.343953,-0.000000,-0.000488,-0.001028,-0.000879,-0.000000,-0.000417,-0.003287,0.001626,0.000456,0.692644,0.373830,9.671122,0.000000,0.000000,0,0,,38.991413,-76.936702,-10.339000,,,
2026-09-11T18:26:14.856,0.902358,-0.000000,-0.000000,-0.000000,0.000000,-0.999756,0.343953,-0.000000,-0.000246,-0.000517,-0.000905,-0.000000,-0.000430,-0.003847,0.001483,0.000966,0.689898,0.377556,9.672397,0.000000,0.000000,0,0,,38.991413,-76.936702,-10.339000,,,
2026-09-11T18:26:14.890,0.935785,-0.000000,-0.000000,-0.000000,0.000000,-0.999756,0.343953,-0.000000,0.000326,0.000685,-0.000902,-0.000000,-0.000428,-0.000767,0.000046,0.002169,0.692350,0.373535,9.669651,0.000000,0.000000,0,0,,38.991413,-76.936702,-10.339000,,,
2026-09-11T18:26:14.923,0.969206,-0.000000,-0.000000,-0.000000,0.000000,-0.999756,0.343953,-0.000000,-0.000400,-0.000842,-0.000905,-0.000000,-0.000430,-0.002690,0.000068,0.000641,0.681758,0.365396,9.673182,0.000000,0.000000,0,0,,38.991413,-76.936702,-10.339000,,,
2026-09-11T18:26:14.956,1.002625,-0.000000,-0.000000,-0.000000,0.000000,-0.999756,0.343953,-0.000000,-0.001006,-0.002118,-0.000954,-0.000000,-0.000453,0.001143,0.001124,-0.000635,0.676365,0.363140,9.673966,0.000000,0.000000,0,0,,38.991413,-76.936702,-10.339000,,,
2026-09-11T18:26:14.989,1.036045,-0.000000,-0.000000,-0.000000,0.000000,-0.999756,0.343953,-0.000000,-0.000669,-0.001409,-0.001013,-0.000000,-0.000481,0.001843,-0.000722,0.000074,0.682935,0.364415,9.668671,0.000000,0.000000,0,0,,38.991413,-76.936702,-10.339000,,,
2026-09-11T18:26:15.023,1.069465,-0.000000,-0.000000,-0.000000,0.000000,-0.999756,0.343953,-0.000000,-0.000923,-0.001943,-0.001069,-0.000000,-0.000508,0.001185,0.001588,-0.000459,0.681268,0.369613,9.673966,0.000000,0.000000,0,0,,38.991413,-76.936702,-10.339000,,,
2026-09-11T18:26:15.056,1.102882,-0.000000,-0.000000,-0.000000,0.000000,-0.999756,0.343953,-0.000000,-0.000699,-0.001471,-0.001126,-0.000000,-0.000535,0.003466,0.001157,0.000012,0.684995,0.373339,9.669651,0.000000,0.000000,0,0,,38.991413,-76.936702,-10.339000,,,
2026-09-11T18:26:15.090,1.136298,-0.000000,-0.000000,-0.000000,0.000000,-0.999756,0.343953,-0.000000,-0.000000,-0.000000,-0.001151,-0.000000,-0.000547,0.002595,-0.002217,0.001484,0.699018,0.376477,9.666023,0.000000,0.000000,0,0,,38.991413,-76.936702,-10.339000,,,
2026-09-11T18:26:15.124,1.169714,-0.000000,-0.000000,-0.000000,0.000000,-0.999756,0.343953,-0.000000,-0.000741,-0.001560,-0.001177,-0.000000,-0.000559,-0.001222,0.001086,-0.000077,0.689408,0.370789,9.668376,0.000000,0.000000,0,0,,38.991413,-76.936702,-10.339000,,,
2026-09-11T18:26:15.157,1.203127,-0.000000,-0.000000,-0.000000,0.000000,-0.999756,0.343953,-0.000000,0.000209,0.000440,-0.001195,-0.000000,-0.000568,0.001387,0.001448,0.001924,0.682053,0.370593,9.672201,0.000000,0.000000,0,0,,38.991413,-76.936702,-10.339000,,,
2026-09-11T18:26:15.191,1.236546,-0.000000,-0.000000,-0.000000,0.000000,-0.999756,0.343953,-0.000000,-0.000618,-0.001300,-0.001210,-0.000000,-0.000575,-0.002949,-0.000927,0.000183,0.688427,0.369515,9.675928,0.000000,0.000000,0,0,,38.991413,-76.936702,-10.339000,,,
2026-09-11T18:26:15.224,1.269965,-0.000000,-0.000000,-0.000000,0.000000,-0.999756,0.343953,-0.000000,-0.000815,-0.001717,-0.001260,-0.000000,-0.000599,0.002167,0.000851,-0.000233,0.687446,0.367847,9.676124,0.000000,0.000000,0,0,,38.991413,-76.936702,-10.339000,,,
2026-09-11T18:26:15.257,1.303388,-0.000000,-0.000000,-0.000000,0.000000,-0.999756,0.343953,-0.000000,-0.001536,-0.003233,-0.001343,-0.000000,-0.000638,0.001077,0.001150,-0.001750,0.682249,0.366082,9.672005,0.000000,0.000000,0,0,,38.991413,-76.936702,-10.339000,,,
2026-09-11T18:26:15.290,1.336830,-0.000000,-0.000000,-0.000000,0.000000,-0.999756,0.343953,-0.000000,-0.000480,-0.001010,-0.001414,-0.000000,-0.000672,-0.000273,-0.001506,0.000474,0.689113,0.368338,9.672397,0.000000,0.000000,0,0,,38.991413,-76.936702,-10.339000,,,
2026-09-11T18:26:15.324,1.370236,-0.000000,-0.000000,-0.000000,0.000000,-0.999756,0.343953,-0.000000,-0.000620,-0.001306,-0.001452,-0.000001,-0.000690,0.004274,0.001808,0.000178,0.686466,0.372849,9.667886,0.000000,0.000000,0,0,,38.991413,-76.936702,-10.339000,,,
2026-09-11T18:26:15.357,1.403657,-0.000000,-0.000000,-0.000000,0.000000,-0.999756,0.343953,-0.000000,-0.001609,-0.003388,-0.001531,-0.000001,-0.000727,0.000901,-0.000661,-0.001904,0.679307,0.372162,9.672986,0.000000,0.000000,0,0,,38.991413,-76.936702,-10.339000,,,
2026-09-11T18:26:15.391,1.437079,-0.000000,-0.000000,-0.000000,0.000000,-0.999756,0.343953,-0.000000,0.000277,0.000583,-0.001578,-0.000001,-0.000749,-0.001457,-0.001200,0.002066,0.689898,0.371084,9.672103,0.000000,0.000000,0,0,,38.991413,-76.936702,-10.339000,,,
2026-09-11T18:26:15.424,1.470496,-0.000000,-0.000000,-0.000000,0.000000,-0.999756,0.343953,-0.000000,-0.000643,-0.001354,-0.001591,-0.000001,-0.000756,0.001086,-0.000027,0.000130,0.688231,0.374810,9.676614,0.000000,0.000000,0,0,,38.991413,-76.936702,-10.339000,,,
2026-09-11T18:26:15.458,1.503910,-0.000000,-0.000000,-0.000000,0.000000,-0.999756,0.343953,-0.000000,-0.001180,-0.002483,-0.001655,-0.000001,-0.000786,0.000450,-0.000165,-0.001000,0.683327,0.370103,9.676418,0.000000,0.000000,0,1,1.480231,38.991413,-76.936702,-10.372000,-0.018581,-0.018347,3.460645
2026-09-11T18:26:15.491,1.537335,-0.000000,-0.000000,-0.000000,0.000000,-0.999756,0.343953,-0.000000,-0.001054,-0.002218,-0.001733,-0.000001,-0.000823,0.000459,0.001158,-0.000735,0.690290,0.365298,9.669161,0.000000,0.000000,0,0,,38.991413,-76.936702,-10.372000,,,
2026-09-11T18:26:15.524,1.570750,-0.000000,-0.000000,-0.000000,0.000000,-0.999756,0.343953,-0.000000,-0.000931,-0.001960,-0.001803,-0.000001,-0.000856,0.002156,-0.000273,-0.000476,0.691663,0.373535,9.674653,0.000000,0.000000,0,0,,38.991413,-76.936702,-10.372000,,,
2026-09-11T18:26:15.557,1.604165,-0.000000,-0.000000,-0.000000,0.000000,-0.999756,0.343953,-0.000000,0.000833,0.001754,-0.001807,-0.000001,-0.000858,0.002648,-0.000393,0.003238,0.681268,0.366376,9.675241,0.000000,0.000000,0,0,,38.991413,-76.936702,-10.372000,,,
2026-09-11T18:26:15.591,1.637581,-0.000000,-0.000000,-0.000000,0.000000,-0.999756,0.343953,-0.000000,-0.000080,-0.000167,-0.001780,-0.000001,-0.000846,0.002606,0.001535,0.001316,0.685485,0.372849,9.673182,0.000000,0.000000,0,0,,38.991413,-76.936702,-10.372000,,,
2026-09-11T18:26:15.625,1.671000,-0.000000,-0.000000,-0.000000,0.000000,-0.999756,0.343953,-0.000000,0.000010,0.000021,-0.001783,-0.000001,-0.000847,0.001294,-0.000405,0.001505,0.692546,0.373045,9.667396,0.000000,0.000000,0,0,,38.991413,-76.936702,-10.372000,,,
2026-09-11T18:26:15.658,1.704428,-0.000000,-0.000000,-0.000000,0.000000,-0.999756,0.343953,-0.000000,-0.000201,-0.000424,-0.001789,-0.000001,-0.000850,-0.001396,-0.000665,0.001060,0.682053,0.371868,9.675928,0.000000,0.000000,0,0,,38.991413,-76.936702,-10.372000,,,
2026-09-11T18:26:15.692,1.737851,-0.000000,-0.000000,-0.000000,0.000000,-0.999756,0.343953,-0.000000,-0.000850,-0.001790,-0.001826,-0.000001,-0.000867,-0.000373,0.001453,-0.000307,0.688623,0.368828,9.667886,0.000000,0.000000,0,0,,38.991413,-76.936702,-10.372000,,,
2026-09-11T18:26:15.725,1.771274,-0.000000,-0.000000,-0.000000,0.000000,-0.999756,0.343953,-0.000000,-0.000224,-0.000471,-0.001864,-0.000001,-0.000885,-0.001276,-0.001435,0.001013,0.689604,0.370103,9.672887,0.000000,0.000000,0,0,,38.991413,-76.936702,-10.372000,,,
2026-09-11T18:26:15.758,1.804693,-0.000000,-0.000000,-0.000000,0.000000,-0.999756,0.343953,-0.000000,-0.000999,-0.002104,-0.001907,-0.000001,-0.000906,-0.000254,-0.001280,-0.000620,0.685681,0.369122,9.674162,0.000000,0.000000,0,0,,38.991413,-76.936702,-10.372000,,,
2026-09-11T18:26:15.792,1.838113,-0.000000,-0.000000,-0.000000,0.000000,-0.999756,0.343953,-0.000000,-0.001221,-0.002570,-0.001985,-0.000001,-0.000943,0.000542,0.001029,-0.001086,0.689898,0.372751,9.676614,0.000000,0.000000,0,0,,38.991413,-76.936702,-10.372000,,,
2026-09-11T18:26:15.825,1.871526,-0.000000,-0.000000,-0.000000,0.000000,-0.999756,0.343953,-0.000000,-0.000111,-0.000234,-0.002032,-0.000001,-0.000965,0.002245,-0.001096,0.001250,0.689604,0.371280,9.671613,0.000000,0.000000,0,0,,38.991413,-76.936702,-10.372000,,,
2026-09-11T18:26:15.858,1.904948,-0.000000,-0.000000,-0.000000,0.000000,-0.999756,0.343953,-0.000000,0.000800,0.001684,-0.002008,-0.000001,-0.000954,-0.002043,-0.001831,0.003167,0.683720,0.372555,9.671907,0.000000,0.000000,0,0,,38.991413,-76.936702,-10.372000,,,
2026-09-11T18:26:15.892,1.938368,-0.000000,-0.000000,-0.000000,0.000000,-0.999756,0.343953,-0.000000,-0.000615,-0.001294,-0.002001,-0.000001,-0.000951,0.003215,0.000424,0.000189,0.689604,0.370299,9.666905,0.000000,0.000000,0,0,,38.991413,-76.936702,-10.372000,,,
2026-09-11T18:26:15.925,1.971781,-0.000000,-0.000000,-0.000000,0.000000,-0.999756,0.343953,-0.000000,0.000772,0.001625,-0.001996,-0.000001,-0.000948,-0.002552,-0.001640,0.003109,0.690094,0.372064,9.670436,0.000000,0.000000,0,0,,38.991413,-76.936702,-10.372000,,,
2026-09-11T18:26:15.959,2.005201,-0.000000,-0.000000,-0.000000,0.000000,-0.999756,0.343953,-0.000000,0.000029,0.000060,-0.001968,-0.000001,-0.000935,-0.001786,-0.001975,0.001544,0.684995,0.371378,9.675928,0.000000,0.000000,0,0,,38.991413,-76.936702,-10.372000,,,
2026-09-11T18:26:15.993,2.038625,-0.000000,-0.000000,-0.000000,0.000000,-0.999756,0.343953,-0.000000,-0.000120,-0.000254,-0.001971,-0.000001,-0.000936,0.002294,0.000119,0.001230,0.687642,0.369318,9.667690,0.000000,0.000000,0,0,,38.991413,-76.936702,-10.372000,,,
2026-09-11T18:26:16.025,2.072053,-0.000000,-0.000000,-0.000000,0.000000,-0.999756,0.343953,-0.000000,0.000952,0.002005,-0.001941,-0.000001,-0.000922,-0.003114,-0.001871,0.003488,0.689113,0.371770,9.671122,0.000000,0.000000,0,0,,38.991413,-76.936702,-10.372000,,,
2026-09-11T18:26:16.059,2.105470,-0.000000,-0.000000,-0.000000,0.000000,-0.999756,0.343953,-0.000000,-0.000385,-0.000812,-0.001922,-0.000001,-0.000913,-0.001904,-0.001046,0.000672,0.685485,0.368338,9.669455,0.000000,0.000000,0,0,,38.991413,-76.936702,-10.372000,,,
2026-09-11T18:26:16.093,2.138890,-0.000000,-0.000000,-0.000000,0.000000,-0.999756,0.343953,-0.000000,-0.000674,-0.001420,-0.001959,-0.000001,-0.000930,0.001046,-0.000447,0.000064,0.687152,0.369318,9.669945,0.000000,0.000000,0,0,,38.991413,-76.936702,-10.372000,,,
2026-09-11T18:26:16.126,2.172304,-0.000000,-0.000000,-0.000000,0.000000,-0.999756,0.343953,-0.000000,-0.001004,-0.002113,-0.002018,-0.000001,-0.000958,0.000527,-0.000474,-0.000630,0.688427,0.372359,9.667886,0.000000,0.000000,0,0,,38.991413,-76.936702,-10.372000,,,
2026-09-11T18:26:16.159,2.205727,-0.000000,-0.000000,-0.000000,0.000000,-0.999756,0.343953,-0.000000,-0.000219,-0.000462,-0.002061,-0.000001,-0.000979,-0.003462,-0.000850,0.001022,0.686269,0.373045,9.672397,0.000000,0.000000,0,0,,38.991413,-76.936702,-10.372000,,,
2026-09-11T18:26:16.193,2.239156,-0.000000,-0.000000,-0.000000,0.000000,-0.999756,0.343953,-0.000000,-0.000003,-0.000007,-0.002069,-0.000001,-0.000983,0.001800,-0.000442,0.001476,0.686760,0.373339,9.674653,0.000000,0.000000,0,0,,38.991413,-76.936702,-10.372000,,,
2026-09-11T18:26:16.226,2.272574,-0.000000,-0.000000,-0.000000,0.000000,-0.999756,0.343953,-0.000000,0.000566,0.001191,-0.002049,-0.000001,-0.000973,-0.004246,-0.000715,0.002674,0.690879,0.372751,9.671416,0.000000,0.000000,0,0,,38.991413,-76.936702,-10.372000,,,
2026-09-11T18:26:16.259,2.306009,-0.000000,-0.000000,-0.000000,0.000000,-0.999756,0.343953,-0.000000,-0.000234,-0.000493,-0.002037,-0.000001,-0.000968,-0.002497,0.000952,0.000991,0.686760,0.372064,9.678870,0.000000,0.000000,0,0,,38.991413,-76.936702,-10.372000,,,
2026-09-11T18:26:16.293,2.339435,-0.000000,-0.000000,-0.000000,0.000000,-0.999756,0.343953,-0.000000,0.000162,0.000341,-0.002040,-0.000001,-0.000969,0.000213,-0.001372,0.001824,0.686760,0.372849,9.675437,0.000000,0.000000,0,0,,38.991413,-76.936702,-10.372000,,,
2026-09-11T18:26:16.326,2.372856,-0.000000,-0.000000,-0.000000,0.000000,-0.999756,0.343953,-0.000000,0.000230,0.000483,-0.002026,-0.000001,-0.000962,-0.002023,-0.000127,0.001967,0.686466,0.369613,9.670436,0.000000,0.000000,0,0,,38.991413,-76.936702,-10.372000,,,
2026-09-11T18:26:16.359,2.406267,-0.000000,-0.000000,-0.000000,0.000000,-0.999756,0.343953,-0.000000,-0.000093,-0.000196,-0.002021,-0.000001,-0.000960,-0.000407,-0.000210,0.001288,0.687642,0.372359,9.668965,0.000000,0.000000,0,0,,38.991413,-76.936702,-10.372000,,,
2026-09-11T18:26:16.394,2.439694,-0.000000,-0.000000,-0.000000,0.000000,-0.999756,0.343953,-0.000000,0.000261,0.000549,-0.002015,-0.000001,-0.000957,-0.000618,-0.001430,0.002032,0.690682,0.372751,9.673182,0.000000,0.000000,0,0,,38.991413,-76.936702,-10.372000,,,
2026-09-11T18:26:16.426,2.473110,-0.000000,-0.000000,-0.000000,0.000000,-0.999756,0.343953,-0.000000,-0.000611,-0.001286,-0.002028,-0.000001,-0.000963,-0.000711,-0.000474,0.000197,0.688623,0.374810,9.667396,0.000000,0.000000,0,0,,38.991413,-76.936702,-10.372000,,,
2026-09-11T18:26:16.460,2.506529,-0.000000,-0.000000,-0.000000,0.000000,-0.999756,0.343953,-0.000000,-0.000312,-0.000656,-0.002060,-0.000001,-0.000979,-0.000108,0.001386,0.000828,0.690192,0.375301,9.669651,0.000000,0.000000,0,1,2.482799,38.991413,-76.936702,-10.424000,-0.035290,-0.036880,3.460645
2026-09-11T18:26:16.493,2.539956,-0.000000,-0.000000,-0.000000,0.000000,-0.999756,0.343953,-0.000000,-0.000092,-0.000193,-0.002074,-0.000001,-0.000985,-0.000784,-0.001628,0.001290,0.684014,0.369613,9.669161,0.000000,0.000000,0,0,,38.991413,-76.936702,-10.424000,,,
2026-09-11T18:26:16.526,2.573378,-0.000000,-0.000000,-0.000000,0.000000,-0.999756,0.343953,-0.000000,-0.000665,-0.001400,-0.002101,-0.000001,-0.000998,-0.001831,0.000833,0.000084,0.688917,0.371084,9.669945,0.000000,0.000000,0,0,,38.991413,-76.936702,-10.424000,,,
2026-09-11T18:26:16.560,2.606788,-0.000000,-0.000000,-0.000000,0.000000,-0.999756,0.343953,-0.000000,-0.001112,-0.002341,-0.002163,-0.000001,-0.001028,-0.000219,0.000663,-0.000858,0.687250,0.371280,9.674947,0.000000,0.000000,0,0,,38.991413,-76.936702,-10.424000,,,
2026-09-11T18:26:16.594,2.640214,-0.000000,-0.000000,-0.000000,0.000000,-0.999756,0.343953,-0.000000,-0.000030,-0.000063,-0.002204,-0.000001,-0.001047,-0.002283,-0.001232,0.001421,0.687642,0.369613,9.669455,0.000000,0.000000,0,0,,38.991413,-76.936702,-10.424000,,,
2026-09-11T18:26:16.627,2.673638,-0.000000,-0.000000,-0.000000,0.000000,-0.999756,0.343953,-0.000000,-0.000209,-0.000439,-0.002212,-0.000001,-0.001051,0.001596,0.000969,0.001044,0.692251,0.363336,9.658177,0.000000,0.000000,0,0,,38.991413,-76.936702,-10.424000,,,
2026-09-11T18:26:16.660,2.707054,-0.000000,-0.000000,-0.000000,0.000000,-0.999756,0.343953,-0.000000,-0.000674,-0.001419,-0.002243,-0.000001,-0.001065,0.001246,0.001079,0.000064,0.686269,0.386382,9.663179,0.000000,0.000000,0,0,,38.991413,-76.936702,-10.424000,,,
2026-09-11T18:26:16.694,2.740476,-0.000000,-0.000000,-0.000000,0.000000,-0.999756,0.343953,-0.000000,0.000573,0.001206,-0.002247,-0.000001,-0.001067,-0.000530,-0.000482,0.002690,0.687642,0.385009,9.594238,0.000000,0.000000,0,0,,38.991413,-76.936702,-10.424000,,,
2026-09-11T18:26:16.727,2.773887,-0.000000,-0.000000,-0.000000,0.000000,-0.955811,0.328834,-0.000000,-0.002871,-0.006044,-0.002327,-0.000001,-0.001106,0.001649,0.000399,-0.004561,0.699214,1.035975,9.988073,0.000000,0.000000,0,0,,38.991413,-76.936702,-10.424000,,,
2026-09-11T18:26:16.760,2.807300,-0.000000,-0.000000,-0.000000,0.000000,-0.528717,0.181898,-0.000000,0.000705,0.001485,-0.002404,-0.000001,-0.001142,0.009411,-0.001348,0.002968,0.924669,0.398935,9.987387,0.000000,0.000000,0,0,,38.991413,-76.936702,-10.424000,,,
2026-09-11T18:26:16.794,2.840722,-0.000000,-0.000000,-0.000000,0.000000,-2.956009,1.016976,-0.000000,0.010167,0.021405,-0.002021,-0.000001,-0.000960,0.002593,-0.002112,0.022889,0.509848,0.735205,9.819987,0.000000,0.000000,0,0,,38.991413,-76.936702,-10.424000,,,
2026-09-11T18:26:16.827,2.874138,-0.000000,-0.000000,-0.000000,0.000000,-3.219681,1.107688,-0.000000,0.001849,0.003893,-0.001598,-0.000001,-0.000759,-0.015944,0.000972,0.005376,0.588987,-0.675090,9.716821,0.000000,0.000000,0,0,,38.991413,-76.936702,-10.424000,,,
2026-09-11T18:26:16.861,2.907546,-0.000000,-0.000000,-0.000000,0.000000,-1.174164,0.403955,-0.000000,-0.011583,-0.024386,-0.001941,-0.000001,-0.000922,-0.036774,0.000294,-0.022903,0.573493,0.575160,9.596788,0.000000,0.000000,0,0,,38.991413,-76.936702,-10.424000,,,
2026-09-11T18:26:16.894,2.940971,-0.000000,-0.000000,-0.000000,0.000000,0.767670,-0.264107,-0.000000,-0.010378,-0.021849,-0.002713,-0.000002,-0.001289,-0.040033,-0.000715,-0.020365,0.672442,0.088554,9.562072,0.000000,0.000000,0,0,,38.991413,-76.936702,-10.424000,,,
2026-09-11T18:26:16.927,2.974388,-0.000000,-0.000000,-0.000000,0.000000,0.802002,-0.275918,-0.000000,-0.005435,-0.011443,-0.003270,-0.000003,-0.001553,-0.012985,0.002473,-0.009959,0.804047,0.849452,9.650626,0.000000,0.000000,0,0,,38.991413,-76.936702,-10.424000,,,
2026-09-11T18:26:16.961,3.007797,-0.000000,-0.000000,-0.000000,0.000000,0.802002,-0.275918,-0.000000,0.006811,0.014339,-0.003221,-0.000002,-0.001530,0.036093,-0.001662,0.015823,0.849550,-0.017358,9.587962,0.000000,0.000000,0,0,,38.991413,-76.936702,-10.424000,,,
2026-09-11T18:26:16.995,3.041218,-0.000000,-0.000000,-0.000000,0.000000,0.691452,-0.237885,-0.000000,-0.002599,-0.005471,-0.003073,-0.000002,-0.001460,0.022070,-0.000486,-0.003988,0.540444,0.244284,9.715841,0.000000,0.000000,0,0,,38.991413,-76.936702,-10.424000,,,
2026-09-11T18:26:17.028,3.074633,-0.000000,-0.000000,-0.000000,0.000000,0.691452,-0.237885,-0.000000,-0.002188,-0.004607,-0.003241,-0.000002,-0.001540,0.008789,0.001648,-0.003123,0.454636,0.547309,9.726726,0.000000,0.000000,0,0,,38.991413,-76.936702,-10.424000,,,
2026-09-11T18:26:17.061,3.108046,-0.000000,-0.000000,-0.000000,0.000000,0.310364,-0.106777,-0.000000,0.003486,0.007338,-0.003196,-0.000002,-0.001518,0.009112,0.001513,0.008822,0.705785,0.278999,9.706720,0.000000,0.000000,0,0,,38.991413,-76.936702,-10.424000,,,
2026-09-11T18:26:17.095,3.141470,-0.000000,-0.000000,-0.000000,0.000000,-0.385895,0.132762,-0.000000,0.003334,0.007020,-0.002956,-0.000002,-0.001404,0.011514,0.000822,0.008503,0.796692,0.358825,9.647488,0.000000,0.000000,0,0,,38.991413,-76.936702,-10.424000,,,
2026-09-11T18:26:17.128,3.174890,-0.000000,-0.000000,-0.000000,0.000000,-1.221542,0.420255,-0.000000,0.001784,0.003756,-0.002776,-0.000002,-0.001319,0.011512,-0.000488,0.005239,0.700783,0.414233,9.665827,0.000000,0.000000,0,0,,38.991413,-76.936702,-10.424000,,,
2026-09-11T18:26:17.162,3.208306,-0.000000,-0.000000,-0.000000,0.000000,-1.911621,0.657668,-0.000000,0.001394,0.002935,-0.002664,-0.000002,-0.001265,-0.002022,0.000061,0.004418,0.686662,0.316068,9.689363,0.000000,0.000000,0,0,,38.991413,-76.936702,-10.424000,,,
2026-09-11T18:26:17.195,3.241734,-0.000000,-0.000000,-0.000000,0.000000,-2.348328,0.807911,-0.000000,0.001995,0.004200,-0.002545,-0.000002,-0.001209,-0.004557,0.002180,0.005683,0.732557,0.388932,9.682008,0.000000,0.000000,0,0,,38.991413,-76.936702,-10.424000,,,
2026-09-11T18:26:17.228,3.275149,-0.000000,-0.000000,-0.000000,0.000000,-2.741776,0.943271,-0.000000,0.000893,0.001880,-0.002443,-0.000001,-0.001161,-0.007936,0.001411,0.003364,0.801301,0.374712,9.654647,0.000000,0.000000,0,0,,38.991413,-76.936702,-10.424000,,,
2026-09-11T18:26:17.262,3.308570,-0.000000,-0.000000,-0.000000,0.000000,-3.194962,1.099184,-0.000000,0.001553,0.003270,-0.002357,-0.000001,-0.001120,-0.013604,0.001164,0.004754,0.774725,0.370397,9.653961,0.000000,0.000000,0,0,,38.991413,-76.936702,-10.424000,,,
2026-09-11T18:26:17.295,3.341993,-0.000000,-0.000000,-0.000000,0.000000,-3.830795,1.317934,-0.000000,0.002011,0.004233,-0.002232,-0.000001,-0.001060,-0.007019,0.002076,0.005717,0.769332,0.358923,9.670436,0.000000,0.000000,0,0,,38.991413,-76.936702,-10.424000,,,
2026-09-11T18:26:17.329,3.375410,0.340359,0.009912,3.151475,0.000000,-4.583359,1.576844,0.340230,0.001340,0.002821,-0.002114,0.005684,-0.001016,-0.006452,0.000458,0.004305,0.720200,0.386284,9.664356,0.000000,0.000000,0,0,,38.991413,-76.936702,-10.424000,,,
2026-09-11T18:26:17.362,3.408828,0.134480,0.015341,1.245186,0.000000,-5.291977,1.820634,0.134412,0.001517,0.003195,-0.002013,0.013615,-0.000985,-0.012676,0.002348,0.004678,0.716474,0.348136,9.670926,0.000000,0.000000,0,0,,38.991413,-76.936702,-10.424000,,,
2026-09-11T18:26:17.396,3.442256,0.026639,0.015278,0.246653,0.000000,-5.945663,2.045526,0.026622,0.001966,0.004139,-0.001891,0.016306,-0.000932,-0.012938,0.001943,0.005622,0.710296,0.310969,9.667494,0.000000,0.000000,0,0,,38.991413,-76.936702,-10.424000,,,
2026-09-11T18:26:17.429,3.475669,0.007031,0.015295,0.065102,0.000000,-6.610336,2.274198,0.007025,0.001944,0.004094,-0.001753,0.016869,-0.000868,-0.013196,-0.000201,0.005577,0.716964,0.386578,9.669651,0.000000,0.000000,0,0,,38.991413,-76.936702,-10.424000,,,
2026-09-11T18:26:17.463,3.509084,-0.000000,0.015170,-0.000000,0.000000,-7.123947,2.450899,-0.000000,0.001143,0.002406,-0.001645,0.016986,-0.000816,-0.015714,0.002946,0.003889,0.707746,0.295769,9.674947,0.000000,0.000000,0,1,3.488841,38.991413,-76.936702,-10.470000,-0.061506,-0.068941,3.553919
2026-09-11T18:26:17.497,3.542504,-0.000000,0.015170,-0.000000,0.000000,-7.426758,2.555077,-0.000000,0.001398,0.002942,-0.001555,0.016986,-0.000774,-0.013369,0.002802,0.004426,0.726869,0.277822,9.694756,0.000000,0.000000,0,0,,38.991413,-76.936702,-10.470000,,,
2026-09-11T18:26:17.529,3.575919,-0.000000,0.015170,-0.000000,0.000000,-7.481003,2.573739,-0.000000,0.001537,0.003236,-0.001452,0.016986,-0.000725,-0.014125,0.002172,0.004719,0.813560,0.378341,9.650822,0.000000,0.000000,0,0,,38.991413,-76.936702,-10.470000,,,
2026-09-11T18:26:17.563,3.609336,-0.000000,0.015170,-0.000000,0.000000,-7.482376,2.574212,-0.000000,0.000506,0.001065,-0.001380,0.016986,-0.000691,-0.005989,0.001091,0.002549,0.810127,0.354707,9.641408,0.000000,0.000000,0,0,,38.991413,-76.936702,-10.470000,,,
2026-09-11T18:26:17.596,3.642759,-0.000000,0.015170,-0.000000,0.000000,-7.570267,2.604450,-0.000000,0.002223,0.004680,-0.001284,0.016986,-0.000645,0.005056,0.001485,0.006163,0.841607,0.303908,9.680831,0.000000,0.000000,0,0,,38.991413,-76.936702,-10.470000,,,
2026-09-11T18:26:17.629,3.676170,-0.000000,0.015170,-0.000000,0.000000,-7.798233,2.682878,-0.000000,0.002215,0.004662,-0.001128,0.016986,-0.000571,0.009402,0.000624,0.006146,0.850335,0.303810,9.710447,0.000000,0.000000,0,0,,38.991413,-76.936702,-10.470000,,,
2026-09-11T18:26:17.663,3.709583,-0.000000,0.015170,-0.000000,0.000000,-8.002167,2.753039,-0.000000,0.001892,0.003982,-0.000984,0.016986,-0.000502,0.019279,0.001439,0.005466,0.832781,0.299789,9.679850,0.000000,0.000000,0,0,,38.991413,-76.936702,-10.470000,,,
2026-09-11T18:26:17.697,3.743002,0.009804,0.015614,0.090776,0.000000,-8.339310,2.869029,0.009791,0.002451,0.005161,-0.000831,0.017150,-0.000430,0.021047,0.000953,0.006644,0.778060,0.307340,9.720548,0.000000,0.000000,0,0,,38.991413,-76.936702,-10.470000,,,
2026-09-11T18:26:17.729,3.776411,0.009804,0.015939,0.090776,0.000000,-8.633881,2.970372,0.009791,0.002004,0.004219,-0.000674,0.017477,-0.000356,0.009608,-0.000563,0.005703,0.759525,0.287433,9.641016,0.000000,0.000000,0,0,,38.991413,-76.936702,-10.470000,,,
2026-09-11T18:26:17.763,3.809822,0.009804,0.016263,0.090776,0.000000,-8.668900,2.982420,0.009790,0.001772,0.003730,-0.000541,0.017804,-0.000293,0.002322,0.000499,0.005214,0.785317,0.342742,9.607575,0.000000,0.000000,0,0,,38.991413,-76.936702,-10.470000,,,
2026-09-11T18:26:17.797,3.843236,0.009804,0.016594,0.090776,0.000000,-8.668900,2.982420,0.009790,0.001667,0.003509,-0.000421,0.018132,-0.000236,-0.007488,-0.001679,0.004993,0.759525,0.451890,9.578155,0.000000,0.000000,0,0,,38.991413,-76.936702,-10.470000,,,
2026-09-11T18:26:17.830,3.876648,0.298460,0.024227,2.763518,0.000000,-8.668900,2.982420,0.298056,0.002307,0.004856,-0.000281,0.023275,-0.000171,-0.016698,-0.003700,0.006340,0.650671,0.207509,9.683871,0.000000,0.000000,0,0,,38.991413,-76.936702,-10.470000,,,
2026-09-11T18:26:17.863,3.910060,0.162397,0.030630,1.503679,0.000000,-8.712845,2.997538,0.162175,0.002102,0.004426,-0.000126,0.030963,-0.000099,-0.024637,0.000264,0.005910,0.652731,0.193976,9.586197,0.000000,0.000000,0,0,,38.991413,-76.936702,-10.470000,,,
2026-09-11T18:26:17.897,3.943477,0.026335,0.030579,0.243840,0.000000,-8.712845,2.997538,0.026299,0.001635,0.003442,0.000006,0.034112,-0.000037,-0.027772,0.001214,0.004925,0.596146,0.365102,9.640722,0.000000,0.000000,0,0,,38.991413,-76.936702,-10.470000,,,
2026-09-11T18:26:17.930,3.976892,0.006897,0.030670,0.063863,0.000000,-8.712845,2.997538,0.006888,0.003526,0.007424,0.000187,0.034667,0.000050,-0.033077,-0.002591,0.008908,0.621055,0.351568,9.674751,0.000000,0.000000,0,0,,38.991413,-76.936702,-10.470000,,,
2026-09-11T18:26:17.964,4.010307,-0.000000,0.030567,-0.000000,0.000000,-8.712845,2.997538,-0.000000,0.003381,0.007119,0.000430,0.034782,0.000165,-0.028311,-0.002385,0.008602,0.547113,0.337545,9.644939,0.000000,0.000000,0,0,,38.991413,-76.936702,-10.470000,,,
2026-09-11T18:26:17.997,4.043722,0.009719,0.030943,0.089988,0.000000,-8.712845,2.997538,0.009705,0.001802,0.003793,0.000613,0.034944,0.000252,-0.028521,-0.003080,0.005277,0.436788,0.234183,9.762520,0.000000,0.000000,0,0,,38.991413,-76.936702,-10.470000,,,
2026-09-11T18:26:18.030,4.077138,0.009719,0.031268,0.089988,0.000000,-8.712845,2.997538,0.009705,0.001019,0.002146,0.000712,0.035268,0.000299,-0.027683,-0.000699,0.003629,0.416292,0.221336,9.666709,0.000000,0.000000,0,0,,38.991413,-76.936702,-10.470000,,,
2026-09-11T18:26:18.064,4.110550,0.009719,0.031598,0.089988,0.000000,-8.712845,2.997538,0.009705,0.000025,0.000053,0.000749,0.035592,0.000317,-0.018866,-0.001638,0.001537,0.459049,0.346371,9.692108,0.000000,0.000000,0,0,,38.991413,-76.936702,-10.470000,,,
2026-09-11T18:26:18.099,4.144072,0.009719,0.031923,0.089988,0.000000,-8.712845,2.997538,0.009705,0.000152,0.000320,0.000755,0.035918,0.000320,-0.006260,-0.001117,0.001804,0.492392,0.237713,9.691520,0.000000,0.000000,0,0,,38.991413,-76.936702,-10.470000,,,
2026-09-11T18:26:18.131,4.177485,0.009719,0.032242,0.089988,0.000000,-8.712845,2.997538,0.009705,0.000079,0.000165,0.000763,0.036242,0.000324,-0.006032,-0.000296,0.001649,0.471994,0.199663,9.688186,0.000000,0.000000,0,0,,38.991413,-76.936702,-10.470000,,,
2026-09-11T18:26:18.164,4.210892,0.009719,0.032567,0.089988,0.000000,-8.712845,2.997538,0.009705,-0.000040,-0.000084,0.000764,0.036566,0.000325,0.004155,-0.000582,0.001400,0.466012,0.267623,9.679262,0.000000,0.000000,0,0,,38.991413,-76.936702,-10.470000,,,
2026-09-11T18:26:18.198,4.244314,0.009719,0.032897,0.089988,0.000000,-8.712845,2.997538,0.009705,0.000020,0.000042,0.000764,0.036891,0.000325,0.004394,-0.001793,0.001525,0.497589,0.249677,9.679556,0.000000,0.000000,0,0,,38.991413,-76.936702,-10.470000,,,
2026-09-11T18:26:18.231,4.277725,0.009719,0.033222,0.089988,0.000000,-8.712845,2.997538,0.009705,-0.002487,-0.005237,0.000677,0.037215,0.000284,0.008221,0.000428,-0.003753,0.542994,0.254581,9.678379,0.000000,0.000000,0,0,,38.991413,-76.936702,-10.470000,,,
2026-09-11T18:26:18.264,4.311140,0.009719,0.033547,0.089988,0.000000,-8.712845,2.997538,0.009705,-0.001978,-0.004164,0.000520,0.037539,0.000209,0.006512,-0.000176,-0.002680,0.551134,0.262720,9.677791,0.000000,0.000000,0,0,,38.991413,-76.936702,-10.470000,,,
2026-09-11T18:26:18.298,4.344557,0.009719,0.033871,0.089988,0.000000,-8.712845,2.997538,0.009705,-0.001411,-0.002971,0.000401,0.037864,0.000153,0.003952,-0.001147,-0.001487,0.554468,0.283706,9.669553,0.000000,0.000000,0,0,,38.991413,-76.936702,-10.470000,,,
2026-09-11T18:26:18.331,4.377969,0.009719,0.034196,0.089988,0.000000,-8.712845,2.997538,0.009705,-0.001574,-0.003314,0.000296,0.038188,0.000103,0.006890,0.000775,-0.001830,0.623997,0.258209,9.664454,0.000000,0.000000,0,0,,38.991413,-76.936702,-10.470000,,,
2026-09-11T18:26:18.365,4.411382,0.009719,0.034521,0.089988,0.000000,-8.712845,2.997538,0.009705,-0.000491,-0.001034,0.000223,0.038512,0.000069,-0.000041,-0.000818,0.000450,0.666264,0.274782,9.703582,0.000000,0.000000,0,0,,38.991413,-76.936702,-10.470000,,,
2026-09-11T18:26:18.398,4.444803,-0.174938,0.026836,-1.619793,0.000000,-8.712845,2.997538,-0.174698,-0.000645,-0.001357,0.000183,0.035755,0.000049,-0.001965,-0.000581,0.000127,0.715984,0.256444,9.669357,0.000000,0.000000,0,0,,38.991413,-76.936702,-10.470000,,,
2026-09-11T18:26:18.432,4.478232,-0.088341,0.023088,-0.817970,0.000000,-8.712845,2.997538,-0.088220,-0.002459,-0.005176,0.000074,0.031361,-0.000003,-0.004128,0.000859,-0.003693,0.762859,0.289296,9.667984,0.000000,0.000000,0,0,,38.991413,-76.936702,-10.470000,,,
2026-09-11T18:26:18.465,4.511643,-0.020988,0.023105,-0.194330,0.000000,-8.712845,2.997538,-0.020959,-0.002073,-0.004363,-0.000086,0.029537,-0.000079,-0.009335,-0.000150,-0.002880,0.798752,0.285275,9.671907,0.000000,0.000000,0,0,,38.991413,-76.936702,-10.470000,,,
2026-09-11T18:26:18.499,4.545062,-0.000000,0.023276,-0.000000,0.000000,-8.712845,2.997538,-0.000000,-0.001368,-0.002879,-0.000207,0.029187,-0.000136,-0.013799,0.000173,-0.001396,0.806891,0.299789,9.662394,0.000000,0.000000,0,0,,38.991413,-76.936702,-10.470000,,,
2026-09-11T18:26:18.532,4.578471,-0.000000,0.023276,-0.000000,0.000000,-8.712845,2.997538,-0.000000,-0.000103,-0.000216,-0.000258,0.029187,-0.000161,-0.013243,0.000302,0.001267,0.813952,0.290669,9.671515,0.000000,0.000000,0,0,,38.991413,-76.936702,-10.470000,,,
2026-09-11T18:26:18.566,4.611990,-0.000000,0.023276,-0.000000,0.000000,-8.712845,2.997538,-0.000000,0.000797,0.001678,-0.000234,0.029187,-0.000149,-0.015959,-0.001071,0.003162,0.821503,0.253894,9.669749,0.000000,0.000000,0,0,,38.991413,-76.936702,-10.470000,,,
2026-09-11T18:26:18.599,4.645407,-0.000000,0.023276,-0.000000,0.000000,-8.712845,2.997538,-0.000000,-0.000839,-0.001765,-0.000235,0.029187,-0.000150,-0.010592,-0.001019,-0.000282,0.820228,0.270369,9.676516,0.000000,0.000000,0,0,,38.991413,-76.936702,-10.470000,,,
2026-09-11T18:26:18.633,4.678825,-0.000000,0.023276,-0.000000,0.000000,-8.712845,2.997538,-0.000000,-0.000690,-0.001452,-0.000289,0.029187,-0.000176,-0.001518,-0.001214,0.000032,0.796104,0.239871,9.669651,0.000000,0.000000,0,0,,38.991413,-76.936702,-10.470000,,,
2026-09-11T18:26:18.666,4.712247,-0.000000,0.023276,-0.000000,0.000000,-8.712845,2.997538,-0.000000,-0.000017,-0.000036,-0.000314,0.029187,-0.000187,-0.002612,-0.001259,0.001447,0.755799,0.252914,9.680046,0.000000,0.000000,0,1,4.696913,38.991412,-76.936703,-10.498000,-0.074182,-0.104709,3.553540
2026-09-11T18:26:18.699,4.745663,-0.000000,0.023276,-0.000000,0.000000,-8.712845,2.997538,-0.000000,-0.000159,-0.000334,-0.000320,0.029187,-0.000190,0.000159,0.000020,0.001149,0.712257,0.277430,9.678379,0.000000,0.000000,0,0,,38.991412,-76.936703,-10.498000,,,
2026-09-11T18:26:18.733,4.779079,-0.000000,0.023276,-0.000000,0.000000,-8.712845,2.997538,-0.000000,-0.000064,-0.000135,-0.000328,0.029187,-0.000194,0.006273,-0.001080,0.001348,0.695684,0.257621,9.672005,0.000000,0.000000,0,0,,38.991412,-76.936703,-10.498000,,,
2026-09-11T18:26:18.766,4.812497,-0.000000,0.023276,-0.000000,0.000000,-8.712845,2.997538,-0.000000,-0.000016,-0.000035,-0.000331,0.029187,-0.000195,0.007116,0.000190,0.001449,0.691369,0.264191,9.681125,0.000000,0.000000,0,0,,38.991412,-76.936703,-10.498000,,,
2026-09-11T18:26:18.800,4.845915,-0.000000,0.023276,-0.000000,0.000000,-8.712845,2.997538,-0.000000,-0.000515,-0.001083,-0.000349,0.029187,-0.000204,0.007105,0.001078,0.000400,0.688133,0.265662,9.673378,0.000000,0.000000,0,0,,38.991412,-76.936703,-10.498000,,,
2026-09-11T18:26:18.833,4.879330,-0.000000,0.023276,-0.000000,0.000000,-8.712845,2.997538,-0.000000,0.001118,0.002355,-0.000328,0.029187,-0.000194,0.008278,-0.000906,0.003838,0.681366,0.277724,9.680929,0.000000,0.000000,0,0,,38.991412,-76.936703,-10.498000,,,
2026-09-11T18:26:18.866,4.912752,-0.000000,0.023276,-0.000000,0.000000,-8.712845,2.997538,-0.000000,-0.000067,-0.000140,-0.000291,0.029187,-0.000177,0.006788,-0.000145,0.001343,0.675384,0.270467,9.680439,0.000000,0.000000,0,0,,38.991412,-76.936703,-10.498000,,,
2026-09-11T18:26:18.900,4.946169,-0.000000,0.023276,-0.000000,0.000000,-8.712845,2.997538,-0.000000,-0.000762,-0.001605,-0.000320,0.029187,-0.000190,0.010004,0.000749,-0.000121,0.676169,0.250070,9.661512,0.000000,0.000000,0,0,,38.991412,-76.936703,-10.498000,,,
2026-09-11T18:26:18.933,4.979593,-0.000000,0.023276,-0.000000,0.000000,-8.712845,2.997538,-0.000000,0.000092,0.000193,-0.000344,0.029187,-0.000202,0.012563,-0.001957,0.001676,0.668421,0.293513,9.673574,0.000000,0.000000,0,0,,38.991412,-76.936703,-10.498000,,,
2026-09-11T18:26:18.966,5.013006,-0.000000,0.023276,-0.000000,0.000000,-8.712845,2.997538,-0.000000,-0.000879,-0.001851,-0.000372,0.029187,-0.000215,0.013669,0.001136,-0.000368,0.662439,0.270369,9.676810,0.000000,0.000000,0,0,,38.991412,-76.936703,-10.498000,,,
2026-09-11T18:26:19.000,5.046427,-0.000000,0.023276,-0.000000,0.000000,-8.712845,2.997538,-0.000000,-0.001148,-0.002418,-0.000443,0.029186,-0.000249,0.013482,0.001092,-0.000934,0.667244,0.297338,9.678281,0.000000,0.000000,0,0,,38.991412,-76.936703,-10.498000,,,
2026-09-11T18:26:19.033,5.079877,-0.000000,0.023276,-0.000000,0.000000,-8.712845,2.997538,-0.000000,-0.000262,-0.000552,-0.000493,0.029186,-0.000272,0.012696,-0.001532,0.000931,0.690977,0.285668,9.666905,0.000000,0.000000,0,0,,38.991412,-76.936703,-10.498000,,,
2026-09-11T18:26:19.067,5.113306,-0.000000,0.023276,-0.000000,0.000000,-8.712845,2.997538,-0.000000,-0.000967,-0.002035,-0.000536,0.029186,-0.000293,0.012697,0.001100,-0.000552,0.697253,0.301064,9.674849,0.000000,0.000000,0,0,,38.991412,-76.936703,-10.498000,,,
2026-09-11T18:26:19.100,5.146725,-0.000000,0.023276,-0.000000,0.000000,-8.712845,2.997538,-0.000000,-0.000317,-0.000667,-0.000581,0.029186,-0.000314,0.008674,0.001232,0.000817,0.698037,0.310282,9.669063,0.000000,0.000000,0,0,,38.991412,-76.936703,-10.498000,,,
2026-09-11T18:26:19.134,5.180132,0.340157,0.035603,3.149598,0.000000,-8.712845,2.997538,0.339691,0.000704,0.001481,-0.000567,0.034861,-0.000311,-0.002952,0.000054,0.002965,0.688721,0.325875,9.659648,0.000000,0.000000,0,0,,38.991412,-76.936703,-10.498000,,,
2026-09-11T18:26:19.167,5.213557,0.094667,0.038474,0.876545,0.000000,-8.712845,2.997538,0.094537,0.000595,0.001253,-0.000522,0.042118,-0.000293,-0.003498,0.002650,0.002737,0.691761,0.308027,9.689853,0.000000,0.000000,0,0,,38.991412,-76.936703,-10.498000,,,
2026-09-11T18:26:19.200,5.246980,0.016110,0.038485,0.149168,0.000000,-8.712845,2.997538,0.016088,0.000389,0.000818,-0.000487,0.043966,-0.000278,-0.005431,0.001740,0.002302,0.704117,0.299985,9.676516,0.000000,0.000000,0,0,,38.991412,-76.936703,-10.498000,,,
2026-09-11T18:26:19.234,5.280387,0.006291,0.038588,0.058246,0.000000,-8.712845,2.997538,0.006282,0.001029,0.002167,-0.000437,0.044340,-0.000254,-0.009851,0.000233,0.003650,0.700195,0.296063,9.679556,0.000000,0.000000,0,0,,38.991412,-76.936703,-10.498000,,,
2026-09-11T18:26:19.267,5.313806,-0.000000,0.038434,-0.000000,0.000000,-8.712845,2.997538,-0.000000,0.000049,0.000103,-0.000399,0.044445,-0.000236,-0.009165,0.001841,0.001587,0.699508,0.288316,9.667984,0.000000,0.000000,0,0,,38.991412,-76.936703,-10.498000,,,
2026-09-11T18:26:19.301,5.347234,-0.000000,0.038434,-0.000000,0.000000,-8.712845,2.997538,-0.000000,-0.000209,-0.000441,-0.000405,0.044445,-0.000239,-0.004656,0.001184,0.001042,0.708432,0.287727,9.678183,0.000000,0.000000,0,0,,38.991412,-76.936703,-10.498000,,,
2026-09-11T18:26:19.334,5.380645,-0.000000,0.038434,-0.000000,0.000000,-8.712845,2.997538,-0.000000,0.001061,0.002233,-0.000375,0.044445,-0.000225,-0.003530,-0.000091,0.003717,0.735008,0.292042,9.677497,0.000000,0.000000,0,0,,38.991412,-76.936703,-10.498000,,,
2026-09-11T18:26:19.367,5.414065,-0.000000,0.038434,-0.000000,0.000000,-8.712845,2.997538,-0.000000,0.000409,0.000861,-0.000323,0.044445,-0.000200,0.000917,0.001020,0.002345,0.737950,0.297730,9.665925,0.000000,0.000000,0,0,,38.991412,-76.936703,-10.498000,,,
2026-09-11T18:26:19.402,5.447482,-0.000000,0.038434,-0.000000,0.000000,-8.712845,2.997538,-0.000000,0.000509,0.001073,-0.000291,0.044445,-0.000185,0.002735,-0.001271,0.002556,0.755406,0.264878,9.679556,0.000000,0.000000,0,0,,38.991412,-76.936703,-10.498000,,,
2026-09-11T18:26:19.434,5.480927,-0.000000,0.038434,-0.000000,0.000000,-8.712845,2.997538,-0.000000,-0.000455,-0.000958,-0.000289,0.044445,-0.000184,0.007386,0.000000,0.000525,0.760212,0.288119,9.669259,0.000000,0.000000,0,0,,38.991412,-76.936703,-10.498000,,,
2026-09-11T18:26:19.467,5.514344,-0.000000,0.038434,-0.000000,0.000000,-8.712845,2.997538,-0.000000,0.000624,0.001314,-0.000283,0.044445,-0.000181,0.010990,0.000398,0.002797,0.776491,0.305183,9.664160,0.000000,0.000000,0,0,,38.991412,-76.936703,-10.498000,,,
2026-09-11T18:26:19.501,5.547770,-0.000000,0.038434,-0.000000,0.000000,-8.712845,2.997538,-0.000000,0.000659,0.001387,-0.000238,0.044445,-0.000160,0.007026,-0.000876,0.002870,0.810912,0.306948,9.677595,0.000000,0.000000,0,0,,38.991412,-76.936703,-10.498000,,,
2026-09-11T18:26:19.535,5.581179,-0.000000,0.038434,-0.000000,0.000000,-8.712845,2.997538,-0.000000,0.001271,0.002675,-0.000170,0.044445,-0.000128,0.012251,0.000256,0.004158,0.837978,0.291258,9.664846,0.000000,0.000000,0,0,,38.991412,-76.936703,-10.498000,,,
2026-09-11T18:26:19.568,5.614592,-0.000000,0.038434,-0.000000,0.000000,-8.712845,2.997538,-0.000000,0.001326,0.002791,-0.000079,0.044445,-0.000084,0.016219,-0.001758,0.004275,0.844941,0.355099,9.674555,0.000000,0.000000,0,0,,38.991412,-76.936703,-10.498000,,,
2026-09-11T18:26:19.604,5.648021,0.009820,0.038896,0.090922,0.000000,-8.712845,2.997538,0.009806,0.001810,0.003811,0.000031,0.044609,-0.000032,0.015457,-0.000870,0.005294,0.784238,0.285962,9.663767,0.000000,0.000000,0,0,,38.991412,-76.936703,-10.498000,,,
2026-09-11T18:26:19.636,5.681441,0.009820,0.039220,0.090922,0.000000,-8.712845,2.997538,0.009806,0.001964,0.004135,0.000164,0.044937,0.000031,0.015950,0.000527,0.005619,0.764526,0.215746,9.621697,0.000000,0.000000,0,0,,38.991412,-76.936703,-10.498000,,,
2026-09-11T18:26:19.669,5.714855,0.009820,0.039551,0.090922,0.000000,-8.712845,2.997538,0.009806,0.000983,0.002069,0.000268,0.045264,0.000081,0.010308,0.001488,0.003553,0.750699,0.355491,9.733591,0.000000,0.000000,0,0,,38.991412,-76.936703,-10.498000,,,
2026-09-11T18:26:19.702,5.748278,0.009820,0.039875,0.090922,0.000000,-8.712845,2.997538,0.009806,0.002099,0.004419,0.000376,0.045592,0.000132,0.005022,0.001971,0.005902,0.773941,0.368240,9.646900,0.000000,0.000000,0,1,5.738959,38.991412,-76.936703,-10.510000,-0.085705,-0.133805,3.552943
2026-09-11T18:26:19.735,5.781693,0.009820,0.040206,0.090922,0.000000,-8.712845,2.997538,0.009806,0.002386,0.005023,0.000534,0.045920,0.000207,0.004183,0.003081,0.006507,0.755308,0.342154,9.640820,0.000000,0.000000,0,0,,38.991412,-76.936703,-10.510000,,,
2026-09-11T18:26:19.769,5.815114,0.299124,0.053427,2.769670,0.000000,-8.811035,3.031319,0.298706,0.003098,0.006522,0.000727,0.051075,0.000303,0.004561,0.000079,0.008006,0.763350,0.383440,9.673280,0.000000,0.000000,0,0,,38.991412,-76.936703,-10.510000,,,
2026-09-11T18:26:19.802,5.848550,0.056011,0.053872,0.518616,0.000000,-9.328079,3.209202,0.055923,0.004086,0.008602,0.000980,0.057003,0.000427,0.001565,0.001658,0.010085,0.832683,0.300280,9.665631,0.000000,0.000000,0,0,,38.991412,-76.936703,-10.510000,,,
2026-09-11T18:26:19.835,5.881960,0.007388,0.053883,0.068406,0.000000,-9.726334,3.346216,0.007375,0.004895,0.010306,0.001296,0.058061,0.000578,0.008260,0.002061,0.011789,0.887012,0.366965,9.596494,0.000000,0.000000,0,0,,38.991412,-76.936703,-10.510000,,,
2026-09-11T18:26:19.868,5.915373,0.009725,0.054128,0.090042,0.000000,-9.855423,3.390627,0.009708,0.005205,0.010959,0.001651,0.058346,0.000748,0.015799,-0.002815,0.012442,0.941831,0.202605,9.742319,0.000000,0.000000,0,0,,38.991412,-76.936703,-10.510000,,,
2026-09-11T18:26:19.904,5.948796,0.009725,0.054453,0.090042,0.000000,-9.979019,3.433149,0.009707,0.002939,0.006186,0.001937,0.058670,0.000884,0.012073,0.003747,0.007670,0.820228,0.525833,9.776250,0.000000,0.000000,0,0,,38.991412,-76.936703,-10.510000,,,
2026-09-11T18:26:19.935,5.982227,0.009725,0.054777,0.090042,0.000000,-10.003738,3.441653,0.009707,0.003649,0.007683,0.002169,0.058994,0.000995,0.014638,0.003360,0.009166,0.923590,0.268114,9.679066,0.000000,0.000000,0,0,,38.991412,-76.936703,-10.510000,,,
2026-09-11T18:26:19.969,6.015624,0.333249,0.064524,3.085639,0.000000,-10.031204,3.451102,0.332645,0.005012,0.010552,0.002474,0.064711,0.001154,0.020515,0.000877,0.012035,0.983901,0.269585,9.575900,0.000000,0.000000,0,0,,38.991412,-76.936703,-10.510000,,,
2026-09-11T18:26:20.003,6.049044,0.131190,0.069588,1.214719,0.000000,-10.031204,3.451102,0.130952,0.003324,0.006999,0.002767,0.072457,0.001313,0.023257,0.004531,0.008482,0.781688,0.522694,9.648959,0.000000,0.000000,0,0,,38.991412,-76.936703,-10.510000,,,
2026-09-11T18:26:20.036,6.082468,0.034971,0.069645,0.323805,0.000000,-10.031204,3.451102,0.034908,0.002493,0.005249,0.002972,0.075229,0.001418,0.010104,0.003258,0.006733,0.697743,0.361473,9.596396,0.000000,0.000000,0,0,,38.991412,-76.936703,-10.510000,,,
2026-09-11T18:26:20.069,6.115879,0.034971,0.071001,0.323805,0.000000,-10.031204,3.451102,0.034908,0.004068,0.008564,0.003202,0.076395,0.001531,0.002509,0.000216,0.010048,0.784042,0.356962,9.617382,0.000000,0.000000,0,0,,38.991412,-76.936703,-10.510000,,,
2026-09-11T18:26:20.103,6.149298,0.034971,0.072174,0.323805,0.000000,-10.031204,3.451102,0.034908,0.004830,0.010168,0.003515,0.077561,0.001684,0.016672,0.001394,0.011651,0.626057,0.125525,9.698091,0.000000,0.000000,0,0,,38.991412,-76.936703,-10.510000,,,
2026-09-11T18:26:20.136,6.182709,0.268221,0.084553,2.483529,0.000000,-10.031204,3.451102,0.267735,0.004161,0.008761,0.003832,0.082616,0.001853,0.013653,-0.000256,0.010245,0.534070,0.343429,9.632484,0.000000,0.000000,0,0,,38.991412,-76.936703,-10.510000,,,
2026-09-11T18:26:20.169,6.216121,0.052190,0.085106,0.483243,0.000000,-10.031204,3.451102,0.052096,0.000781,0.001645,0.004006,0.087958,0.001956,0.005753,-0.000764,0.003129,0.482879,0.133174,9.669357,0.000000,0.000000,0,0,,38.991412,-76.936703,-10.510000,,,
2026-09-11T18:26:20.203,6.249544,0.032551,0.085909,0.301398,0.000000,-9.695435,3.335585,0.032496,-0.000889,-0.001871,0.004002,0.089372,0.001960,0.018331,0.001273,-0.000387,0.635961,0.341075,9.637584,0.000000,0.000000,0,0,,38.991412,-76.936703,-10.510000,,,
2026-09-11T18:26:20.236,6.282963,0.032551,0.086997,0.301398,0.000000,-9.168777,3.154396,0.032502,-0.000133,-0.000279,0.003966,0.090458,0.001947,0.032748,-0.001605,0.001204,0.633706,0.386186,9.702896,0.000000,0.000000,0,0,,38.991412,-76.936703,-10.510000,,,
2026-09-11T18:26:20.270,6.316375,0.032551,0.088079,0.301398,0.000000,-9.085693,3.125812,0.032503,0.002613,0.005501,0.004053,0.091544,0.001993,0.042153,-0.002084,0.006984,0.685191,0.419430,9.595023,0.000000,0.000000,0,0,,38.991412,-76.936703,-10.510000,,,
2026-09-11T18:26:20.303,6.349793,0.263995,0.100127,2.444396,0.000000,-9.085693,3.125812,0.263602,0.002807,0.005909,0.004244,0.096491,0.002105,0.055135,-0.004692,0.007393,0.699312,0.393835,9.604829,0.000000,0.000000,0,0,,38.991412,-76.936703,-10.510000,,,
2026-09-11T18:26:20.336,6.383204,0.050055,0.100537,0.463470,0.000000,-9.085693,3.125812,0.049980,0.000974,0.002051,0.004377,0.101730,0.002190,0.046437,-0.001739,0.003534,0.696272,0.403642,9.805768,0.000000,0.000000,0,0,,38.991412,-76.936703,-10.510000,,,
2026-09-11T18:26:20.370,6.416617,0.030606,0.101255,0.283385,0.000000,-9.041748,3.110693,0.030561,0.002050,0.004316,0.004483,0.103075,0.002247,0.026251,-0.002672,0.005800,0.747757,0.497491,9.573546,0.000000,0.000000,0,0,,38.991412,-76.936703,-10.510000,,,
2026-09-11T18:26:20.403,6.450036,0.030606,0.102280,0.283385,0.000000,-8.949051,3.078802,0.030561,0.002934,0.006176,0.004658,0.104096,0.002335,0.008662,-0.002616,0.007659,0.748640,0.364709,9.511274,0.000000,0.000000,0,0,,38.991412,-76.936703,-10.510000,,,
2026-09-11T18:26:20.437,6.483460,0.285504,0.107459,2.643553,0.000000,-8.675766,2.984782,0.285116,0.002396,0.005044,0.004846,0.109371,0.002449,-0.000930,0.000444,0.006527,0.511025,0.379027,10.152629,0.000000,0.000000,0,1,6.477208,38.991412,-76.936703,-10.520000,-0.142602,-0.203116,3.552943
2026-09-11T18:26:20.470,6.516872,0.198907,0.116317,1.841730,0.000000,-8.589935,2.955253,0.198642,0.004046,0.008517,0.005072,0.117452,0.002597,-0.020585,-0.005452,0.010001,0.552114,0.605070,9.496564,0.000000,0.000000,0,0,,38.991412,-76.936703,-10.520000,,,
2026-09-11T18:26:20.504,6.550293,0.035335,0.116248,0.327176,0.000000,-8.510284,2.927850,0.035289,0.002086,0.004391,0.005288,0.121360,0.002719,-0.041418,-0.000409,0.005874,0.345096,0.712943,9.757715,0.000000,0.000000,0,0,,38.991412,-76.936703,-10.520000,,,
2026-09-11T18:26:20.537,6.583718,0.025713,0.116858,0.238084,0.000000,-8.514404,2.929268,0.025680,0.003514,0.007397,0.005485,0.122379,0.002818,-0.042035,-0.000851,0.008880,0.447772,0.400994,9.753204,0.000000,0.000000,0,0,,38.991412,-76.936703,-10.520000,,,
2026-09-11T18:26:20.570,6.617132,0.025713,0.117712,0.238084,0.000000,-8.514404,2.929268,0.025680,0.003809,0.008019,0.005743,0.123236,0.002945,-0.047199,0.001143,0.009502,0.436592,0.461011,9.641408,0.000000,0.000000,0,0,,38.991412,-76.936703,-10.520000,,,
2026-09-11T18:26:20.604,6.650558,0.025713,0.118578,0.238084,0.000000,-8.514404,2.929268,0.025680,0.004469,0.009409,0.006034,0.124094,0.003089,-0.048776,-0.003852,0.010892,0.503081,0.087279,9.707113,0.000000,0.000000,0,0,,38.991412,-76.936703,-10.520000,,,
2026-09-11T18:26:20.637,6.683971,0.025713,0.119433,0.238084,0.000000,-8.514404,2.929268,0.025680,0.004327,0.009110,0.006343,0.124951,0.003241,-0.044537,-0.003721,0.010594,0.452871,0.429041,9.691226,0.000000,0.000000,0,0,,38.991412,-76.936703,-10.520000,,,
2026-09-11T18:26:20.671,6.717383,0.220088,0.126815,2.037854,0.000000,-8.514404,2.929268,0.219801,0.001476,0.003108,0.006547,0.129051,0.003365,-0.032521,-0.001196,0.004591,0.460520,0.345979,9.735552,0.000000,0.000000,0,0,,38.991412,-76.936703,-10.520000,,,
2026-09-11T18:26:20.706,6.750803,0.121892,0.131925,1.128633,0.000000,-8.514404,2.929268,0.121733,0.001003,0.002111,0.006635,0.134758,0.003444,-0.025700,-0.004177,0.003595,0.456598,0.291258,9.666611,0.000000,0.000000,0,0,,38.991412,-76.936703,-10.520000,,,
2026-09-11T18:26:20.738,6.784211,0.023696,0.131845,0.219412,0.000000,-8.514404,2.929268,0.023666,0.000823,0.001733,0.006699,0.137186,0.003490,-0.018624,-0.002480,0.003217,0.489156,0.332642,9.695835,0.000000,0.000000,0,0,,38.991412,-76.936703,-10.520000,,,
2026-09-11T18:26:20.771,6.817622,-0.000000,0.131765,-0.000000,0.000000,-8.514404,2.929268,-0.000000,0.000313,0.000659,0.006739,0.137581,0.003512,-0.007022,-0.001218,0.002142,0.463070,0.297141,9.671318,0.000000,0.000000,0,0,,38.991412,-76.936703,-10.520000,,,
2026-09-11T18:26:20.805,6.851043,-0.000000,0.131765,-0.000000,0.000000,-8.470459,2.914149,-0.000000,0.000026,0.000055,0.006751,0.137581,0.003518,-0.012734,-0.002758,0.001538,0.426099,0.286845,9.703386,0.000000,0.000000,0,0,,38.991412,-76.936703,-10.520000,,,
2026-09-11T18:26:20.837,6.884456,-0.000000,0.131765,-0.000000,0.000000,-8.426514,2.899030,-0.000000,-0.001264,-0.002661,0.006707,0.137581,0.003497,-0.013772,0.000084,-0.001177,0.386872,0.372162,9.684754,0.000000,0.000000,0,0,,38.991412,-76.936703,-10.520000,,,
2026-09-11T18:26:20.871,6.917868,-0.000000,0.131765,-0.000000,0.000000,-8.221893,2.828633,-0.000000,-0.001434,-0.003019,0.006612,0.137582,0.003452,-0.016434,-0.000396,-0.001536,0.459932,0.294396,9.684852,0.000000,0.000000,0,0,,38.991412,-76.936703,-10.520000,,,
2026-09-11T18:26:20.906,6.951285,-0.000000,0.131765,-0.000000,0.000000,-7.855225,2.702486,-0.000000,-0.000144,-0.000303,0.006557,0.137582,0.003425,-0.029777,-0.002331,0.001181,0.503571,0.388539,9.648273,0.000000,0.000000,0,0,,38.991412,-76.936703,-10.520000,,,
2026-09-11T18:26:20.938,6.984693,-0.000000,0.131765,-0.000000,0.000000,-7.855225,2.702486,-0.000000,0.001255,0.002641,0.006596,0.137582,0.003444,-0.018831,0.001088,0.004125,0.590066,0.303614,9.685244,0.000000,0.000000,0,0,,38.991412,-76.936703,-10.520000,,,
2026-09-11T18:26:20.971,7.018107,-0.000000,0.131765,-0.000000,0.000000,-7.855225,2.702486,-0.000000,0.000493,0.001039,0.006657,0.137582,0.003473,-0.007569,-0.000875,0.002522,0.578396,0.230358,9.678771,0.000000,0.000000,0,0,,38.991412,-76.936703,-10.520000,,,
2026-09-11T18:26:21.006,7.051532,-0.000000,0.131765,-0.000000,0.000000,-7.855225,2.702486,-0.000000,0.000058,0.000121,0.006677,0.137582,0.003482,-0.010748,0.000184,0.001605,0.574572,0.331955,9.686617,0.000000,0.000000,0,0,,38.991412,-76.936703,-10.520000,,,
2026-09-11T18:26:21.039,7.084947,-0.000000,0.131765,-0.000000,0.000000,-7.855225,2.702486,-0.000000,-0.002142,-0.004510,0.006603,0.137582,0.003448,0.000096,0.001913,-0.003026,0.579083,0.287727,9.672789,0.000000,0.000000,0,0,,38.991412,-76.936703,-10.520000,,,
2026-09-11T18:26:21.072,7.118358,-0.000000,0.131765,-0.000000,0.000000,-7.855225,2.702486,-0.000000,-0.002095,-0.004411,0.006454,0.137582,0.003377,0.015001,-0.000179,-0.002927,0.611445,0.266447,9.693481,0.000000,0.000000,0,0,,38.991412,-76.936703,-10.520000,,,
2026-09-11T18:26:21.106,7.151776,-0.349875,0.121643,-3.239586,0.000000,-7.855225,2.702486,-0.349486,-0.001592,-0.003352,0.006325,0.131743,0.003278,0.022354,-0.000580,-0.001869,0.569570,0.282530,9.687107,0.000000,0.000000,0,0,,38.991412,-76.936703,-10.520000,,,
2026-09-11T18:26:21.139,7.185191,-0.128572,0.116505,-1.190483,0.000000,-7.855225,2.702486,-0.128429,-0.003027,-0.006374,0.006162,0.123759,0.003151,0.016408,0.001948,-0.004890,0.566334,0.300770,9.700934,0.000000,0.000000,0,0,,38.991412,-76.936703,-10.520000,,,
2026-09-11T18:26:21.172,7.218603,-0.022732,0.116573,-0.210478,0.000000,-7.855225,2.702486,-0.022706,-0.001878,-0.003954,0.005990,0.121235,0.003053,0.015104,-0.000643,-0.002470,0.603305,0.308811,9.672397,0.000000,0.000000,0,0,,38.991412,-76.936703,-10.520000,,,
2026-09-11T18:26:21.206,7.252028,-0.000000,0.116607,-0.000000,0.000000,-7.855225,2.702486,-0.000000,-0.001876,-0.003950,0.005858,0.120856,0.002988,0.013375,0.000302,-0.002466,0.624389,0.360787,9.685244,0.000000,0.000000,0,0,,38.991412,-76.936703,-10.520000,,,
2026-09-11T18:26:21.239,7.285446,-0.000000,0.116607,-0.000000,0.000000,-7.855225,2.702486,-0.000000,-0.002750,-0.005790,0.005695,0.120856,0.002911,0.005504,0.000390,-0.004307,0.608895,0.346175,9.668573,0.000000,0.000000,0,0,,38.991412,-76.936703,-10.520000,,,
2026-09-11T18:26:21.273,7.318855,-0.000000,0.116607,-0.000000,0.000000,-7.855225,2.702486,-0.000000,-0.001445,-0.003042,0.005547,0.120856,0.002841,-0.006692,-0.000050,-0.001559,0.605070,0.314401,9.627679,0.000000,0.000000,0,0,,38.991412,-76.936703,-10.520000,,,
2026-09-11T18:26:21.307,7.352274,-0.009622,0.116186,-0.089091,0.000000,-7.855225,2.702486,-0.009611,-0.002814,-0.005924,0.005397,0.120696,0.002769,-0.013432,0.001141,-0.004441,0.618800,0.350392,9.665729,0.000000,0.000000,0,0,,38.991412,-76.936703,-10.520000,,,
2026-09-11T18:26:21.339,7.385690,-0.009622,0.115867,-0.089091,0.000000,-7.855225,2.702486,-0.009611,-0.002049,-0.004313,0.005226,0.120375,0.002686,-0.017565,0.001579,-0.002830,0.654202,0.298612,9.712114,0.000000,0.000000,0,0,,38.991412,-76.936703,-10.520000,,,
2026-09-11T18:26:21.373,7.419101,-0.009622,0.115542,-0.089091,0.000000,-7.855225,2.702486,-0.009611,-0.000359,-0.000757,0.005142,0.120055,0.002644,-0.020181,0.000089,0.000727,0.717651,0.403642,9.729374,0.000000,0.000000,0,0,,38.991412,-76.936703,-10.520000,,,
2026-09-11T18:26:21.406,7.452522,-0.009622,0.115223,-0.089091,0.000000,-7.855225,2.702486,-0.009611,-0.001705,-0.003589,0.005069,0.119734,0.002608,-0.020311,0.005506,-0.002105,0.785022,0.270271,9.650528,0.000000,0.000000,0,0,,38.991412,-76.936703,-10.520000,,,
2026-09-11T18:26:21.440,7.485934,-0.009622,0.114898,-0.089091,0.000000,-7.855225,2.702486,-0.009611,-0.002489,-0.005241,0.004922,0.119413,0.002536,-0.013267,0.004561,-0.003757,0.915843,0.497982,9.751635,0.000000,0.000000,0,0,,38.991412,-76.936703,-10.520000,,,
2026-09-11T18:26:21.473,7.519352,-0.293931,0.101358,-2.721586,0.000000,-7.855225,2.702486,-0.293604,-0.000702,-0.001479,0.004809,0.114347,0.002459,0.002248,0.000079,0.000005,1.132276,0.287923,9.582862,0.000000,0.000000,0,0,,38.991412,-76.936703,-10.520000,,,
2026-09-11T18:26:21.507,7.552775,-0.060542,0.100828,-0.560575,0.000000,-7.855225,2.702486,-0.060475,-0.000606,-0.001275,0.004763,0.108430,0.002408,0.017947,0.001221,0.000209,1.177779,0.283804,9.601691,0.000000,0.000000,0,0,,38.991412,-76.936703,-10.520000,,,
2026-09-11T18:26:21.540,7.586188,-0.011919,0.100828,-0.110364,0.000000,-7.921829,2.725400,-0.011906,-0.000130,-0.000275,0.004737,0.107220,0.002390,0.032641,-0.000239,0.001209,1.128059,0.314107,9.614832,0.000000,0.000000,0,0,,38.991412,-76.936703,-10.520000,,,
2026-09-11T18:26:21.573,7.619603,-0.000000,0.100919,-0.000000,0.000000,-7.965775,2.740519,-0.000000,0.000070,0.000146,0.004735,0.107022,0.002388,0.031768,-0.003365,0.001630,0.901427,0.290277,9.643271,0.000000,0.000000,0,0,,38.991412,-76.936703,-10.520000,,,
2026-09-11T18:26:21.607,7.653026,-0.000000,0.100919,-0.000000,0.000000,-7.965775,2.740519,-0.000000,-0.000662,-0.001394,0.004714,0.107022,0.002378,0.032700,-0.001336,0.000090,0.727457,0.309204,9.713977,0.000000,0.000000,0,0,,38.991412,-76.936703,-10.520000,,,
2026-09-11T18:26:21.640,7.686441,-0.000000,0.100919,-0.000000,0.000000,-7.965775,2.740519,-0.000000,-0.001361,-0.002865,0.004643,0.107022,0.002345,0.022167,0.000894,-0.001382,0.624193,0.461599,9.738494,0.000000,0.000000,0,0,,38.991412,-76.936703,-10.520000,,,
2026-09-11T18:26:21.674,7.719856,0.352936,0.107105,3.267924,0.000000,-7.965775,2.740519,0.352532,0.000146,0.000307,0.004600,0.112912,0.002351,0.004488,-0.000248,0.001790,0.565648,0.367259,9.666219,0.000000,0.000000,0,1,7.716379,38.991411,-76.936703,-10.528000,-0.140441,-0.241478,3.552943
2026-09-11T18:26:21.707,7.753272,0.198986,0.116413,1.842460,0.000000,-7.965775,2.740519,0.198758,0.000300,0.000633,0.004616,0.122123,0.002401,-0.004703,0.001377,0.002116,0.585065,0.381381,9.654843,0.000000,0.000000,0,0,,38.991411,-76.936703,-10.528000,,,
2026-09-11T18:26:21.740,7.786687,0.035414,0.116260,0.327907,0.000000,-7.965775,2.740519,0.035373,-0.000098,-0.000206,0.004623,0.126034,0.002423,-0.020458,0.000193,0.001278,0.568884,0.362944,9.687695,0.000000,0.000000,0,0,,38.991411,-76.936703,-10.528000,,,
2026-09-11T18:26:21.774,7.820098,0.006548,0.116282,0.060632,0.000000,-7.965775,2.740519,0.006541,0.000524,0.001102,0.004638,0.126734,0.002433,-0.037745,-0.000119,0.002586,0.575748,0.357649,9.691128,0.000000,0.000000,0,0,,38.991411,-76.936703,-10.528000,,,
2026-09-11T18:26:21.807,7.853518,-0.000000,0.116220,-0.000000,0.000000,-7.965775,2.740519,-0.000000,-0.000503,-0.001060,0.004639,0.126844,0.002434,-0.039279,0.002737,0.000424,0.629195,0.318520,9.689363,0.000000,0.000000,0,0,,38.991411,-76.936703,-10.528000,,,
2026-09-11T18:26:21.840,7.886932,-0.000000,0.116220,-0.000000,0.000000,-7.965775,2.740519,-0.000000,0.000325,0.000685,0.004633,0.126844,0.002431,-0.037358,0.001566,0.002168,0.733832,0.352549,9.644742,0.000000,0.000000,0,0,,38.991411,-76.936703,-10.528000,,,
2026-09-11T18:26:21.874,7.920344,-0.000000,0.116220,-0.000000,0.000000,-7.965775,2.740519,-0.000000,0.001950,0.004106,0.004713,0.126843,0.002469,-0.034553,0.002410,0.005590,0.807382,0.281941,9.688578,0.000000,0.000000,0,0,,38.991411,-76.936703,-10.528000,,,
2026-09-11T18:26:21.909,7.953764,-0.000000,0.116220,-0.000000,0.000000,-8.009720,2.755638,-0.000000,0.000739,0.001556,0.004807,0.126843,0.002514,-0.025856,0.001582,0.003040,0.798556,0.272821,9.660923,0.000000,0.000000,0,0,,38.991411,-76.936703,-10.528000,,,
2026-09-11T18:26:21.941,7.987179,-0.000000,0.116220,-0.000000,0.000000,-8.009720,2.755638,-0.000000,0.000329,0.000693,0.004845,0.126843,0.002532,-0.020366,0.001162,0.002176,0.756975,0.223494,9.670044,0.000000,0.000000,0,0,,38.991411,-76.936703,-10.528000,,,
2026-09-11T18:26:21.975,8.020592,-0.000000,0.116220,-0.000000,0.000000,-8.009720,2.755638,-0.000000,-0.000018,-0.000037,0.004856,0.126843,0.002537,-0.013345,0.001580,0.001446,0.687544,0.259484,9.664356,0.000000,0.000000,0,0,,38.991411,-76.936703,-10.528000,,,
2026-09-11T18:26:22.008,8.054011,-0.000000,0.116220,-0.000000,0.000000,-8.009720,2.755638,-0.000000,-0.000815,-0.001717,0.004827,0.126843,0.002523,-0.005944,0.000265,-0.000233,0.634294,0.285570,9.685538,0.000000,0.000000,0,0,,38.991411,-76.936703,-10.528000,,,
2026-09-11T18:26:22.041,8.087420,-0.000000,0.116220,-0.000000,0.000000,-8.009720,2.755638,-0.000000,-0.000646,-0.001361,0.004775,0.126843,0.002499,-0.009610,0.000098,0.000123,0.595166,0.267918,9.684459,0.000000,0.000000,0,0,,38.991411,-76.936703,-10.528000,,,
2026-09-11T18:26:22.075,8.120847,-0.000000,0.116220,-0.000000,0.000000,-8.009720,2.755638,-0.000000,-0.000438,-0.000923,0.004737,0.126843,0.002481,-0.006166,0.001538,0.000560,0.574768,0.288021,9.692108,0.000000,0.000000,0,0,,38.991411,-76.936703,-10.528000,,,
2026-09-11T18:26:22.108,8.154288,-0.000000,0.116220,-0.000000,0.000000,-8.009720,2.755638,-0.000000,-0.000249,-0.000524,0.004713,0.126843,0.002469,-0.003540,-0.000035,0.000959,0.588889,0.256444,9.680929,0.000000,0.000000,0,0,,38.991411,-76.936703,-10.528000,,,
2026-09-11T18:26:22.142,8.187700,-0.000000,0.116220,-0.000000,0.000000,-8.009720,2.755638,-0.000000,-0.000703,-0.001480,0.004679,0.126844,0.002453,0.000873,0.000897,0.000003,0.618898,0.262720,9.673182,0.000000,0.000000,0,0,,38.991411,-76.936703,-10.528000,,,
2026-09-11T18:26:22.175,8.221120,-0.000000,0.116220,-0.000000,0.000000,-8.009720,2.755638,-0.000000,-0.001186,-0.002497,0.004613,0.126844,0.002422,0.008045,0.001120,-0.001013,0.639982,0.253012,9.680242,0.000000,0.000000,0,0,,38.991411,-76.936703,-10.528000,,,
2026-09-11T18:26:22.208,8.254541,-0.000000,0.116220,-0.000000,0.000000,-8.009720,2.755638,-0.000000,-0.001100,-0.002315,0.004532,0.126844,0.002383,0.015191,-0.001421,-0.000832,0.668225,0.268604,9.672789,0.000000,0.000000,0,0,,38.991411,-76.936703,-10.528000,,,
2026-09-11T18:26:22.242,8.287957,-0.000000,0.116220,-0.000000,0.000000,-8.009720,2.755638,-0.000000,-0.001116,-0.002350,0.004455,0.126844,0.002346,0.022866,0.000461,-0.000867,0.689996,0.255463,9.667102,0.000000,0.000000,0,0,,38.991411,-76.936703,-10.528000,,,
2026-09-11T18:26:22.275,8.321374,-0.000000,0.116220,-0.000000,0.000000,-8.009720,2.755638,-0.000000,-0.001835,-0.003864,0.004351,0.126844,0.002297,0.027921,0.000323,-0.002381,0.678424,0.278999,9.678673,0.000000,0.000000,0,0,,38.991411,-76.936703,-10.528000,,,
2026-09-11T18:26:22.309,8.354795,-0.000000,0.116220,-0.000000,0.000000,-8.009720,2.755638,-0.000000,-0.001231,-0.002592,0.004243,0.126844,0.002246,0.027363,-0.002140,-0.001109,0.678914,0.314401,9.678968,0.000000,0.000000,0,0,,38.991411,-76.936703,-10.528000,,,
2026-09-11T18:26:22.342,8.388203,-0.000000,0.116220,-0.000000,0.000000,-8.009720,2.755638,-0.000000,-0.001325,-0.002789,0.004153,0.126845,0.002203,0.026175,0.000800,-0.001305,0.679209,0.315676,9.678673,0.000000,0.000000,0,0,,38.991411,-76.936703,-10.528000,,,
2026-09-11T18:26:22.376,8.421618,-0.000000,0.116220,-0.000000,0.000000,-8.009720,2.755638,-0.000000,-0.001218,-0.002564,0.004063,0.126845,0.002161,0.025575,-0.000093,-0.001080,0.682739,0.323914,9.683675,0.000000,0.000000,0,0,,38.991411,-76.936703,-10.528000,,,
2026-09-11T18:26:22.409,8.455038,-0.000000,0.116220,-0.000000,0.000000,-8.009720,2.755638,-0.000000,-0.000325,-0.000683,0.004009,0.126845,0.002135,0.022328,-0.001276,0.000800,0.691957,0.316068,9.673868,0.000000,0.000000,0,0,,38.991411,-76.936703,-10.528000,,,
2026-09-11T18:26:22.442,8.488447,-0.000000,0.116220,-0.000000,0.000000,-8.009720,2.755638,-0.000000,-0.001023,-0.002153,0.003962,0.126845,0.002112,0.018090,0.000829,-0.000670,0.701274,0.346763,9.682498,0.000000,0.000000,0,0,,38.991411,-76.936703,-10.528000,,,
2026-09-11T18:26:22.476,8.521923,-0.000000,0.116220,-0.000000,0.000000,-8.009720,2.755638,-0.000000,-0.001091,-0.002296,0.003887,0.126845,0.002077,0.015631,0.000219,-0.000812,0.713434,0.332642,9.668180,0.000000,0.000000,0,0,,38.991411,-76.936703,-10.528000,,,
2026-09-11T18:26:22.509,8.555343,-0.000000,0.116220,-0.000000,0.000000,-8.009720,2.755638,-0.000000,-0.000841,-0.001771,0.003819,0.126845,0.002045,0.008997,-0.001495,-0.000288,0.722456,0.356079,9.672593,0.000000,0.000000,0,0,,38.991411,-76.936703,-10.528000,,,
2026-09-11T18:26:22.542,8.588751,-0.000000,0.116220,-0.000000,0.000000,-8.009720,2.755638,-0.000000,-0.001217,-0.002562,0.003747,0.126845,0.002010,0.008001,0.001053,-0.001078,0.725202,0.344311,9.658570,0.000000,0.000000,0,0,,38.991411,-76.936703,-10.528000,,,
2026-09-11T18:26:22.576,8.622170,-0.000000,0.116220,-0.000000,0.000000,-8.009720,2.755638,-0.000000,-0.000408,-0.000859,0.003690,0.126846,0.001983,0.004883,-0.000259,0.000625,0.723339,0.342056,9.670828,0.000000,0.000000,0,0,,38.991411,-76.936703,-10.528000,,,
2026-09-11T18:26:22.609,8.655588,-0.000000,0.116220,-0.000000,0.000000,-8.009720,2.755638,-0.000000,0.000101,0.000212,0.003679,0.126846,0.001978,-0.001512,-0.000890,0.001696,0.718043,0.363042,9.674849,0.000000,0.000000,0,0,,38.991411,-76.936703,-10.528000,,,
2026-09-11T18:26:22.643,8.689000,-0.000000,0.116220,-0.000000,0.000000,-8.009720,2.755638,-0.000000,-0.000736,-0.001550,0.003657,0.126846,0.001967,-0.006830,0.000913,-0.000066,0.697743,0.341566,9.675045,0.000000,0.000000,0,0,,38.991411,-76.936703,-10.528000,,,
2026-09-11T18:26:22.676,8.722420,-0.000000,0.116220,-0.000000,0.000000,-8.009720,2.755638,-0.000000,-0.000651,-0.001371,0.003608,0.126846,0.001944,-0.013802,-0.000650,0.000113,0.687544,0.350294,9.676124,0.000000,0.000000,0,0,,38.991411,-76.936703,-10.528000,,,
2026-09-11T18:26:22.710,8.755844,-0.000000,0.116220,-0.000000,0.000000,-8.009720,2.755638,-0.000000,0.000741,0.001560,0.003611,0.126846,0.001946,-0.021750,-0.000982,0.003044,0.682739,0.333426,9.667690,0.000000,0.000000,0,0,,38.991411,-76.936703,-10.528000,,,
2026-09-11T18:26:22.743,8.789255,-0.000000,0.116220,-0.000000,0.000000,-8.009720,2.755638,-0.000000,-0.000530,-0.001116,0.003619,0.126846,0.001949,-0.022742,0.000162,0.000368,0.700881,0.325287,9.678575,0.000000,0.000000,0,0,,38.991411,-76.936703,-10.528000,,,
2026-09-11T18:26:22.776,8.822668,-0.000000,0.116220,-0.000000,0.000000,-8.009720,2.755638,-0.000000,0.000287,0.000604,0.003610,0.126846,0.001945,-0.025302,-0.000038,0.002088,0.721181,0.324600,9.672103,0.000000,0.000000,0,0,,38.991411,-76.936703,-10.528000,,,
2026-09-11T18:26:22.810,8.856091,-0.000000,0.116220,-0.000000,0.000000,-8.009720,2.755638,-0.000000,0.000670,0.001411,0.003644,0.126846,0.001961,-0.025171,-0.000415,0.002895,0.716964,0.319206,9.667396,0.000000,0.000000,0,0,,38.991411,-76.936703,-10.528000,,,
2026-09-11T18:26:22.843,8.889500,-0.000000,0.116220,-0.000000,0.000000,-8.009720,2.755638,-0.000000,0.000673,0.001417,0.003691,0.126846,0.001984,-0.015952,-0.000364,0.002901,0.683622,0.287433,9.674947,0.000000,0.000000,0,0,,38.991411,-76.936703,-10.528000,,,
2026-09-11T18:26:22.876,8.922915,-0.000000,0.116220,-0.000000,0.000000,-8.009720,2.755638,-0.000000,-0.000002,-0.000003,0.003715,0.126845,0.001995,-0.014608,-0.000955,0.001480,0.662635,0.301849,9.674555,0.000000,0.000000,0,0,,38.991411,-76.936703,-10.528000,,,
2026-09-11T18:26:22.910,8.956339,-0.000000,0.116220,-0.000000,0.000000,-8.009720,2.755638,-0.000000,-0.000550,-0.001158,0.003695,0.126846,0.001986,-0.008376,0.000314,0.000325,0.643610,0.280961,9.676516,0.000000,0.000000,0,0,,38.991411,-76.936703,-10.528000,,,
2026-09-11T18:26:22.943,8.989747,-0.000000,0.116220,-0.000000,0.000000,-8.009720,2.755638,-0.000000,-0.000103,-0.000218,0.003672,0.126846,0.001975,0.002523,-0.002129,0.001266,0.605561,0.281255,9.684557,0.000000,0.000000,0,0,,38.991411,-76.936703,-10.528000,,,
2026-09-11T18:26:22.977,9.023167,-0.000000,0.116220,-0.000000,0.000000,-8.009720,2.755638,-0.000000,-0.000963,-0.002028,0.003635,0.126846,0.001957,0.006803,-0.002321,-0.000544,0.599873,0.274096,9.684165,0.000000,0.000000,0,0,,38.991411,-76.936703,-10.528000,,,
2026-09-11T18:26:23.010,9.056588,-0.000000,0.116220,-0.000000,0.000000,-8.009720,2.755638,-0.000000,-0.001341,-0.002824,0.003554,0.126846,0.001918,0.011042,0.000328,-0.001340,0.634392,0.295769,9.674849,0.000000,0.000000,0,0,,38.991411,-76.936703,-10.528000,,,
2026-09-11T18:26:23.044,9.089996,-0.000000,0.116220,-0.000000,0.000000,-8.009720,2.755638,-0.000000,-0.000589,-0.001240,0.003486,0.126846,0.001886,0.016516,-0.001869,0.000244,0.669794,0.301554,9.681027,0.000000,0.000000,0,0,,38.991411,-76.936703,-10.528000,,,
2026-09-11T18:26:23.078,9.123434,-0.000000,0.116220,-0.000000,0.000000,-8.009720,2.755638,-0.000000,-0.000615,-0.001295,0.003443,0.126846,0.001866,0.015683,-0.002168,0.000189,0.664008,0.326267,9.676614,0.000000,0.000000,0,0,,38.991411,-76.936703,-10.528000,,,
2026-09-11T18:26:23.111,9.156857,-0.000000,0.116220,-0.000000,0.000000,-8.009720,2.755638,-0.000000,-0.001294,-0.002725,0.003376,0.126846,0.001834,0.015007,0.000167,-0.001242,0.690977,0.304595,9.693579,0.000000,0.000000,0,0,,38.991411,-76.936703,-10.528000,,,
2026-09-11T18:26:23.144,9.190270,-0.000000,0.116220,-0.000000,0.000000,-8.009720,2.755638,-0.000000,-0.000576,-0.001213,0.003310,0.126846,0.001803,0.011343,-0.001704,0.000271,0.745207,0.348921,9.668671,0.000000,0.000000,0,0,,38.991411,-76.936703,-10.528000,,,
2026-09-11T18:26:23.177,9.223684,-0.000000,0.116220,-0.000000,0.000000,-8.009720,2.755638,-0.000000,-0.000183,-0.000385,0.003284,0.126846,0.001790,0.006886,-0.001180,0.001099,0.737166,0.325973,9.669455,0.000000,0.000000,0,0,,38.991411,-76.936703,-10.528000,,,
2026-09-11T18:26:23.211,9.257103,-0.000000,0.116220,-0.000000,0.000000,-8.009720,2.755638,-0.000000,-0.000314,-0.000661,0.003266,0.126846,0.001782,0.001669,0.000155,0.000823,0.703431,0.346959,9.671515,0.000000,0.000000,0,0,,38.991411,-76.936703,-10.528000,,,
2026-09-11T18:26:23.245,9.290521,-0.000000,0.116220,-0.000000,0.000000,-8.009720,2.755638,-0.000000,-0.000126,-0.000265,0.003251,0.126846,0.001775,-0.008192,-0.000658,0.001218,0.718926,0.342840,9.673084,0.000000,0.000000,0,0,,38.991411,-76.936703,-10.528000,,,
2026-09-11T18:26:23.278,9.323940,-0.000000,0.116220,-0.000000,0.000000,-8.009720,2.755638,-0.000000,0.000898,0.001891,0.003278,0.126846,0.001787,-0.015376,0.000018,0.003375,0.730988,0.320579,9.671024,0.000000,0.000000,0,0,,38.991411,-76.936703,-10.528000,,,
2026-09-11T18:26:23.311,9.357354,-0.000000,0.116220,-0.000000,0.000000,-8.009720,2.755638,-0.000000,0.000243,0.000511,0.003318,0.126846,0.001806,-0.016876,-0.000065,0.001995,0.709021,0.339212,9.669945,0.000000,0.000000,0,0,,38.991411,-76.936703,-10.528000,,,
2026-09-11T18:26:23.345,9.390769,-0.000000,0.116220,-0.000000,0.000000,-8.009720,2.755638,-0.000000,0.001704,0.003587,0.003386,0.126846,0.001839,-0.025834,-0.000346,0.005071,0.696762,0.310577,9.669553,0.000000,0.000000,0,0,,38.991411,-76.936703,-10.528000,,,
2026-09-11T18:26:23.378,9.424191,-0.000000,0.116220,-0.000000,0.000000,-8.009720,2.755638,-0.000000,0.000153,0.000323,0.003452,0.126846,0.001870,-0.025348,0.001308,0.001807,0.693919,0.314303,9.676810,0.000000,0.000000,0,0,,38.991411,-76.936703,-10.528000,,,
2026-09-11T18:26:23.413,9.457608,-0.000000,0.116220,-0.000000,0.000000,-8.009720,2.755638,-0.000000,0.001056,0.002223,0.003494,0.126846,0.001890,-0.022053,-0.000371,0.003706,0.677640,0.277528,9.672986,0.000000,0.000000,0,0,,38.991411,-76.936703,-10.528000,,,
2026-09-11T18:26:23.445,9.491028,-0.000000,0.116220,-0.000000,0.000000,-8.009720,2.755638,-0.000000,0.000711,0.001497,0.003557,0.126846,0.001920,-0.021823,-0.000585,0.002980,0.678326,0.291944,9.683969,0.000000,0.000000,0,0,,38.991411,-76.936703,-10.528000,,,
2026-09-11T18:26:23.478,9.524446,-0.000000,0.116220,-0.000000,0.000000,-8.009720,2.755638,-0.000000,0.000263,0.000553,0.003591,0.126846,0.001936,-0.015097,0.000205,0.002036,0.681268,0.257228,9.688872,0.000000,0.000000,0,0,,38.991411,-76.936703,-10.528000,,,
2026-09-11T18:26:23.512,9.557863,-0.000000,0.116220,-0.000000,0.000000,-8.009720,2.755638,-0.000000,-0.001005,-0.002115,0.003565,0.126846,0.001924,-0.004300,-0.001474,-0.000631,0.682543,0.269193,9.673672,0.000000,0.000000,0,0,,38.991411,-76.936703,-10.528000,,,
2026-09-11T18:26:23.545,9.591279,-0.000000,0.116220,-0.000000,0.000000,-8.009720,2.755638,-0.000000,-0.001984,-0.004177,0.003460,0.126846,0.001874,-0.002076,0.000312,-0.002693,0.673815,0.259288,9.676712,0.000000,0.000000,0,0,,38.991411,-76.936703,-10.528000,,,
2026-09-11T18:26:23.578,9.624703,-0.000000,0.116220,-0.000000,0.000000,-8.009720,2.755638,-0.000000,-0.002565,-0.005400,0.003299,0.126846,0.001798,0.002524,0.000078,-0.003917,0.650769,0.259190,9.679458,0.000000,0.000000,0,0,,38.991411,-76.936703,-10.528000,,,
2026-09-11T18:26:23.612,9.658122,-0.000000,0.116220,-0.000000,0.000000,-8.009720,2.755638,-0.000000,-0.001719,-0.003619,0.003149,0.126846,0.001726,0.016032,-0.002042,-0.002136,0.621349,0.264191,9.678968,0.000000,0.000000,0,0,,38.991411,-76.936703,-10.528000,,,
2026-09-11T18:26:23.645,9.691536,-0.000000,0.116220,-0.000000,0.000000,-7.936935,2.730597,-0.000000,-0.002615,-0.005506,0.002996,0.126847,0.001654,0.026084,-0.001242,-0.004022,0.610562,0.291944,9.688774,0.000000,0.000000,0,0,,38.991411,-76.936703,-10.528000,,,
2026-09-11T18:26:23.679,9.724951,-0.000000,0.116220,-0.000000,0.000000,-7.811279,2.687367,-0.000000,-0.002225,-0.004684,0.002826,0.126847,0.001573,0.038248,0.000219,-0.003200,0.630273,0.314401,9.656118,0.000000,0.000000,0,0,,38.991411,-76.936703,-10.528000,,,
2026-09-11T18:26:23.712,9.758371,-0.000000,0.116220,-0.000000,0.000000,-7.767334,2.672248,-0.000000,-0.000732,-0.001541,0.002722,0.126847,0.001523,0.048117,-0.002559,-0.000058,0.663322,0.402955,9.661119,0.000000,0.000000,0,0,,38.991411,-76.936703,-10.528000,,,
2026-09-11T18:26:23.746,9.791963,-0.000000,0.116220,-0.000000,0.000000,-7.767334,2.672248,-0.000000,-0.001412,-0.002973,0.002646,0.126847,0.001487,0.042773,-0.000029,-0.001490,0.645278,0.343135,9.685048,0.000000,0.000000,0,0,,38.991411,-76.936703,-10.528000,,,
2026-09-11T18:26:23.779,9.825387,-0.000000,0.116220,-0.000000,0.000000,-7.767334,2.672248,-0.000000,-0.002075,-0.004369,0.002524,0.126847,0.001429,0.028204,0.001433,-0.002885,0.682935,0.380792,9.680439,0.000000,0.000000,0,0,,38.991411,-76.936703,-10.528000,,,
2026-09-11T18:26:23.813,9.858809,-0.000000,0.116220,-0.000000,0.000000,-7.767334,2.672248,-0.000000,-0.000747,-0.001572,0.002424,0.126847,0.001382,0.008886,-0.001100,-0.000088,0.704019,0.357747,9.671024,0.000000,0.000000,0,0,,38.991411,-76.936703,-10.528000,,,
2026-09-11T18:26:23.847,9.892224,-0.000000,0.116220,-0.000000,0.000000,-7.767334,2.672248,-0.000000,-0.000813,-0.001711,0.002369,0.126847,0.001356,0.003296,0.000405,-0.000228,0.677836,0.362944,9.668965,0.000000,0.000000,0,1,9.895519,38.991411,-76.936703,-10.523000,-0.144906,-0.276505,3.552564
2026-09-11T18:26:23.879,9.925642,-0.000000,0.116220,-0.000000,0.000000,-7.767334,2.672248,-0.000000,-0.001190,-0.002505,0.002299,0.126847,0.001322,0.000587,0.001051,-0.001021,0.623409,0.389814,9.650038,0.000000,0.000000,0,0,,38.991411,-76.936703,-10.523000,,,
2026-09-11T18:26:23.913,9.959066,-0.000000,0.116220,-0.000000,0.000000,-7.767334,2.672248,-0.000000,0.000270,0.000569,0.002267,0.126848,0.001307,-0.006993,-0.001857,0.002053,0.686564,0.372359,9.642487,0.000000,0.000000,0,0,,38.991411,-76.936703,-10.523000,,,
2026-09-11T18:26:23.946,9.992480,-0.000000,0.116220,-0.000000,0.000000,-7.767334,2.672248,-0.000000,-0.000744,-0.001566,0.002250,0.126848,0.001299,-0.005542,0.001661,-0.000083,0.772274,0.341468,9.651705,0.000000,0.000000,0,0,,38.991411,-76.936703,-10.523000,,,
2026-09-11T18:26:23.980,10.025900,-0.000000,0.116220,-0.000000,0.000000,-7.767334,2.672248,-0.000000,0.000136,0.000286,0.002229,0.126848,0.001289,-0.001865,0.000914,0.001770,0.753249,0.383930,9.710055,0.000000,0.000000,0,0,,38.991411,-76.936703,-10.523000,,,
2026-09-11T18:26:24.013,10.059322,-0.000000,0.116220,-0.000000,0.000000,-7.767334,2.672248,-0.000000,0.000830,0.001748,0.002263,0.126848,0.001305,0.001441,-0.000653,0.003232,0.743344,0.296455,9.680439,0.000000,0.000000,0,0,,38.991411,-76.936703,-10.523000,,,
2026-09-11T18:26:24.047,10.092743,-0.000000,0.116220,-0.000000,0.000000,-7.723389,2.657129,-0.000000,-0.000607,-0.001279,0.002270,0.126848,0.001309,0.004689,0.006956,0.000205,0.601932,-0.465424,10.252362,0.000000,0.000000,0,0,,38.991411,-76.936703,-10.523000,,,
2026-09-11T18:26:24.080,10.126163,-0.000000,0.116220,-0.000000,0.000000,-7.723389,2.657129,-0.000000,-0.002141,-0.004508,0.002174,0.126848,0.001263,0.025319,-0.000199,-0.003025,0.720691,0.410114,9.629150,0.000000,0.000000,0,0,,38.991411,-76.936703,-10.523000,,,
2026-09-11T18:26:24.114,10.159588,-0.000000,0.116220,-0.000000,0.000000,-7.723389,2.657129,-0.000000,-0.001624,-0.003420,0.002041,0.126848,0.001200,0.035395,-0.000117,-0.001936,0.680287,0.372064,9.608752,0.000000,0.000000,0,0,,38.991411,-76.936703,-10.523000,,,
2026-09-11T18:26:24.147,10.193006,-0.000000,0.116220,-0.000000,0.000000,-7.723389,2.657129,-0.000000,-0.002168,-0.004565,0.001908,0.126848,0.001137,0.044151,0.001565,-0.003081,0.659399,0.437867,9.704171,0.000000,0.000000,0,0,,38.991411,-76.936703,-10.523000,,,
2026-09-11T18:26:24.181,10.226423,-0.000000,0.116220,-0.000000,0.000000,-7.723389,2.657129,-0.000000,-0.001685,-0.003547,0.001772,0.126848,0.001072,0.046551,0.001310,-0.002064,0.636942,0.374418,9.682890,0.000000,0.000000,0,0,,38.991411,-76.936703,-10.523000,,,
2026-09-11T18:26:24.214,10.259834,-0.000000,0.116220,-0.000000,0.000000,-7.723389,2.657129,-0.000000,-0.001298,-0.002732,0.001667,0.126848,0.001022,0.039601,0.000628,-0.001248,0.614289,0.429825,9.673280,0.000000,0.000000,0,0,,38.991411,-76.936703,-10.523000,,,
2026-09-11T18:26:24.247,10.293257,-0.000000,0.116220,-0.000000,0.000000,-7.723389,2.657129,-0.000000,-0.001091,-0.002297,0.001583,0.126848,0.000983,0.041555,0.001516,-0.000813,0.580554,0.460128,9.658864,0.000000,0.000000,0,0,,38.991411,-76.936703,-10.523000,,,
2026-09-11T18:26:24.280,10.326681,-0.000000,0.116220,-0.000000,0.000000,-7.723389,2.657129,-0.000000,-0.001237,-0.002604,0.001501,0.126848,0.000944,0.044461,-0.000579,-0.001120,0.576729,0.436102,9.663669,0.000000,0.000000,0,0,,38.991411,-76.936703,-10.523000,,,
2026-09-11T18:26:24.314,10.360085,-0.000000,0.116220,-0.000000,0.000000,-7.723389,2.657129,-0.000000,-0.002773,-0.005838,0.001360,0.126848,0.000877,0.047710,0.001735,-0.004355,0.526323,0.542112,9.583941,0.000000,0.000000,0,0,,38.991411,-76.936703,-10.523000,,,
2026-09-11T18:26:24.347,10.393499,-0.343132,0.102024,-3.177148,0.000000,-7.723389,2.657129,-0.342763,-0.002898,-0.006101,0.001161,0.121122,0.000775,0.055678,0.001195,-0.004618,0.572512,0.378929,9.703386,0.000000,0.000000,0,0,,38.991411,-76.936703,-10.523000,,,
2026-09-11T18:26:24.381,10.426908,-0.070845,0.100748,-0.655969,0.000000,-7.679443,2.642010,-0.070769,-0.003152,-0.006637,0.000948,0.114214,0.000666,0.049687,-0.000792,-0.005153,0.618505,0.451302,9.664846,0.000000,0.000000,0,0,,38.991411,-76.936703,-10.523000,,,
2026-09-11T18:26:24.414,10.460316,-0.012497,0.100868,-0.115716,0.000000,-7.262650,2.498618,-0.012485,-0.002263,-0.004763,0.000758,0.112823,0.000575,0.028239,0.001546,-0.003280,0.700587,0.488862,9.672593,0.000000,0.000000,0,0,,38.991411,-76.936703,-10.523000,,,
2026-09-11T18:26:24.448,10.493737,-0.000000,0.100919,-0.000000,0.000000,-6.630249,2.281049,-0.000000,-0.002819,-0.005935,0.000579,0.112615,0.000490,0.011309,0.000522,-0.004451,0.694213,0.557410,9.622972,0.000000,0.000000,0,1,10.476346,38.991411,-76.936704,-10.560000,-0.178756,-0.274837,3.460414
2026-09-11T18:26:24.480,10.527141,-0.000000,0.100919,-0.000000,0.000000,-5.843353,2.010328,-0.000000,-0.001962,-0.004130,0.000411,0.112615,0.000410,-0.015102,0.000357,-0.002647,0.706667,0.557802,9.655334,0.000000,0.000000,0,0,,38.991411,-76.936704,-10.560000,,,
2026-09-11T18:26:24.514,10.560542,-0.000000,0.100919,-0.000000,0.000000,-3.845215,1.322895,-0.000000,-0.002199,-0.004629,0.000265,0.112615,0.000340,-0.034535,0.001522,-0.003145,0.770214,0.523773,9.650724,0.000000,0.000000,0,0,,38.991411,-76.936704,-10.560000,,,
2026-09-11T18:26:24.547,10.593950,-0.000000,0.100919,-0.000000,0.000000,-1.250381,0.430177,-0.000000,-0.001053,-0.002217,0.000150,0.112615,0.000286,-0.041750,-0.001621,-0.000733,0.834056,0.445712,9.631209,0.000000,0.000000,0,0,,38.991411,-76.936704,-10.560000,,,
2026-09-11T18:26:24.581,10.627490,-0.000000,0.100919,-0.000000,0.000000,-0.780029,0.268359,-0.000000,-0.002394,-0.005040,0.000029,0.112615,0.000228,-0.036660,0.000278,-0.003556,0.792279,0.478368,9.666023,0.000000,0.000000,0,0,,38.991411,-76.936704,-10.560000,,,
2026-09-11T18:26:24.614,10.660892,-0.000000,0.100919,-0.000000,0.000000,-0.780029,0.268359,-0.000000,-0.001039,-0.002186,-0.000092,0.112615,0.000171,-0.017852,0.001477,-0.000703,0.816207,0.489940,9.662885,0.000000,0.000000,0,0,,38.991411,-76.936704,-10.560000,,,
2026-09-11T18:26:24.648,10.694299,-0.000000,0.100919,-0.000000,0.000000,-0.736084,0.253240,-0.000000,-0.000701,-0.001476,-0.000153,0.112615,0.000142,-0.002931,-0.000926,0.000008,0.858670,0.452381,9.673966,0.000000,0.000000,0,0,,38.991411,-76.936704,-10.560000,,,
2026-09-11T18:26:24.682,10.727702,-0.000000,0.100919,-0.000000,0.000000,-0.692139,0.238121,-0.000000,-0.001505,-0.003169,-0.000231,0.112615,0.000105,0.007675,0.001492,-0.001686,0.799144,0.410408,9.674751,0.000000,0.000000,0,0,,38.991411,-76.936704,-10.560000,,,
2026-09-11T18:26:24.715,10.761104,-0.000000,0.100919,-0.000000,0.000000,-0.164795,0.056696,-0.000000,-0.001775,-0.003737,-0.000346,0.112615,0.000050,0.009098,0.001185,-0.002253,0.701372,0.491117,9.672593,0.000000,0.000000,0,0,,38.991411,-76.936704,-10.560000,,,
2026-09-11T18:26:24.748,10.794522,-0.000000,0.100919,-0.000000,0.000000,-0.076904,0.026458,-0.000000,-0.000995,-0.002096,-0.000444,0.112615,0.000004,0.007363,0.000115,-0.000612,0.659105,0.447477,9.684459,0.000000,0.000000,0,0,,38.991411,-76.936704,-10.560000,,,
2026-09-11T18:26:24.782,10.827942,-0.000000,0.100919,-0.000000,0.000000,-0.035706,0.012284,-0.000000,-0.002280,-0.004801,-0.000559,0.112615,-0.000051,0.010051,0.000785,-0.003318,0.549957,0.489548,9.674947,0.000000,0.000000,0,0,,38.991411,-76.936704,-10.560000,,,
2026-09-11T18:26:24.815,10.861344,-0.000000,0.100919,-0.000000,0.000000,0.010986,-0.003780,-0.000000,-0.001181,-0.002487,-0.000681,0.112615,-0.000109,0.008904,0.001067,-0.001003,0.527892,0.499453,9.682106,0.000000,0.000000,0,0,,38.991411,-76.936704,-10.560000,,,
2026-09-11T18:26:24.848,10.894752,-0.000000,0.100919,-0.000000,0.000000,0.054932,-0.018899,-0.000000,-0.000719,-0.001515,-0.000747,0.112615,-0.000140,0.004665,-0.001319,-0.000031,0.539366,0.478074,9.692010,0.000000,0.000000,0,0,,38.991411,-76.936704,-10.560000,,,
2026-09-11T18:26:24.882,10.928160,-0.000000,0.100919,-0.000000,0.000000,0.054932,-0.018899,-0.000000,-0.002593,-0.005459,-0.000864,0.112615,-0.000196,-0.004430,0.000017,-0.003975,0.703333,0.452675,9.644350,0.000000,0.000000,0,0,,38.991411,-76.936704,-10.560000,,,
2026-09-11T18:26:24.915,10.961563,-0.000000,0.100919,-0.000000,0.000000,0.447006,-0.153787,-0.000000,-0.003174,-0.006682,-0.001067,0.112615,-0.000292,-0.020972,-0.002037,-0.005198,0.752072,0.714905,9.570310,0.000000,0.000000,0,0,,38.991411,-76.936704,-10.560000,,,
2026-09-11T18:26:24.949,10.994985,-0.000000,0.100919,-0.000000,0.000000,0.768356,-0.264343,-0.000000,-0.002537,-0.005342,-0.001268,0.112615,-0.000388,-0.038824,-0.001232,-0.003858,0.854650,0.443555,9.719665,0.000000,0.000000,0,0,,38.991411,-76.936704,-10.560000,,,
2026-09-11T18:26:24.982,11.028406,-0.000000,0.100919,-0.000000,0.000000,1.387024,-0.477187,-0.000000,-0.003601,-0.007582,-0.001484,0.112614,-0.000490,-0.052627,-0.000747,-0.006099,0.882010,0.492980,9.758696,0.000000,0.000000,0,0,,38.991411,-76.936704,-10.560000,,,
2026-09-11T18:26:25.015,11.061806,-0.000000,0.100919,-0.000000,0.000000,1.522980,-0.523961,-0.000000,-0.000966,-0.002035,-0.001644,0.112614,-0.000566,-0.047012,-0.001172,-0.000551,0.811206,0.462089,9.654353,0.000000,0.000000,0,0,,38.991411,-76.936704,-10.560000,,,
2026-09-11T18:26:25.048,11.095217,-0.000000,0.100919,-0.000000,0.000000,1.593018,-0.548057,-0.000000,0.003125,0.006579,-0.001568,0.112614,-0.000530,-0.039950,-0.001676,0.008062,0.720789,0.539856,9.665729,0.000000,0.000000,0,0,,38.991411,-76.936704,-10.560000,,,
2026-09-11T18:26:25.083,11.128628,-0.000000,0.100919,-0.000000,0.000000,1.593018,-0.548057,-0.000000,0.001926,0.004055,-0.001391,0.112615,-0.000446,-0.034409,-0.000125,0.005539,0.721181,0.306360,9.690343,0.000000,0.000000,0,0,,38.991411,-76.936704,-10.560000,,,
2026-09-11T18:26:25.116,11.162037,-0.000000,0.100919,-0.000000,0.000000,1.593018,-0.548057,-0.000000,0.000092,0.000193,-0.001320,0.112615,-0.000412,-0.036982,-0.000919,0.001676,0.692938,0.347842,9.638368,0.000000,0.000000,0,0,,38.991411,-76.936704,-10.560000,,,
2026-09-11T18:26:25.149,11.195458,-0.000000,0.100919,-0.000000,0.000000,1.593018,-0.548057,-0.000000,0.000525,0.001104,-0.001298,0.112615,-0.000402,-0.039849,-0.002379,0.002588,0.703333,0.396189,9.680242,0.000000,0.000000,0,0,,38.991411,-76.936704,-10.560000,,,
2026-09-11T18:26:25.183,11.228862,-0.000000,0.100919,-0.000000,0.000000,1.593018,-0.548057,-0.000000,-0.000558,-0.001175,-0.001299,0.112615,-0.000403,-0.033125,-0.001738,0.000309,0.717651,0.370789,9.674358,0.000000,0.000000,0,0,,38.991411,-76.936704,-10.560000,,,
2026-09-11T18:26:25.216,11.262264,-0.000000,0.100919,-0.000000,0.000000,1.593018,-0.548057,-0.000000,0.001254,0.002640,-0.001275,0.112615,-0.000391,-0.031954,-0.001472,0.004123,0.737852,0.294494,9.663669,0.000000,0.000000,0,0,,38.991411,-76.936704,-10.560000,,,
2026-09-11T18:26:25.249,11.295671,0.295205,0.116282,2.733375,0.000000,1.593018,-0.548057,0.295191,0.001140,0.002399,-0.001191,0.117545,-0.000357,-0.028626,-0.000560,0.003883,0.663812,0.389814,9.727609,0.000000,0.000000,0,0,,38.991411,-76.936704,-10.560000,,,
2026-09-11T18:26:25.283,11.329078,0.054658,0.116282,0.506089,0.000000,1.593018,-0.548057,0.054655,0.000178,0.000374,-0.001144,0.123389,-0.000342,-0.024350,0.000794,0.001858,0.671265,0.287433,9.713291,0.000000,0.000000,0,0,,38.991411,-76.936704,-10.560000,,,
2026-09-11T18:26:25.316,11.362488,0.006548,0.116231,0.060632,0.000000,1.593018,-0.548057,0.006548,-0.000187,-0.000394,-0.001145,0.124411,-0.000343,-0.023130,-0.002605,0.001090,0.608601,0.325483,9.674555,0.000000,0.000000,0,0,,38.991411,-76.936704,-10.560000,,,
2026-09-11T18:26:25.349,11.395908,-0.000000,0.116220,-0.000000,0.000000,1.593018,-0.548057,-0.000000,-0.000081,-0.000172,-0.001154,0.124521,-0.000348,-0.021379,-0.000020,0.001312,0.559273,0.277234,9.663473,0.000000,0.000000,0,0,,38.991411,-76.936704,-10.560000,,,
2026-09-11T18:26:25.383,11.429313,-0.000000,0.116220,-0.000000,0.000000,1.593018,-0.548057,-0.000000,0.000484,0.001019,-0.001140,0.124521,-0.000341,-0.020693,-0.001780,0.002503,0.527009,0.310086,9.685244,0.000000,0.000000,0,0,,38.991411,-76.936704,-10.560000,,,
2026-09-11T18:26:25.416,11.462714,-0.000000,0.116220,-0.000000,0.000000,1.593018,-0.548057,-0.000000,0.001409,0.002967,-0.001073,0.124521,-0.000309,-0.017346,-0.000789,0.004451,0.471700,0.287825,9.702504,0.000000,0.000000,0,0,,38.991411,-76.936704,-10.560000,,,
2026-09-11T18:26:25.449,11.496121,-0.000000,0.116220,-0.000000,0.000000,1.593018,-0.548057,-0.000000,0.000555,0.001168,-0.001004,0.124521,-0.000276,-0.008633,0.001514,0.002651,0.426883,0.388147,9.667200,0.000000,0.000000,0,1,11.478470,38.991411,-76.936704,-10.604000,-0.174147,-0.293740,3.459813
2026-09-11T18:26:25.483,11.529540,-0.000000,0.116220,-0.000000,0.000000,1.593018,-0.548057,-0.000000,0.000451,0.000950,-0.000969,0.124521,-0.000260,0.003742,-0.001123,0.002433,0.537404,0.258503,9.629934,0.000000,0.000000,0,0,,38.991411,-76.936704,-10.604000,,,
2026-09-11T18:26:25.516,11.562950,-0.000000,0.116220,-0.000000,0.000000,1.593018,-0.548057,-0.000000,-0.001434,-0.003019,-0.001003,0.124521,-0.000276,0.005784,-0.001648,-0.001535,0.698626,0.213981,9.739671,0.000000,0.000000,0,0,,38.991411,-76.936704,-10.604000,,,
2026-09-11T18:26:25.549,11.596358,-0.000000,0.116220,-0.000000,0.000000,1.593018,-0.548057,-0.000000,-0.002040,-0.004295,-0.001126,0.124521,-0.000334,0.009762,0.000117,-0.002812,0.734224,0.327052,9.672201,0.000000,0.000000,0,0,,38.991411,-76.936704,-10.604000,,,
2026-09-11T18:26:25.583,11.629765,-0.000000,0.116220,-0.000000,0.000000,1.593018,-0.548057,-0.000000,-0.000014,-0.000030,-0.001198,0.124521,-0.000368,0.016197,-0.000930,0.001454,0.794927,0.311361,9.655235,0.000000,0.000000,0,0,,38.991411,-76.936704,-10.604000,,,
2026-09-11T18:26:25.617,11.663176,-0.000000,0.116220,-0.000000,0.000000,1.593018,-0.548057,-0.000000,0.001049,0.002209,-0.001161,0.124521,-0.000351,0.013964,-0.001812,0.003693,0.709511,0.322737,9.638270,0.000000,0.000000,0,0,,38.991411,-76.936704,-10.604000,,,
2026-09-11T18:26:25.650,11.696600,-0.000000,0.116220,-0.000000,0.000000,1.593018,-0.548057,-0.000000,-0.000625,-0.001316,-0.001146,0.124521,-0.000344,0.014418,0.000218,0.000167,0.641257,0.343233,9.653274,0.000000,0.000000,0,0,,38.991411,-76.936704,-10.604000,,,
2026-09-11T18:26:25.683,11.730018,-0.000000,0.116220,-0.000000,0.000000,1.593018,-0.548057,-0.000000,-0.001509,-0.003177,-0.001222,0.124521,-0.000380,-0.000047,-0.000191,-0.001693,0.625860,0.358041,9.702209,0.000000,0.000000,0,0,,38.991411,-76.936704,-10.604000,,,
2026-09-11T18:26:25.716,11.763418,-0.000000,0.116220,-0.000000,0.000000,1.593018,-0.548057,-0.000000,-0.000146,-0.000308,-0.001280,0.124521,-0.000407,-0.009643,0.000799,0.001175,0.762369,0.332347,9.652980,0.000000,0.000000,0,0,,38.991411,-76.936704,-10.604000,,,
2026-09-11T18:26:25.750,11.796823,-0.000000,0.116220,-0.000000,0.000000,1.593018,-0.548057,-0.000000,0.000498,0.001049,-0.001267,0.124521,-0.000401,-0.011326,0.000304,0.002532,0.715101,0.427962,9.727412,0.000000,0.000000,0,0,,38.991411,-76.936704,-10.604000,,,
2026-09-11T18:26:25.783,11.830233,-0.343132,0.103141,-3.177148,0.000000,1.593018,-0.548057,-0.343116,0.000386,0.000812,-0.001236,0.118789,-0.000380,-0.017817,0.001619,0.002295,0.705000,0.293121,9.722411,0.000000,0.000000,0,0,,38.991411,-76.936704,-10.604000,,,
2026-09-11T18:26:25.817,11.863641,-0.090294,0.100816,-0.836053,0.000000,1.593018,-0.548057,-0.090290,0.000457,0.000962,-0.001207,0.111549,-0.000357,-0.014378,0.001361,0.002445,0.720691,0.342939,9.647880,0.000000,0.000000,0,0,,38.991411,-76.936704,-10.604000,,,
2026-09-11T18:26:25.850,11.897061,-0.012497,0.100908,-0.115716,0.000000,1.593018,-0.548057,-0.012497,0.000159,0.000335,-0.001185,0.109832,-0.000344,-0.005265,0.001789,0.001818,0.722652,0.235458,9.663767,0.000000,0.000000,0,0,,38.991411,-76.936704,-10.604000,,,
2026-09-11T18:26:25.883,11.930468,-0.000000,0.100919,-0.000000,0.000000,1.593018,-0.548057,-0.000000,0.000081,0.000171,-0.001177,0.109623,-0.000340,0.003190,-0.000488,0.001654,0.794437,0.247814,9.611204,0.000000,0.000000,0,0,,38.991411,-76.936704,-10.604000,,,
2026-09-11T18:26:25.917,11.963870,-0.000000,0.100919,-0.000000,0.000000,1.593018,-0.548057,-0.000000,-0.000044,-0.000093,-0.001175,0.109623,-0.000339,0.014456,-0.000824,0.001390,0.745894,0.359708,9.647880,0.000000,0.000000,0,0,,38.991411,-76.936704,-10.604000,,,
2026-09-11T18:26:25.951,11.997278,-0.000000,0.100919,-0.000000,0.000000,1.593018,-0.548057,-0.000000,-0.000946,-0.001991,-0.001210,0.109623,-0.000356,0.034652,-0.001723,-0.000507,0.777079,0.308811,9.728295,0.000000,0.000000,0,0,,38.991411,-76.936704,-10.604000,,,
2026-09-11T18:26:25.984,12.030688,-0.000000,0.100919,-0.000000,0.000000,1.593018,-0.548057,-0.000000,-0.000577,-0.001214,-0.001264,0.109623,-0.000381,0.039081,0.000569,0.000269,0.679111,0.384323,9.702504,0.000000,0.000000,0,0,,38.991411,-76.936704,-10.604000,,,
2026-09-11T18:26:26.017,12.064096,-0.000000,0.100919,-0.000000,0.000000,1.593018,-0.548057,-0.000000,-0.001346,-0.002835,-0.001331,0.109623,-0.000414,0.043894,0.000318,-0.001351,0.673325,0.291356,9.532358,0.000000,0.000000,0,0,,38.991411,-76.936704,-10.604000,,,
2026-09-11T18:26:26.051,12.097506,-0.000000,0.100919,-0.000000,0.000000,1.526413,-0.525142,-0.000000,0.000461,0.000970,-0.001362,0.109623,-0.000428,0.058781,0.001564,0.002454,0.588693,0.613112,9.637682,0.000000,0.000000,0,0,,38.991411,-76.936704,-10.604000,,,
2026-09-11T18:26:26.084,12.130916,-0.000000,0.100919,-0.000000,0.000000,1.496201,-0.514748,-0.000000,0.001006,0.002118,-0.001311,0.109623,-0.000404,0.056492,0.001679,0.003601,0.528284,0.381283,9.690539,0.000000,0.000000,0,0,,38.991411,-76.936704,-10.604000,,,
2026-09-11T18:26:26.117,12.164317,-0.000000,0.100919,-0.000000,0.000000,1.482468,-0.510023,-0.000000,-0.001959,-0.004124,-0.001344,0.109623,-0.000420,0.060145,0.002401,-0.002641,0.555645,0.402073,9.667592,0.000000,0.000000,0,0,,38.991411,-76.936704,-10.604000,,,
2026-09-11T18:26:26.151,12.197745,-0.000000,0.100919,-0.000000,0.000000,1.482468,-0.510023,-0.000000,0.000203,0.000427,-0.001406,0.109623,-0.000449,0.056209,-0.002577,0.001911,0.483664,-0.018535,9.716527,0.000000,0.000000,0,0,,38.991411,-76.936704,-10.604000,,,
2026-09-11T18:26:26.185,12.231164,-0.000000,0.100919,-0.000000,0.000000,1.482468,-0.510023,-0.000000,-0.001811,-0.003812,-0.001463,0.109623,-0.000476,0.050360,0.003973,-0.002329,0.563980,0.506808,9.716527,0.000000,0.000000,0,0,,38.991411,-76.936704,-10.604000,,,
2026-09-11T18:26:26.218,12.264573,-0.000000,0.100919,-0.000000,0.000000,1.482468,-0.510023,-0.000000,-0.001716,-0.003612,-0.001587,0.109623,-0.000535,0.038734,0.003200,-0.002128,0.601540,0.569080,9.667200,0.000000,0.000000,0,0,,38.991411,-76.936704,-10.604000,,,
2026-09-11T18:26:26.251,12.297983,-0.000000,0.100919,-0.000000,0.000000,1.482468,-0.510023,-0.000000,-0.001100,-0.002315,-0.001686,0.109623,-0.000582,0.012081,-0.000916,-0.000832,0.634686,0.426883,9.684852,0.000000,0.000000,0,0,,38.991411,-76.936704,-10.604000,,,
2026-09-11T18:26:26.286,12.331403,-0.000000,0.100919,-0.000000,0.000000,1.482468,-0.510023,-0.000000,-0.001937,-0.004078,-0.001793,0.109623,-0.000633,-0.000939,0.002558,-0.002595,0.636746,0.497884,9.645919,0.000000,0.000000,0,0,,38.991411,-76.936704,-10.604000,,,
2026-09-11T18:26:26.318,12.364806,-0.000000,0.100919,-0.000000,0.000000,1.482468,-0.510023,-0.000000,-0.001802,-0.003793,-0.001924,0.109623,-0.000695,-0.020513,0.000693,-0.002310,0.580063,0.502787,9.654451,0.000000,0.000000,0,0,,38.991411,-76.936704,-10.604000,,,
2026-09-11T18:26:26.351,12.398226,-0.000000,0.100919,-0.000000,0.000000,1.482468,-0.510023,-0.000000,-0.000584,-0.001230,-0.002008,0.109623,-0.000735,-0.037048,-0.001378,0.000254,0.621055,0.459147,9.613557,0.000000,0.000000,0,0,,38.991411,-76.936704,-10.604000,,,
2026-09-11T18:26:26.385,12.431619,-0.009725,0.100623,-0.090042,0.000000,1.482468,-0.510023,-0.009724,-0.002585,-0.005442,-0.002119,0.109460,-0.000788,-0.040912,0.000061,-0.003959,0.648023,0.546917,9.677104,0.000000,0.000000,0,0,,38.991411,-76.936704,-10.604000,,,
2026-09-11T18:26:26.419,12.465044,-0.009725,0.100298,-0.090042,0.000000,1.482468,-0.510023,-0.009724,-0.000561,-0.001180,-0.002230,0.109135,-0.000839,-0.034195,-0.000717,0.000304,0.618898,0.453754,9.680537,0.000000,0.000000,0,0,,38.991411,-76.936704,-10.604000,,,
2026-09-11T18:26:26.452,12.498464,-0.009725,0.099973,-0.090042,0.000000,1.482468,-0.510023,-0.009724,0.000499,0.001051,-0.002232,0.108810,-0.000840,-0.029086,0.000520,0.002535,0.689506,0.412174,9.723882,0.000000,0.000000,0,1,12.478863,38.991411,-76.936704,-10.637000,-0.196473,-0.286698,3.459813
2026-09-11T18:26:26.485,12.531872,-0.009725,0.099649,-0.090042,0.000000,1.482468,-0.510023,-0.009724,-0.001368,-0.002880,-0.002263,0.108485,-0.000853,-0.019816,0.002509,-0.001396,0.684602,0.435513,9.686715,0.000000,0.000000,0,0,,38.991411,-76.936704,-10.637000,,,
2026-09-11T18:26:26.519,12.565273,-0.009725,0.099324,-0.090042,0.000000,1.482468,-0.510023,-0.009724,-0.001550,-0.003263,-0.002365,0.108160,-0.000901,-0.004474,0.003207,-0.001779,0.820424,0.487292,9.732218,0.000000,0.000000,0,0,,38.991411,-76.936704,-10.637000,,,
2026-09-11T18:26:26.552,12.598683,-0.009725,0.098999,-0.090042,0.000000,1.549072,-0.532938,-0.009724,-0.000720,-0.001515,-0.002445,0.107835,-0.000939,0.008444,0.002291,-0.000031,0.877695,0.317637,9.665238,0.000000,0.000000,0,0,,38.991411,-76.936704,-10.637000,,,
2026-09-11T18:26:26.586,12.632106,-0.009725,0.098675,-0.090042,0.000000,1.549072,-0.532938,-0.009724,-0.000880,-0.001852,-0.002501,0.107510,-0.000965,0.023594,0.002610,-0.000369,0.943302,0.425118,9.619539,0.000000,0.000000,0,0,,38.991411,-76.936704,-10.637000,,,
2026-09-11T18:26:26.618,12.665511,-0.260455,0.089122,-2.411623,0.000000,1.549072,-0.532938,-0.260444,0.000256,0.000538,-0.002523,0.102998,-0.000964,0.024264,-0.001119,0.002022,0.830427,0.400504,9.654647,0.000000,0.000000,0,0,,38.991411,-76.936704,-10.637000,,,
2026-09-11T18:26:26.651,12.698934,-0.093522,0.085305,-0.865948,0.000000,1.549072,-0.532938,-0.093518,-0.002315,-0.004874,-0.002596,0.097082,-0.000983,0.021920,0.001627,-0.003390,0.831016,0.435808,9.717410,0.000000,0.000000,0,0,,38.991411,-76.936704,-10.637000,,,
2026-09-11T18:26:26.684,12.732342,-0.014966,0.085470,-0.138571,0.000000,1.549072,-0.532938,-0.014965,-0.001579,-0.003325,-0.002733,0.095270,-0.001043,0.023583,-0.000274,-0.001841,0.855238,0.499747,9.618755,0.000000,0.000000,0,0,,38.991411,-76.936704,-10.637000,,,
2026-09-11T18:26:26.719,12.765742,-0.005146,0.085379,-0.047649,0.000000,1.549072,-0.532938,-0.005146,-0.000337,-0.000709,-0.002800,0.094934,-0.001074,0.011512,-0.000424,0.000775,0.770410,0.442868,9.660727,0.000000,0.000000,0,0,,38.991411,-76.936704,-10.637000,,,
2026-09-11T18:26:26.753,12.799161,-0.000000,0.085493,-0.000000,0.000000,1.549072,-0.532938,-0.000000,-0.000752,-0.001583,-0.002838,0.094848,-0.001092,-0.002724,0.001483,-0.000099,0.800419,0.516810,9.666513,0.000000,0.000000,0,0,,38.991411,-76.936704,-10.637000,,,
2026-09-11T18:26:26.785,12.832585,-0.000000,0.085493,-0.000000,0.000000,1.549072,-0.532938,-0.000000,0.000323,0.000680,-0.002853,0.094848,-0.001099,-0.009949,0.000459,0.002164,0.754524,0.464541,9.646606,0.000000,0.000000,0,0,,38.991411,-76.936704,-10.637000,,,
2026-09-11T18:26:26.818,12.865995,-0.000000,0.085493,-0.000000,0.000000,1.549072,-0.532938,-0.000000,-0.000114,-0.000239,-0.002846,0.094848,-0.001096,-0.015005,-0.001225,0.001244,0.727850,0.423941,9.667102,0.000000,0.000000,0,0,,38.991411,-76.936704,-10.637000,,,
2026-09-11T18:26:26.851,12.899401,-0.000000,0.085493,-0.000000,0.000000,1.593018,-0.548057,-0.000000,0.000175,0.000369,-0.002844,0.094848,-0.001095,-0.015986,0.000611,0.001852,0.762075,0.596146,9.623854,0.000000,0.000000,0,0,,38.991411,-76.936704,-10.637000,,,
2026-09-11T18:26:26.886,12.932809,0.347166,0.093975,3.214497,0.000000,1.593018,-0.548057,0.347150,0.000376,0.000791,-0.002825,0.100647,-0.001102,-0.016661,-0.000945,0.002274,0.765115,0.434729,9.752910,0.000000,0.000000,0,0,,38.991411,-76.936704,-10.637000,,,
2026-09-11T18:26:26.919,12.966235,0.162399,0.100708,1.503697,0.000000,1.593018,-0.548057,0.162392,-0.001000,-0.002106,-0.002847,0.109163,-0.001137,-0.016141,-0.001212,-0.000622,0.808656,0.463266,9.676124,0.000000,0.000000,0,0,,38.991411,-76.936704,-10.637000,,,
2026-09-11T18:26:26.953,12.999656,0.026256,0.100725,0.243107,0.000000,1.593018,-0.548057,0.026254,0.000968,0.002037,-0.002848,0.112315,-0.001146,-0.010247,-0.001538,0.003521,0.805518,0.395110,9.585510,0.000000,0.000000,0,0,,38.991411,-76.936704,-10.637000,,,
2026-09-11T18:26:26.985,13.033078,0.006806,0.100628,0.063023,0.000000,1.593018,-0.548057,0.006806,-0.000506,-0.001065,-0.002831,0.112867,-0.001140,-0.006169,-0.003316,0.000419,0.748051,0.508965,9.668474,0.000000,0.000000,0,0,,38.991411,-76.936704,-10.637000,,,
2026-09-11T18:26:27.018,13.066479,-0.000000,0.100532,-0.000000,0.000000,1.593018,-0.548057,-0.000000,0.000876,0.001845,-0.002818,0.112981,-0.001134,-0.007695,-0.003374,0.003329,0.779138,0.337545,9.699071,0.000000,0.000000,0,0,,38.991411,-76.936704,-10.637000,,,
2026-09-11T18:26:27.053,13.099886,-0.000000,0.100532,-0.000000,0.000000,1.593018,-0.548057,-0.000000,0.000415,0.000874,-0.002773,0.112981,-0.001113,-0.008502,-0.002080,0.002357,0.716866,0.428943,9.721430,0.000000,0.000000,0,0,,38.991411,-76.936704,-10.637000,,,
2026-09-11T18:26:27.087,13.133311,-0.000000,0.100532,-0.000000,0.000000,1.593018,-0.548057,-0.000000,-0.000333,-0.000700,-0.002770,0.112981,-0.001111,-0.015046,-0.002084,0.000783,0.703529,0.452675,9.630817,0.000000,0.000000,0,0,,38.991411,-76.936704,-10.637000,,,
2026-09-11T18:26:27.119,13.166729,-0.000000,0.100532,-0.000000,0.000000,1.593018,-0.548057,-0.000000,0.000018,0.000038,-0.002781,0.112981,-0.001116,-0.029086,-0.002543,0.001521,0.714905,0.443555,9.654745,0.000000,0.000000,0,0,,38.991411,-76.936704,-10.637000,,,
2026-09-11T18:26:27.153,13.200138,-0.000000,0.100532,-0.000000,0.000000,1.593018,-0.548057,-0.000000,0.000444,0.000934,-0.002765,0.112981,-0.001109,-0.036608,0.000164,0.002418,0.773352,0.441397,9.658668,0.000000,0.000000,0,0,,38.991411,-76.936704,-10.637000,,,
2026-09-11T18:26:27.185,13.233541,0.009725,0.100942,0.090042,0.000000,1.593018,-0.548057,0.009724,0.001471,0.003096,-0.002698,0.113144,-0.001077,-0.041541,-0.002899,0.004580,0.810422,0.415900,9.650921,0.000000,0.000000,0,0,,38.991411,-76.936704,-10.637000,,,
2026-09-11T18:26:27.220,13.266958,0.009725,0.101261,0.090042,0.000000,1.593018,-0.548057,0.009724,0.001088,0.002290,-0.002608,0.113469,-0.001035,-0.048242,-0.003196,0.003773,0.824837,0.365298,9.674260,0.000000,0.000000,0,0,,38.991411,-76.936704,-10.637000,,,
2026-09-11T18:26:27.254,13.300376,0.009725,0.101591,0.090042,0.000000,1.593018,-0.548057,0.009724,0.001155,0.002432,-0.002529,0.113794,-0.000999,-0.048388,0.001281,0.003916,0.793750,0.373731,9.682694,0.000000,0.000000,0,0,,38.991411,-76.936704,-10.637000,,,
2026-09-11T18:26:27.287,13.333800,0.009725,0.101916,0.090042,0.000000,1.593018,-0.548057,0.009724,0.001937,0.004078,-0.002420,0.114119,-0.000948,-0.050738,-0.001542,0.005561,0.763938,0.381871,9.598553,0.000000,0.000000,0,0,,38.991411,-76.936704,-10.637000,,,
2026-09-11T18:26:27.320,13.367210,0.009725,0.102241,0.090042,0.000000,1.593018,-0.548057,0.009724,0.001473,0.003101,-0.002300,0.114444,-0.000892,-0.056088,-0.001067,0.004585,0.743442,0.278705,9.679850,0.000000,0.000000,0,0,,38.991411,-76.936704,-10.637000,,,
2026-09-11T18:26:27.353,13.400620,0.303838,0.113577,2.813312,0.000000,1.593018,-0.548057,0.303824,0.000870,0.001831,-0.002218,0.119682,-0.000864,-0.052893,-0.001609,0.003315,0.636844,0.289198,9.735552,0.000000,0.000000,0,0,,38.991411,-76.936704,-10.637000,,,
2026-09-11T18:26:27.386,13.434028,0.082535,0.116379,0.764210,0.000000,1.593018,-0.548057,0.082531,0.001079,0.002272,-0.002149,0.126136,-0.000846,-0.054997,-0.003253,0.003756,0.578494,0.321756,9.658570,0.000000,0.000000,0,0,,38.991411,-76.936704,-10.637000,,,
2026-09-11T18:26:27.421,13.467431,0.015182,0.116277,0.140570,0.000000,1.593018,-0.548057,0.015181,0.001148,0.002416,-0.002071,0.127768,-0.000812,-0.055434,-0.000039,0.003900,0.539954,0.264583,9.692108,0.000000,0.000000,0,0,,38.991411,-76.936704,-10.637000,,,
2026-09-11T18:26:27.454,13.500851,0.005560,0.116356,0.051478,0.000000,1.593018,-0.548057,0.005559,0.001250,0.002631,-0.001986,0.128114,-0.000773,-0.050343,-0.000338,0.004114,0.513967,0.244578,9.678379,0.000000,0.000000,0,1,13.485804,38.991411,-76.936704,-10.670000,-0.191288,-0.315423,3.459813
2026-09-11T18:26:27.487,13.534275,-0.000000,0.116220,-0.000000,0.000000,1.593018,-0.548057,-0.000000,0.001509,0.003176,-0.001889,0.128207,-0.000727,-0.051808,-0.000230,0.004660,0.505631,0.235654,9.687695,0.000000,0.000000,0,0,,38.991411,-76.936704,-10.670000,,,
2026-09-11T18:26:27.519,13.567678,-0.000000,0.116220,-0.000000,0.000000,1.593018,-0.548057,-0.000000,0.000616,0.001296,-0.001815,0.128207,-0.000691,-0.050210,0.000950,0.002780,0.498080,0.184953,9.683969,0.000000,0.000000,0,0,,38.991411,-76.936704,-10.670000,,,
2026-09-11T18:26:27.553,13.601087,0.009622,0.116505,0.089091,0.000000,1.593018,-0.548057,0.009621,0.000199,0.000419,-0.001786,0.128368,-0.000678,-0.042227,-0.000007,0.001903,0.506415,0.197114,9.702111,0.000000,0.000000,0,0,,38.991411,-76.936704,-10.670000,,,
2026-09-11T18:26:27.588,13.634508,0.009622,0.116829,0.089091,0.000000,1.593018,-0.548057,0.009621,0.000224,0.000471,-0.001771,0.128690,-0.000671,-0.041031,0.001092,0.001955,0.523283,0.182306,9.679066,0.000000,0.000000,0,0,,38.991411,-76.936704,-10.670000,,,
2026-09-11T18:26:27.620,13.667920,0.009622,0.117148,0.089091,0.000000,1.593018,-0.548057,0.009621,-0.000710,-0.001495,-0.001788,0.129011,-0.000680,-0.033220,0.001550,-0.000011,0.529069,0.165536,9.685244,0.000000,0.000000,0,0,,38.991411,-76.936704,-10.670000,,,
2026-09-11T18:26:27.653,13.701339,0.009622,0.117467,0.089091,0.000000,1.593018,-0.548057,0.009621,-0.000105,-0.000222,-0.001817,0.129333,-0.000694,-0.022481,0.000052,0.001262,0.551624,0.149551,9.687303,0.000000,0.000000,0,0,,38.991411,-76.936704,-10.670000,,,
2026-09-11T18:26:27.690,13.734787,0.009622,0.117803,0.089091,0.000000,1.593018,-0.548057,0.009621,-0.000263,-0.000554,-0.001830,0.129654,-0.000701,-0.020495,0.000812,0.000930,0.563980,0.186915,9.696620,0.000000,0.000000,0,0,,38.991411,-76.936704,-10.670000,,,
2026-09-11T18:26:27.722,13.768231,0.009622,0.118128,0.089091,0.000000,1.593018,-0.548057,0.009621,0.000667,0.001404,-0.001816,0.129976,-0.000695,-0.015023,-0.000725,0.002887,0.589870,0.142785,9.694952,0.000000,0.000000,0,0,,38.991411,-76.936704,-10.670000,,,
2026-09-11T18:26:27.754,13.801641,0.009622,0.118436,0.089091,0.000000,1.593018,-0.548057,0.009621,0.000886,0.001866,-0.001761,0.130298,-0.000670,-0.016983,-0.001573,0.003350,0.616152,0.153376,9.687401,0.000000,0.000000,0,0,,38.991411,-76.936704,-10.670000,,,
2026-09-11T18:26:27.787,13.835051,0.009622,0.118755,0.089091,0.000000,1.593018,-0.548057,0.009621,-0.000643,-0.001354,-0.001753,0.130619,-0.000666,-0.017901,0.001428,0.000130,0.661262,0.183482,9.673868,0.000000,0.000000,0,0,,38.991411,-76.936704,-10.670000,,,
2026-09-11T18:26:27.820,13.868456,0.009622,0.119074,0.089091,0.000000,1.593018,-0.548057,0.009621,-0.001043,-0.002196,-0.001812,0.130940,-0.000695,-0.017148,0.001510,-0.000712,0.712257,0.123956,9.667592,0.000000,0.000000,0,0,,38.991411,-76.936704,-10.670000,,,
2026-09-11T18:26:27.854,13.901929,0.009622,0.119398,0.089091,0.000000,1.593018,-0.548057,0.009621,0.000158,0.000333,-0.001843,0.131262,-0.000710,-0.026398,-0.000738,0.001817,0.698724,0.101107,9.646213,0.000000,0.000000,0,0,,38.991411,-76.936704,-10.670000,,,
2026-09-11T18:26:27.888,13.935336,0.009622,0.119723,0.089091,0.000000,1.593018,-0.548057,0.009621,-0.000264,-0.000556,-0.001847,0.131584,-0.000713,-0.028252,0.001666,0.000928,0.696959,0.120426,9.699463,0.000000,0.000000,0,0,,38.991411,-76.936704,-10.670000,,,
2026-09-11T18:26:27.922,13.968745,0.009622,0.120042,0.089091,0.000000,1.593018,-0.548057,0.009621,-0.000338,-0.000711,-0.001868,0.131905,-0.000723,-0.028464,-0.000787,0.000772,0.767959,0.146315,9.709564,0.000000,0.000000,0,0,,38.991411,-76.936704,-10.670000,,,
2026-09-11T18:26:27.955,14.002167,0.009622,0.120367,0.089091,0.000000,1.796951,-0.618217,0.009621,0.000128,0.000269,-0.001875,0.132227,-0.000727,-0.027896,0.000917,0.001753,0.770018,0.094242,9.668376,0.000000,0.000000,0,0,,38.991411,-76.936704,-10.670000,,,
2026-09-11T18:26:27.989,14.035578,0.009622,0.120686,0.089091,0.000000,1.965180,-0.676094,0.009621,-0.001239,-0.002608,-0.001914,0.132548,-0.000747,-0.021935,0.003359,-0.001125,0.768057,0.041580,9.659060,0.000000,0.000000,0,0,,38.991411,-76.936704,-10.670000,,,
2026-09-11T18:26:28.021,14.068978,0.009622,0.121005,0.089091,0.000000,2.183533,-0.751215,0.009621,-0.000289,-0.000608,-0.001968,0.132870,-0.000773,-0.013060,0.002514,0.000875,0.760604,0.111796,9.680144,0.000000,0.000000,0,0,,38.991411,-76.936704,-10.670000,,,
2026-09-11T18:26:28.054,14.102392,0.009622,0.121324,0.089091,0.000000,2.340088,-0.805076,0.009621,-0.001565,-0.003294,-0.002033,0.133191,-0.000804,-0.004274,-0.000210,-0.001811,0.688231,0.087181,9.669553,0.000000,0.000000,0,0,,38.991411,-76.936704,-10.670000,,,
2026-09-11T18:26:28.088,14.135803,0.009622,0.121648,0.089091,0.000000,2.437592,-0.838621,0.009621,-0.001348,-0.002838,-0.002136,0.133512,-0.000854,0.002603,0.001149,-0.001355,0.658026,0.071294,9.697992,0.000000,0.000000,0,0,,38.991411,-76.936704,-10.670000,,,
2026-09-11T18:26:28.121,14.169216,0.009622,0.121967,0.089091,0.000000,2.549515,-0.877127,0.009621,0.000187,0.000393,-0.002177,0.133834,-0.000874,0.006061,-0.000931,0.001877,0.634392,0.107187,9.728001,0.000000,0.000000,0,0,,38.991411,-76.936704,-10.670000,,,
2026-09-11T18:26:28.156,14.202629,0.009622,0.122292,0.089091,0.000000,2.801514,-0.963824,0.009621,0.000132,0.000279,-0.002165,0.134155,-0.000869,0.009806,0.000186,0.001762,0.666852,0.152003,9.767718,0.000000,0.000000,0,0,,38.991411,-76.936704,-10.670000,,,
2026-09-11T18:26:28.188,14.236033,0.009622,0.122611,0.089091,0.000000,3.101578,-1.067057,0.009620,-0.001624,-0.003419,-0.002218,0.134477,-0.000895,0.013149,0.001466,-0.001936,0.661851,0.110325,9.664748,0.000000,0.000000,0,0,,38.991411,-76.936704,-10.670000,,,
2026-09-11T18:26:28.221,14.269433,0.009622,0.122930,0.089091,0.000000,3.404389,-1.171235,0.009620,-0.001999,-0.004208,-0.002345,0.134798,-0.000956,0.011331,-0.000235,-0.002724,0.664008,0.098753,9.676222,0.000000,0.000000,0,0,,38.991411,-76.936704,-10.670000,,,
2026-09-11T18:26:28.254,14.302840,0.009622,0.123255,0.089091,0.000000,3.648148,-1.255097,0.009620,-0.002541,-0.005350,-0.002505,0.135119,-0.001033,0.008488,0.000036,-0.003867,0.651554,0.122583,9.686911,0.000000,0.000000,0,0,,38.991411,-76.936704,-10.670000,,,
2026-09-11T18:26:28.289,14.336248,0.009622,0.123574,0.089091,0.000000,3.964005,-1.363763,0.009619,-0.002502,-0.005268,-0.002682,0.135440,-0.001118,0.007339,0.000548,-0.003784,0.678032,0.092869,9.691422,0.000000,0.000000,0,0,,38.991411,-76.936704,-10.670000,,,
2026-09-11T18:26:28.323,14.369657,0.009622,0.123899,0.089091,0.000000,4.372559,-1.504321,0.009619,-0.000933,-0.001964,-0.002803,0.135761,-0.001176,0.000779,-0.000978,-0.000481,0.648416,0.006080,9.642683,0.000000,0.000000,0,0,,38.991411,-76.936704,-10.670000,,,
2026-09-11T18:26:28.355,14.403064,-0.000000,0.123899,-0.000000,0.000000,4.775620,-1.642988,-0.000000,-0.001943,-0.004090,-0.002904,0.135922,-0.001224,-0.003594,0.000399,-0.002607,0.664597,0.159848,9.644350,0.000000,0.000000,0,0,,38.991411,-76.936704,-10.670000,,,
2026-09-11T18:26:28.389,14.436467,-0.000000,0.123899,-0.000000,0.000000,5.278244,-1.815910,-0.000000,-0.000816,-0.001718,-0.003001,0.135922,-0.001270,0.000650,0.000762,-0.000235,0.710884,0.236340,9.742319,0.000000,0.000000,0,0,,38.991411,-76.936704,-10.670000,,,
2026-09-11T18:26:28.422,14.469871,-0.000000,0.123899,-0.000000,0.000000,5.768510,-1.984579,-0.000000,-0.002218,-0.004671,-0.003108,0.135921,-0.001321,-0.017124,0.000991,-0.003187,0.685877,0.064037,9.729766,0.000000,0.000000,0,0,,38.991411,-76.936704,-10.670000,,,
2026-09-11T18:26:28.456,14.503283,-0.000000,0.123899,-0.000000,0.000000,6.384431,-2.196478,-0.000000,-0.003131,-0.006592,-0.003296,0.135921,-0.001410,-0.022103,0.001939,-0.005109,0.704216,0.131605,9.701425,0.000000,0.000000,0,1,14.483679,38.991410,-76.936704,-10.711000,-0.180917,-0.340998,3.459813
2026-09-11T18:26:28.490,14.536687,-0.000000,0.123899,-0.000000,0.000000,6.899415,-2.373652,-0.000000,-0.001668,-0.003512,-0.003465,0.135921,-0.001491,-0.021814,0.001268,-0.002028,0.724908,0.117582,9.652980,0.000000,0.000000,0,0,,38.991410,-76.936704,-10.711000,,,
2026-09-11T18:26:28.522,14.570090,-0.000000,0.123899,-0.000000,0.000000,7.178193,-2.469562,-0.000000,-0.001104,-0.002323,-0.003562,0.135921,-0.001537,-0.025428,0.001738,-0.000840,0.767076,0.095517,9.671416,0.000000,0.000000,0,0,,38.991410,-76.936704,-10.711000,,,
2026-09-11T18:26:28.556,14.603497,-0.000000,0.123899,-0.000000,0.000000,7.218018,-2.483263,-0.000000,-0.001454,-0.003061,-0.003652,0.135921,-0.001580,-0.024175,0.002400,-0.001578,0.827779,0.087966,9.696521,0.000000,0.000000,0,0,,38.991410,-76.936704,-10.711000,,,
2026-09-11T18:26:28.589,14.636900,-0.000000,0.123899,-0.000000,0.000000,7.218018,-2.483263,-0.000000,0.000106,0.000223,-0.003700,0.135921,-0.001602,-0.021356,0.000464,0.001707,0.831408,0.035598,9.665336,0.000000,0.000000,0,0,,38.991410,-76.936704,-10.711000,,,
2026-09-11T18:26:28.623,14.670302,-0.000000,0.123899,-0.000000,0.000000,7.261964,-2.498382,-0.000000,-0.000239,-0.000503,-0.003704,0.135921,-0.001604,-0.030576,0.001100,0.000980,0.818855,0.047660,9.686911,0.000000,0.000000,0,0,,38.991410,-76.936704,-10.711000,,,
2026-09-11T18:26:28.657,14.703720,-0.000000,0.123899,-0.000000,0.000000,7.261964,-2.498382,-0.000000,0.000135,0.000284,-0.003708,0.135920,-0.001606,-0.031943,0.002400,0.001768,0.809735,0.058742,9.673770,0.000000,0.000000,0,0,,38.991410,-76.936704,-10.711000,,,
2026-09-11T18:26:28.690,14.737132,-0.000000,0.123899,-0.000000,0.000000,7.261964,-2.498382,-0.000000,0.000270,0.000569,-0.003694,0.135921,-0.001599,-0.032362,-0.000343,0.002052,0.711865,0.066293,9.658570,0.000000,0.000000,0,0,,38.991410,-76.936704,-10.711000,,,
2026-09-11T18:26:28.722,14.770534,-0.000000,0.123899,-0.000000,0.000000,7.261964,-2.498382,-0.000000,0.000973,0.002048,-0.003650,0.135921,-0.001579,-0.024908,0.002212,0.003532,0.622722,-0.021869,9.642585,0.000000,0.000000,0,0,,38.991410,-76.936704,-10.711000,,,
2026-09-11T18:26:28.756,14.803942,-0.000000,0.123899,-0.000000,0.000000,7.261964,-2.498382,-0.000000,0.000427,0.000898,-0.003601,0.135921,-0.001555,-0.021022,0.001195,0.002382,0.579377,-0.030401,9.684655,0.000000,0.000000,0,0,,38.991410,-76.936704,-10.711000,,,
2026-09-11T18:26:28.790,14.837345,-0.000000,0.123899,-0.000000,0.000000,7.261964,-2.498382,-0.000000,0.000965,0.002032,-0.003552,0.135921,-0.001532,-0.016155,-0.000767,0.003515,0.571237,0.010297,9.703778,0.000000,0.000000,0,0,,38.991410,-76.936704,-10.711000,,,
2026-09-11T18:26:28.823,14.870747,-0.000000,0.123899,-0.000000,0.000000,7.261964,-2.498382,-0.000000,0.000210,0.000441,-0.003510,0.135921,-0.001512,0.001360,0.001822,0.001925,0.479643,0.030204,9.705053,0.000000,0.000000,0,0,,38.991410,-76.936704,-10.711000,,,
2026-09-11T18:26:28.856,14.904169,-0.000000,0.123899,-0.000000,0.000000,7.261964,-2.498382,-0.000000,0.000173,0.000363,-0.003497,0.135921,-0.001506,0.013483,0.001764,0.001847,0.459736,0.006669,9.694462,0.000000,0.000000,0,0,,38.991410,-76.936704,-10.711000,,,
2026-09-11T18:26:28.890,14.937572,-0.000000,0.123899,-0.000000,0.000000,7.261964,-2.498382,-0.000000,-0.000909,-0.001914,-0.003523,0.135921,-0.001518,0.022677,-0.001221,-0.000430,0.406191,-0.024026,9.683969,0.000000,0.000000,0,0,,38.991410,-76.936704,-10.711000,,,
2026-09-11T18:26:28.923,14.970978,-0.000000,0.123899,-0.000000,0.000000,7.261964,-2.498382,-0.000000,-0.001114,-0.002345,-0.003594,0.135921,-0.001552,0.035281,0.000075,-0.000862,0.474053,-0.008140,9.678673,0.000000,0.000000,0,0,,38.991410,-76.936704,-10.711000,,,
2026-09-11T18:26:28.957,15.004383,-0.000000,0.123899,-0.000000,0.000000,7.261964,-2.498382,-0.000000,-0.001155,-0.002431,-0.003674,0.135921,-0.001590,0.039679,-0.001447,-0.000947,0.608208,0.052269,9.670730,0.000000,0.000000,0,0,,38.991410,-76.936704,-10.711000,,,
2026-09-11T18:26:28.991,15.037803,-0.000000,0.123899,-0.000000,0.000000,7.261964,-2.498382,-0.000000,-0.000991,-0.002086,-0.003749,0.135920,-0.001626,0.036991,-0.000717,-0.000602,0.690879,0.072079,9.673770,0.000000,0.000000,0,0,,38.991410,-76.936704,-10.711000,,,
2026-09-11T18:26:29.026,15.071211,-0.000000,0.123899,-0.000000,0.000000,7.261964,-2.498382,-0.000000,-0.001356,-0.002854,-0.003832,0.135920,-0.001665,0.035587,-0.000492,-0.001371,0.704314,0.065803,9.680929,0.000000,0.000000,0,0,,38.991410,-76.936704,-10.711000,,,
2026-09-11T18:26:29.059,15.104623,-0.000000,0.123899,-0.000000,0.000000,7.261964,-2.498382,-0.000000,-0.000717,-0.001509,-0.003905,0.135920,-0.001700,0.023437,-0.001520,-0.000025,0.755700,0.036481,9.649744,0.000000,0.000000,0,0,,38.991410,-76.936704,-10.711000,,,
2026-09-11T18:26:29.092,15.138029,-0.000000,0.123899,-0.000000,0.000000,7.261964,-2.498382,-0.000000,-0.001434,-0.003018,-0.003980,0.135920,-0.001736,0.009314,0.000899,-0.001534,0.776294,0.204174,9.735552,0.000000,0.000000,0,0,,38.991410,-76.936704,-10.711000,,,
2026-09-11T18:26:29.126,15.171459,-0.000000,0.123899,-0.000000,0.000000,7.305909,-2.513501,-0.000000,-0.000275,-0.000578,-0.004040,0.135920,-0.001764,0.000540,0.000800,0.000905,0.763055,0.151219,9.657393,0.000000,0.000000,0,0,,38.991410,-76.936704,-10.711000,,,
2026-09-11T18:26:29.157,15.204876,-0.000000,0.123899,-0.000000,0.000000,7.305909,-2.513501,-0.000000,-0.000888,-0.001869,-0.004081,0.135920,-0.001784,-0.007642,0.000306,-0.000385,0.803949,0.048151,9.609340,0.000000,0.000000,0,0,,38.991410,-76.936704,-10.711000,,,
