timestamp,time_s,speed_mps,distance_m,wheel_omega_rad_s,motor_current_A,steer_motor_deg,steer_column_deg,vx_mps,vy_mps,yaw_rate_rad_s,heading_rad,x_m,y_m,gyro_x_rad_s,gyro_y_rad_s,gyro_z_rad_s,accel_x_mps2,accel_y_mps2,accel_z_mps2,grade_deg,bank_deg,moving,gps_new_fix,gps_time_s,gps_latitude_deg,gps_longitude_deg,gps_altitude_m,gps_east_m,gps_north_m,gps_sigma_m
2026-09-11T17:41:42.639,0.000008,-0.000000,-0.000000,-0.000000,0.000000,-5.474054,1.883276,-0.000000,-0.000741,-0.001559,0.000000,0.000000,0.000000,-0.018823,0.001132,-0.000076,-0.006570,0.118955,9.679360,-2.219533,-1.672454,0,1,-0.555731,38.991432,-76.936688,-9.914000,0.000000,0.000000,2.782682
2026-09-11T17:41:42.673,0.033425,-0.000000,-0.000000,-0.000000,0.000000,-5.474054,1.883276,-0.000000,-0.001868,-0.003932,-0.000092,-0.000000,-0.000044,-0.008692,0.000237,-0.002448,-0.090417,-0.089437,9.711526,-2.224958,-1.685937,0,0,,38.991432,-76.936688,-9.914000,,,
2026-09-11T17:41:42.706,0.066843,-0.000000,-0.000000,-0.000000,0.000000,-5.474054,1.883276,-0.000000,0.000699,0.001471,-0.000133,-0.000000,-0.000063,-0.005221,0.000332,0.002954,-0.030989,0.184267,9.711035,-2.226478,-1.681561,0,0,,38.991432,-76.936688,-9.914000,,,
2026-09-11T17:41:42.740,0.100259,-0.000000,-0.000000,-0.000000,0.000000,-5.474054,1.883276,-0.000000,0.000544,0.001146,-0.000089,-0.000000,-0.000042,-0.005249,0.001922,0.002630,-0.025693,-0.079434,9.695933,-2.227638,-1.694296,0,0,,38.991432,-76.936688,-9.914000,,,
2026-09-11T17:41:42.773,0.133674,-0.000000,-0.000000,-0.000000,0.000000,-5.474054,1.883276,-0.000000,0.000181,0.000381,-0.000064,-0.000000,-0.000030,-0.007281,-0.000224,0.001865,0.025007,0.098459,9.702307,-2.225505,-1.695380,0,0,,38.991432,-76.936688,-9.914000,,,
2026-09-11T17:41:42.807,0.167087,-0.000000,-0.000000,-0.000000,0.000000,-5.474054,1.883276,-0.000000,0.001075,0.002264,-0.000019,-0.000000,-0.000009,-0.010539,-0.000613,0.003747,0.013043,-0.028047,9.704661,-2.224171,-1.704636,0,0,,38.991432,-76.936688,-9.914000,,,
2026-09-11T17:41:42.840,0.200501,-0.000000,-0.000000,-0.000000,0.000000,-5.474054,1.883276,-0.000000,-0.000677,-0.001425,-0.000005,0.000000,-0.000003,-0.009264,0.002269,0.000059,-0.000392,0.033441,9.727216,-2.223719,-1.709812,0,0,,38.991432,-76.936688,-9.914000,,,
2026-09-11T17:41:42.874,0.233916,-0.000000,-0.000000,-0.000000,0.000000,-5.474054,1.883276,-0.000000,-0.000781,-0.001645,-0.000057,-0.000000,-0.000027,-0.003099,0.000046,-0.000161,-0.034225,0.026184,9.731237,-2.225462,-1.715401,0,0,,38.991432,-76.936688,-9.914000,,,
2026-09-11T17:41:42.907,0.267330,-0.000000,-0.000000,-0.000000,0.000000,-5.474054,1.883276,-0.000000,0.001001,0.002107,-0.000049,-0.000000,-0.000023,0.000882,-0.000969,0.003590,0.002354,0.020692,9.699463,-2.224819,-1.721282,0,0,,38.991432,-76.936688,-9.914000,,,
2026-09-11T17:41:42.940,0.300744,-0.000000,-0.000000,-0.000000,0.000000,-5.474054,1.883276,-0.000000,-0.001176,-0.002475,-0.000055,-0.000000,-0.000026,0.014687,0.001577,-0.000992,-0.008238,0.061193,9.725843,-2.224869,-1.724478,0,0,,38.991432,-76.936688,-9.914000,,,
2026-09-11T17:41:42.974,0.334160,-0.000000,-0.000000,-0.000000,0.000000,-5.474054,1.883276,-0.000000,-0.000425,-0.000894,-0.000111,-0.000000,-0.000053,0.018712,-0.000885,0.000590,0.019907,-0.009414,9.718783,-2.223096,-1.732207,0,0,,38.991432,-76.936688,-9.914000,,,
2026-09-11T17:41:43.008,0.367575,-0.000000,-0.000000,-0.000000,0.000000,-5.474054,1.883276,-0.000000,-0.002420,-0.005095,-0.000212,-0.000000,-0.000100,0.023569,-0.000064,-0.003612,0.010101,0.054329,9.721921,-2.221978,-1.735726,0,0,,38.991432,-76.936688,-9.914000,,,
2026-09-11T17:41:43.040,0.400993,-0.000000,-0.000000,-0.000000,0.000000,-5.474054,1.883276,-0.000000,-0.001421,-0.002993,-0.000347,-0.000000,-0.000165,0.023720,0.001584,-0.001509,0.012062,0.036383,9.709172,-2.220746,-1.740368,0,0,,38.991432,-76.936688,-9.914000,,,
2026-09-11T17:41:43.074,0.434409,-0.000000,-0.000000,-0.000000,0.000000,-5.474054,1.883276,-0.000000,-0.001332,-0.002805,-0.000444,-0.000000,-0.000211,0.014507,-0.000278,-0.001322,-0.018044,0.043345,9.715448,-2.221475,-1.744508,0,1,0.443420,38.991432,-76.936688,-9.937000,0.000720,0.003521,2.782682
2026-09-11T17:41:43.107,0.467824,-0.000000,-0.000000,-0.000000,0.000000,-5.382730,1.851857,-0.000000,-0.003305,-0.006957,-0.000607,-0.000000,-0.000288,0.006223,0.001005,-0.005474,-0.037756,0.055506,9.717115,-2.223471,-1.747815,0,0,,38.991432,-76.936688,-9.937000,,,
2026-09-11T17:41:43.141,0.501241,-0.000000,-0.000000,-0.000000,0.000000,-5.363504,1.845242,-0.000000,-0.002266,-0.004771,-0.000803,-0.000000,-0.000381,0.005114,0.003230,-0.003287,-0.017358,0.135528,9.706426,-2.224125,-1.745908,0,0,,38.991432,-76.936688,-9.937000,,,
2026-09-11T17:41:43.175,0.534656,-0.000000,-0.000000,-0.000000,0.000000,-5.363504,1.845242,-0.000000,-0.000557,-0.001173,-0.000902,-0.000000,-0.000428,-0.003894,0.000893,0.000311,0.048347,0.063841,9.698385,-2.220521,-1.748660,0,0,,38.991432,-76.936688,-9.937000,,,
2026-09-11T17:41:43.208,0.568074,-0.000000,-0.000000,-0.000000,0.000000,-5.319559,1.830124,-0.000000,-0.000483,-0.001017,-0.000938,-0.000000,-0.000446,-0.010493,0.000991,0.000467,0.052858,0.075805,9.708780,-2.216665,-1.750607,0,0,,38.991432,-76.936688,-9.937000,,,
2026-09-11T17:41:43.241,0.601487,-0.000000,-0.000000,-0.000000,0.000000,-5.319559,1.830124,-0.000000,-0.000656,-0.001381,-0.000979,-0.000000,-0.000465,-0.007680,0.002293,0.000103,0.035206,0.064626,9.721725,-2.213995,-1.753256,0,0,,38.991432,-76.936688,-9.937000,,,
2026-09-11T17:41:43.276,0.634899,-0.000000,-0.000000,-0.000000,0.000000,-5.319559,1.830124,-0.000000,-0.000110,-0.000231,-0.001005,-0.000000,-0.000478,-0.015104,0.001381,0.001253,0.033637,0.056388,9.714958,-2.211455,-1.756409,0,0,,38.991432,-76.936688,-9.937000,,,
2026-09-11T17:41:43.309,0.668321,-0.000000,-0.000000,-0.000000,0.000000,-5.319559,1.830124,-0.000000,0.001280,0.002696,-0.000964,-0.000000,-0.000458,-0.017639,0.002654,0.004179,0.026184,0.049720,9.715743,-2.209425,-1.759959,0,0,,38.991432,-76.936688,-9.937000,,,
2026-09-11T17:41:43.342,0.701747,-0.000000,-0.000000,-0.000000,0.000000,-5.319559,1.830124,-0.000000,0.000602,0.001268,-0.000898,-0.000000,-0.000427,-0.014464,0.000127,0.002752,0.015298,0.062566,9.717410,-2.208122,-1.762639,0,0,,38.991432,-76.936688,-9.937000,,,
2026-09-11T17:41:43.375,0.735163,-0.000000,-0.000000,-0.000000,0.000000,-5.319559,1.830124,-0.000000,0.000671,0.001412,-0.000853,-0.000000,-0.000405,-0.010084,0.003503,0.002896,-0.000490,0.028243,9.707015,-2.207855,-1.767509,0,0,,38.991432,-76.936688,-9.937000,,,
2026-09-11T17:41:43.408,0.768582,-0.000000,-0.000000,-0.000000,0.000000,-5.319559,1.830124,-0.000000,-0.000878,-0.001848,-0.000860,-0.000000,-0.000409,-0.007094,0.002238,-0.000365,-0.007649,0.049229,9.725059,-2.208054,-1.770967,0,0,,38.991432,-76.936688,-9.937000,,,
2026-09-11T17:41:43.442,0.801996,-0.000000,-0.000000,-0.000000,0.000000,-5.386164,1.853038,-0.000000,0.001253,0.002639,-0.000847,-0.000000,-0.000402,-0.009086,-0.000129,0.004122,-0.008532,0.024517,9.718292,-2.208308,-1.775986,0,0,,38.991432,-76.936688,-9.937000,,,
2026-09-11T17:41:43.476,0.835427,-0.000000,-0.000000,-0.000000,0.000000,-5.430109,1.868157,-0.000000,0.000744,0.001566,-0.000777,-0.000000,-0.000369,-0.002157,0.003291,0.003050,-0.010787,0.026772,9.714566,-2.208706,-1.780805,0,0,,38.991432,-76.936688,-9.937000,,,
2026-09-11T17:41:43.510,0.868845,-0.000000,-0.000000,-0.000000,0.000000,-5.430109,1.868157,-0.000000,-0.001555,-0.003273,-0.000806,-0.000000,-0.000383,0.001066,0.002036,-0.001790,-0.007943,0.017848,9.704073,-2.208914,-1.786147,0,0,,38.991432,-76.936688,-9.937000,,,
2026-09-11T17:41:43.543,0.902267,-0.000000,-0.000000,-0.000000,0.000000,-5.430109,1.868157,-0.000000,-0.000430,-0.000904,-0.000875,-0.000000,-0.000416,0.000470,0.000759,0.000579,-0.023242,0.029126,9.723686,-2.210111,-1.790700,0,0,,38.991432,-76.936688,-9.937000,,,
2026-09-11T17:41:43.576,0.935690,-0.000000,-0.000000,-0.000000,0.000000,-5.430109,1.868157,-0.000000,-0.000659,-0.001388,-0.000914,-0.000000,-0.000434,0.007243,0.001990,0.000095,-0.020986,0.035892,9.710153,-2.211148,-1.794765,0,0,,38.991432,-76.936688,-9.937000,,,
2026-09-11T17:41:43.610,0.969138,-0.000000,-0.000000,-0.000000,0.000000,-5.430109,1.868157,-0.000000,-0.000394,-0.000829,-0.000951,-0.000000,-0.000452,0.009443,0.001160,0.000655,0.007649,0.034127,9.714468,-2.210320,-1.798902,0,0,,38.991432,-76.936688,-9.937000,,,
2026-09-11T17:41:43.643,1.002574,-0.000000,-0.000000,-0.000000,0.000000,-5.430109,1.868157,-0.000000,0.000378,0.000797,-0.000951,-0.000000,-0.000452,0.005599,-0.000164,0.002280,0.018829,0.039325,9.720352,-2.208778,-1.802656,0,0,,38.991432,-76.936688,-9.937000,,,
2026-09-11T17:41:43.676,1.035995,-0.000000,-0.000000,-0.000000,0.000000,-5.474054,1.883276,-0.000000,-0.000286,-0.000603,-0.000948,-0.000000,-0.000450,0.012212,0.001796,0.000881,0.023928,0.036971,9.717998,-2.206924,-1.806518,0,0,,38.991432,-76.936688,-9.937000,,,
2026-09-11T17:41:43.710,1.069414,-0.000000,-0.000000,-0.000000,0.000000,-5.474054,1.883276,-0.000000,-0.001623,-0.003416,-0.001015,-0.000000,-0.000482,0.011313,0.000736,-0.001932,-0.005590,0.037265,9.704759,-2.207000,-1.810319,0,0,,38.991432,-76.936688,-9.937000,,,
2026-09-11T17:41:43.744,1.102832,-0.000000,-0.000000,-0.000000,0.000000,-5.474054,1.883276,-0.000000,-0.000915,-0.001926,-0.001104,-0.000000,-0.000525,0.008221,0.002073,-0.000443,-0.021575,0.059134,9.715448,-2.208110,-1.812662,0,0,,38.991432,-76.936688,-9.937000,,,
2026-09-11T17:41:43.777,1.136252,-0.000000,-0.000000,-0.000000,0.000000,-5.474054,1.883276,-0.000000,0.000641,0.001349,-0.001114,-0.000000,-0.000529,0.008749,0.001934,0.002832,0.009414,0.058055,9.722705,-2.207202,-1.815050,0,0,,38.991432,-76.936688,-9.937000,,,
2026-09-11T17:41:43.810,1.169667,-0.000000,-0.000000,-0.000000,0.000000,-5.474054,1.883276,-0.000000,-0.000405,-0.000853,-0.001106,-0.000000,-0.000525,0.001652,0.001307,0.000630,0.058055,0.068254,9.718488,-2.203158,-1.816750,0,0,,38.991432,-76.936688,-9.937000,,,
2026-09-11T17:41:43.844,1.203085,-0.000000,-0.000000,-0.000000,0.000000,-5.474054,1.883276,-0.000000,-0.000411,-0.000865,-0.001135,-0.000000,-0.000539,-0.002070,0.003104,0.000619,0.029126,0.044424,9.714272,-2.201030,-1.819974,0,0,,38.991432,-76.936688,-9.937000,,,
2026-09-11T17:41:43.877,1.236509,-0.000000,-0.000000,-0.000000,0.000000,-5.474054,1.883276,-0.000000,-0.001247,-0.002626,-0.001193,-0.000000,-0.000567,0.006315,0.000524,-0.001142,0.018731,0.037854,9.711330,-2.199597,-1.823588,0,0,,38.991432,-76.936688,-9.937000,,,
2026-09-11T17:41:43.910,1.269928,-0.000000,-0.000000,-0.000000,0.000000,-5.508387,1.895087,-0.000000,0.001706,0.003591,-0.001177,-0.000000,-0.000559,0.012400,-0.001198,0.005074,-0.048641,0.060703,9.740357,-2.202540,-1.825683,0,0,,38.991432,-76.936688,-9.937000,,,
2026-09-11T17:41:43.945,1.303346,-0.000000,-0.000000,-0.000000,0.000000,-5.710947,1.964775,-0.000000,-0.001016,-0.002138,-0.001152,-0.000000,-0.000547,0.028550,0.001984,-0.000655,-0.092771,0.092575,9.712310,-2.208306,-1.825692,0,0,,38.991432,-76.936688,-9.937000,,,
2026-09-11T17:41:43.977,1.336768,-0.000000,-0.000000,-0.000000,0.000000,-6.169626,2.122578,-0.000000,-0.000561,-0.001180,-0.001208,-0.000000,-0.000574,0.024938,-0.002841,0.000303,0.180148,0.029616,9.473812,-2.196348,-1.829776,0,0,,38.991432,-76.936688,-9.937000,,,
2026-09-11T17:41:44.011,1.370185,-0.000000,-0.000000,-0.000000,0.000000,-6.408579,2.204786,-0.000000,0.000996,0.002096,-0.001193,-0.000000,-0.000566,0.020824,-0.001461,0.003580,0.090908,-0.075217,9.738396,-2.190298,-1.840596,0,0,,38.991432,-76.936688,-9.937000,,,
2026-09-11T17:41:44.044,1.403607,-0.000000,-0.000000,-0.000000,0.000000,-6.484796,2.231008,-0.000000,0.001359,0.002862,-0.001110,-0.000000,-0.000527,0.018093,0.001473,0.004346,0.034716,-0.096007,9.870001,-2.187951,-1.852643,0,0,,38.991432,-76.936688,-9.937000,,,
2026-09-11T17:41:44.078,1.437028,-0.000000,-0.000000,-0.000000,0.000000,-6.484796,2.231008,-0.000000,-0.002450,-0.005157,-0.001148,-0.000000,-0.000545,0.008608,-0.001880,-0.003674,-0.004609,0.177402,9.684655,-2.188796,-1.846865,0,1,1.441476,38.991432,-76.936688,-9.954000,0.000432,0.003151,2.782682
2026-09-11T17:41:44.111,1.470448,-0.000000,-0.000000,-0.000000,0.000000,-6.484796,2.231008,-0.000000,-0.001565,-0.003295,-0.001289,-0.000000,-0.000612,-0.002593,-0.000733,-0.001811,-0.048053,0.062272,9.708878,-2.193064,-1.848600,0,0,,38.991432,-76.936688,-9.954000,,,
2026-09-11T17:41:44.144,1.503868,-0.000000,-0.000000,-0.000000,0.000000,-6.330301,2.177856,-0.000000,-0.002212,-0.004657,-0.001422,-0.000000,-0.000676,0.001370,0.001981,-0.003173,-0.036383,0.051681,9.716331,-2.196530,-1.851002,0,0,,38.991432,-76.936688,-9.954000,,,
2026-09-11T17:41:44.178,1.537285,-0.000000,-0.000000,-0.000000,0.000000,-6.066629,2.087143,-0.000000,-0.002333,-0.004912,-0.001582,-0.000001,-0.000751,0.005291,-0.000276,-0.003428,-0.040796,0.157397,9.706622,-2.200242,-1.846537,0,0,,38.991432,-76.936688,-9.954000,,,
2026-09-11T17:41:44.211,1.570702,-0.000000,-0.000000,-0.000000,0.000000,-5.978739,2.056906,-0.000000,-0.001219,-0.002565,-0.001707,-0.000001,-0.000811,0.011466,0.000403,-0.001082,0.001373,0.164556,9.724274,-2.201185,-1.841658,0,0,,38.991432,-76.936688,-9.954000,,,
2026-09-11T17:41:44.245,1.604121,-0.000000,-0.000000,-0.000000,0.000000,-5.978739,2.056906,-0.000000,0.001549,0.003260,-0.001695,-0.000001,-0.000805,0.017709,0.001135,0.004744,0.031872,0.115620,9.719469,-2.200144,-1.840000,0,0,,38.991432,-76.936688,-9.954000,,,
2026-09-11T17:41:44.278,1.637538,-0.000000,-0.000000,-0.000000,0.000000,-5.978739,2.056906,-0.000000,0.001769,0.003724,-0.001579,-0.000001,-0.000750,0.002817,-0.000152,0.005207,0.079336,0.154945,9.716135,-2.212938,-1.835815,0,0,,38.991432,-76.936688,-9.954000,,,
2026-09-11T17:41:44.312,1.670978,-0.000000,-0.000000,-0.000000,0.000000,-6.045343,2.079820,-0.000000,-0.000291,-0.000612,-0.001527,-0.000001,-0.000725,-0.015732,0.003293,0.000871,0.152984,0.078747,9.686911,-2.225113,-1.836608,0,0,,38.991432,-76.936688,-9.954000,,,
2026-09-11T17:41:44.345,1.704395,0.009643,0.000387,0.089292,0.000000,-6.165506,2.121160,0.009637,0.002902,0.006110,-0.001435,0.000161,-0.000682,-0.041854,0.001876,0.007594,0.234183,0.205547,9.689265,-2.217379,-1.829190,0,0,,38.991432,-76.936688,-9.954000,,,
2026-09-11T17:41:44.378,1.737814,0.009643,0.000706,0.089292,0.000000,-6.740229,2.318886,0.009636,0.005041,0.010613,-0.001155,0.000483,-0.000549,-0.073515,0.001708,0.012097,0.296161,0.126408,9.687205,-2.203822,-1.826978,0,0,,38.991432,-76.936688,-9.954000,,,
2026-09-11T17:41:44.411,1.771231,0.009643,0.001037,0.089292,0.000000,-7.427561,2.555353,0.009634,0.003681,0.007750,-0.000849,0.000805,-0.000404,-0.108596,0.004632,0.009233,0.289787,0.139843,9.708976,-2.204423,-1.823920,0,0,,38.991432,-76.936688,-9.954000,,,
2026-09-11T17:41:44.445,1.804644,0.009643,0.001356,0.089292,0.000000,-7.783243,2.677721,0.009633,0.004577,0.009635,-0.000558,0.001127,-0.000266,-0.140602,0.006589,0.011119,0.352745,0.001471,9.704661,-2.208289,-1.829849,0,0,,38.991432,-76.936688,-9.954000,,,
2026-09-11T17:41:44.478,1.838059,0.009643,0.001675,0.089292,0.000000,-8.229563,2.831272,0.009632,0.007305,0.015378,-0.000140,0.001449,-0.000068,-0.143655,0.001552,0.016862,0.410212,-0.065999,9.247769,-2.209706,-1.840081,0,0,,38.991432,-76.936688,-9.954000,,,
2026-09-11T17:41:44.512,1.871476,0.009643,0.001994,0.089292,0.000000,-8.959467,3.082385,0.009630,0.005414,0.011398,0.000307,0.001771,0.000145,-0.101422,0.006578,0.012882,0.486312,-0.252423,9.570016,-2.210649,-1.862259,0,0,,38.991432,-76.936688,-9.954000,,,
2026-09-11T17:41:44.546,1.904892,0.272206,0.013478,2.520429,0.000000,-10.353357,3.561935,0.271680,0.007415,0.015610,0.000758,0.006471,0.000362,-0.059310,0.003159,0.017093,0.438161,-0.099537,9.705347,-2.214720,-1.874567,0,0,,38.991432,-76.936688,-9.954000,,,
2026-09-11T17:41:44.578,1.938304,0.076131,0.015620,0.704916,0.000000,-12.243006,4.212043,0.075925,0.008410,0.017706,0.001315,0.012278,0.000632,-0.029852,0.004854,0.019190,0.458657,-0.279391,9.675143,-2.224317,-1.898185,0,0,,38.991432,-76.936688,-9.954000,,,
2026-09-11T17:41:44.612,1.971721,0.046720,0.016702,0.432588,0.000000,-14.342768,4.934438,0.046546,0.010199,0.021471,0.001970,0.014323,0.000946,0.001870,0.002736,0.022954,0.416096,-0.135430,9.765560,-2.241597,-1.912207,0,0,,38.991432,-76.936688,-9.954000,,,
2026-09-11T17:41:44.645,2.005138,0.046720,0.018274,0.432588,0.000000,-15.161936,5.216262,0.046526,0.007910,0.016652,0.002607,0.015878,0.001252,0.017358,-0.002371,0.018136,0.493078,-0.284099,9.641898,-2.258732,-1.935679,0,0,,38.991432,-76.936688,-9.954000,,,
2026-09-11T17:41:44.679,2.038556,0.258401,0.028391,2.392600,0.000000,-16.393778,5.640061,0.257150,0.013250,0.027894,0.003351,0.020951,0.001622,0.040840,0.000517,0.029378,1.890134,-0.584771,9.263950,-2.194715,-1.978758,0,0,,38.991432,-76.936688,-9.954000,,,
2026-09-11T17:41:44.712,2.071971,0.161213,0.033267,1.492714,0.000000,-17.295343,5.950233,0.160345,0.010758,0.022648,0.004195,0.027924,0.002049,0.040220,-0.000198,0.024132,0.056584,1.102758,8.782836,-2.257593,-1.911953,0,0,,38.991432,-76.936688,-9.954000,,,
2026-09-11T17:41:44.745,2.105384,0.279048,0.042530,2.583780,0.000000,-17.471125,6.010708,0.277514,0.014846,0.031255,0.005096,0.035237,0.002512,0.014429,-0.008702,0.032739,0.760800,0.353726,10.219118,-2.278003,-1.894674,0,0,,38.991432,-76.936688,-9.954000,,,
2026-09-11T17:41:44.779,2.138799,0.230831,0.050118,2.137322,0.000000,-17.742350,6.104019,0.229522,0.011160,0.023494,0.006011,0.043706,0.002993,0.035160,-0.005508,0.024978,1.123156,0.683131,9.455376,-2.262840,-1.856061,0,0,,38.991432,-76.936688,-9.954000,,,
2026-09-11T17:41:44.813,2.172216,0.279454,0.059688,2.587533,0.000000,-17.910578,6.161896,0.277839,0.021783,0.045860,0.007169,0.052180,0.003599,0.046252,-0.007556,0.047343,1.143946,-0.270762,9.469890,-2.249109,-1.880066,1,0,,38.991432,-76.936688,-9.954000,,,
2026-09-11T17:41:44.846,2.205636,0.348080,0.072437,3.222962,0.000000,-17.954523,6.177015,0.346059,0.012539,0.026398,0.008377,0.062600,0.004255,0.030486,0.002485,0.027882,1.440499,0.167596,10.360726,-2.237774,-1.875210,1,0,,38.991432,-76.936688,-9.954000,,,
2026-09-11T17:41:44.879,2.239052,0.367618,0.084342,3.403873,0.000000,-17.800028,6.123863,0.365520,0.015227,0.032057,0.009353,0.074485,0.004824,0.014849,0.000370,0.033540,0.810618,0.764821,8.860112,-2.276130,-1.831935,1,0,,38.991432,-76.936688,-9.954000,,,
2026-09-11T17:41:44.913,2.272465,0.426184,0.099563,3.946144,0.000000,-16.980860,5.842039,0.423970,0.023929,0.050377,0.010731,0.087667,0.005611,0.004565,-0.003440,0.051860,1.871305,-2.397334,10.118502,-2.238127,-1.994331,1,0,,38.991432,-76.936688,-9.954000,,,
2026-09-11T17:41:44.946,2.305883,0.513713,0.116322,4.756606,0.000000,-15.441400,5.312408,0.511507,0.015244,0.032093,0.012109,0.103290,0.006445,0.019961,-0.011403,0.033577,1.533074,0.438848,10.351017,-2.219456,-1.971130,1,0,,38.991432,-76.936688,-9.954000,,,
2026-09-11T17:41:44.980,2.339305,0.543071,0.134699,5.028438,0.000000,-14.204065,4.886720,0.541097,0.011769,0.024777,0.013059,0.120873,0.007118,0.023942,0.000871,0.026260,0.906331,1.517971,8.739687,-2.244012,-1.878161,1,0,,38.991432,-76.936688,-9.954000,,,
2026-09-11T17:41:45.013,2.372725,0.572002,0.154238,5.296313,0.000000,-13.196756,4.540168,0.570207,0.013238,0.027869,0.013939,0.139435,0.007787,0.032629,-0.002454,0.029352,1.357240,2.676627,11.243717,-2.238460,-1.711417,1,0,,38.991432,-76.936688,-9.954000,,,
2026-09-11T17:41:45.047,2.406144,0.620572,0.175270,5.746035,0.000000,-12.922098,4.445676,0.618705,0.019979,0.042061,0.015107,0.159291,0.008631,0.073579,-0.012885,0.043545,1.699198,0.354707,9.570212,-2.214670,-1.697415,1,0,,38.991432,-76.936688,-9.954000,,,
2026-09-11T17:41:45.080,2.439563,0.679028,0.197999,6.287298,0.000000,-12.834208,4.415438,0.677013,0.024576,0.051740,0.016675,0.180927,0.009720,0.101288,-0.007543,0.053223,1.402645,0.162888,8.297897,-2.205433,-1.696562,1,1,2.441732,38.991433,-76.936687,-9.969000,0.068996,0.155673,3.805601
2026-09-11T17:41:45.114,2.472982,0.727792,0.222539,6.738815,0.000000,-12.812921,4.408115,0.725639,0.025688,0.054080,0.018443,0.204346,0.010972,0.105536,0.008599,0.055563,1.854732,-0.283608,10.967758,-2.165839,-1.724882,1,0,,38.991433,-76.936687,-9.969000,,,
2026-09-11T17:41:45.147,2.506414,0.786391,0.247968,7.281397,0.000000,-12.856867,4.423234,0.784049,0.029541,0.062192,0.020386,0.229559,0.012386,0.112433,0.008205,0.063676,1.670661,0.839547,9.596886,-2.138579,-1.680814,1,0,,38.991433,-76.936687,-9.969000,,,
2026-09-11T17:41:45.180,2.539857,0.825371,0.275995,7.642321,0.000000,-12.900812,4.438353,0.822896,0.032621,0.068675,0.022575,0.256401,0.014003,0.121624,-0.003005,0.070158,0.899074,0.281745,10.430745,-2.154726,-1.673840,1,0,,38.991433,-76.936687,-9.969000,,,
2026-09-11T17:41:45.214,2.573276,0.854703,0.304523,7.913914,0.000000,-12.915232,4.443314,0.852134,0.032573,0.068575,0.024868,0.284356,0.015757,0.107275,-0.049697,0.070059,1.069121,0.014906,12.812290,-2.151629,-1.684338,1,0,,38.991433,-76.936687,-9.969000,,,
2026-09-11T17:41:45.247,2.606694,0.884086,0.334065,8.185983,0.000000,-12.746317,4.385201,0.881498,0.025420,0.053517,0.026908,0.313289,0.017476,0.071392,0.018677,0.055000,0.177010,-1.158263,9.029081,-2.201972,-1.769899,1,0,,38.991433,-76.936687,-9.969000,,,
2026-09-11T17:41:45.281,2.640114,0.913416,0.364632,8.457560,0.000000,-12.009546,4.131725,0.911043,0.037441,0.078823,0.029119,0.343201,0.019365,0.124877,0.097232,0.080306,0.994002,0.452185,13.187787,-2.194594,-1.751905,1,0,,38.991433,-76.936687,-9.969000,,,
2026-09-11T17:41:45.314,2.673530,0.942588,0.396350,8.727669,0.000000,-9.345362,3.215147,0.941105,0.024021,0.050571,0.031281,0.374102,0.021327,0.062864,0.029881,0.052054,0.960463,2.356930,9.602868,-2.183247,-1.609305,1,0,,38.991433,-76.936687,-9.969000,,,
2026-09-11T17:41:45.347,2.706951,0.952422,0.428399,8.818721,0.000000,-6.633112,2.282034,0.951667,0.030567,0.064351,0.033202,0.405685,0.023258,0.011146,-0.059343,0.065835,2.327118,2.113137,4.814771,-2.076708,-1.484923,1,0,,38.991433,-76.936687,-9.969000,,,
2026-09-11T17:41:45.381,2.740418,1.011009,0.462350,9.361196,0.000000,-6.286356,2.162737,1.010289,0.018627,0.039215,0.034935,0.438468,0.025200,0.012326,-0.046372,0.040698,0.982234,0.249972,9.324555,-2.050177,-1.481081,1,0,,38.991433,-76.936687,-9.969000,,,
2026-09-11T17:41:45.414,2.773833,1.030520,0.497007,9.541850,0.000000,-5.581858,1.920364,1.029941,0.015448,0.032522,0.036133,0.472514,0.026980,-0.101916,-0.067338,0.034006,-0.255267,-1.902098,11.104658,-2.097136,-1.616132,1,0,,38.991433,-76.936687,-9.969000,,,
2026-09-11T17:41:45.448,2.807254,1.050478,0.531824,9.726645,0.000000,-4.463312,1.535543,1.050100,0.015508,0.032648,0.037222,0.507229,0.028772,-0.164720,-0.040947,0.034131,0.430316,-2.503344,11.556353,-2.092893,-1.788656,1,0,,38.991433,-76.936687,-9.969000,,,
2026-09-11T17:41:45.481,2.840677,1.021867,0.565832,9.461734,0.000000,-1.246378,0.428800,1.021839,0.003303,0.006954,0.037884,0.541819,0.030386,-0.291147,-0.028185,0.008438,0.437279,-2.273378,6.712162,-2.084403,-1.942640,1,0,,38.991433,-76.936687,-9.969000,,,
2026-09-11T17:41:45.515,2.874094,1.041969,0.600364,9.647863,0.000000,0.319174,-0.109808,1.041967,-0.018652,-0.039266,0.037344,0.576288,0.031426,-0.163813,-0.011955,-0.037783,-1.366557,1.566024,12.134847,-2.190145,-1.843374,1,0,,38.991433,-76.936687,-9.969000,,,
2026-09-11T17:41:45.548,2.907513,1.032747,0.634429,9.562471,0.000000,-0.923655,0.317771,1.032731,0.011600,0.024420,0.037096,0.610934,0.032598,-0.144177,-0.073040,0.025904,0.521027,-3.224329,11.363456,-2.169390,-2.059426,1,0,,38.991433,-76.936687,-9.969000,,,
2026-09-11T17:41:45.581,2.940930,1.052730,0.669371,9.747503,0.000000,-4.290964,1.476249,1.052381,0.017401,0.036633,0.038116,0.645731,0.034393,-0.080013,-0.031473,0.038116,-0.660086,3.211776,9.512353,-2.223937,-1.857527,1,0,,38.991433,-76.936687,-9.969000,,,
2026-09-11T17:41:45.615,2.974350,1.033767,0.703619,9.571921,0.000000,-4.823114,1.659328,1.033334,0.041797,0.087994,0.040199,0.680517,0.036745,-0.035246,-0.045914,0.089477,0.438946,-1.275355,8.586801,-2.204228,-1.951576,1,0,,38.991433,-76.936687,-9.969000,,,
2026-09-11T17:41:45.648,3.007772,1.034203,0.737718,9.575952,0.000000,-7.650721,2.632129,1.033112,0.049707,0.104646,0.043418,0.714955,0.039716,-0.083031,0.006451,0.106130,-2.861188,1.561611,16.461541,-2.393269,-1.862127,1,0,,38.991433,-76.936687,-9.969000,,,
2026-09-11T17:41:45.682,3.041194,1.024975,0.771863,9.490507,0.000000,-10.005915,3.442402,1.023125,0.021663,0.045606,0.045929,0.749230,0.042442,-0.012596,-0.010432,0.047090,-1.324584,-0.149649,8.792152,-2.479560,-1.880427,1,0,,38.991433,-76.936687,-9.969000,,,
2026-09-11T17:41:45.715,3.074608,1.005727,0.805449,9.312291,0.000000,-11.857111,4.079281,1.003179,0.035781,0.075329,0.047949,0.783001,0.044989,0.000512,-0.028701,0.076813,1.593679,-1.423435,8.119514,-2.381741,-1.982794,1,0,,38.991433,-76.936687,-9.969000,,,
2026-09-11T17:41:45.748,3.108027,1.025078,0.839696,9.491461,0.000000,-12.532770,4.311733,1.022177,0.047426,0.099843,0.050876,0.816734,0.048050,-0.059854,-0.034819,0.101327,-0.094634,0.375987,8.353010,-2.397946,-1.969329,1,0,,38.991433,-76.936687,-9.969000,,,
2026-09-11T17:41:45.782,3.141446,1.025072,0.873875,9.491408,0.000000,-12.306864,4.234013,1.022274,0.046931,0.098802,0.054196,0.850766,0.051418,0.013144,0.036996,0.100286,1.028227,-0.863672,6.739032,-2.344406,-2.036154,1,0,,38.991433,-76.936687,-9.969000,,,
2026-09-11T17:41:45.815,3.174867,1.034957,0.908271,9.582933,0.000000,-12.262918,4.218894,1.032152,0.034219,0.072040,0.057051,0.884967,0.054681,0.030495,-0.024724,0.073523,1.178465,-1.432359,10.151060,-2.287361,-2.137313,1,0,,38.991433,-76.936687,-9.969000,,,
2026-09-11T17:41:45.849,3.208289,1.044832,0.943452,9.674368,0.000000,-12.085077,4.157710,1.042082,0.035916,0.075613,0.059518,0.919503,0.057870,0.064095,0.019066,0.077097,0.641453,-5.076805,8.278578,-2.271950,-2.473464,1,0,,38.991433,-76.936687,-9.969000,,,
2026-09-11T17:41:45.882,3.241717,1.064631,0.979317,9.857696,0.000000,-11.953928,4.112590,1.061890,0.023237,0.048919,0.061599,0.954544,0.060986,0.070649,0.013323,0.050403,-0.041482,1.108446,12.456603,-2.309098,-2.403913,1,0,,38.991433,-76.936687,-9.969000,,,
2026-09-11T17:41:45.915,3.275149,1.045375,1.014282,9.679403,0.000000,-11.735575,4.037468,1.042781,0.024109,0.050755,0.063266,0.989608,0.063970,0.026008,0.065602,0.052239,1.925438,0.201625,10.540188,-2.226808,-2.393882,1,0,,38.991433,-76.936687,-9.969000,,,
2026-09-11T17:41:45.949,3.308566,1.084879,1.050706,10.045178,0.000000,-10.617029,3.652648,1.082675,0.010605,0.022327,0.064487,1.025012,0.066816,-0.010984,-0.016728,0.023811,2.966512,4.649431,10.293648,-2.084565,-2.094347,1,0,,38.991433,-76.936687,-9.969000,,,
2026-09-11T17:41:45.983,3.341987,1.123865,1.088211,10.406156,0.000000,-8.770639,3.017422,1.122307,0.033395,0.070306,0.066035,1.061731,0.069953,-0.067554,0.013124,0.071790,0.946048,3.624342,10.371611,-2.077935,-1.867959,1,0,,38.991433,-76.936687,-9.969000,,,
2026-09-11T17:41:46.016,3.375405,1.133710,1.126025,10.497315,0.000000,-8.709528,2.996397,1.132160,0.056986,0.119970,0.069214,1.099213,0.074006,-0.009162,-0.063732,0.121454,2.935523,-3.751436,8.282403,-1.942149,-2.125000,1,0,,38.991433,-76.936687,-9.969000,,,
2026-09-11T17:41:46.049,3.408831,1.182573,1.165570,10.949748,0.000000,-8.571512,2.948915,1.181007,0.022512,0.047394,0.072011,1.137684,0.078060,-0.088757,-0.091235,0.048878,1.635455,6.129058,8.608376,-1.885731,-1.734653,1,0,,38.991433,-76.936687,-9.969000,,,
2026-09-11T17:41:46.083,3.442251,1.231441,1.206539,11.402235,0.000000,-8.769953,3.017186,1.229734,0.034036,0.071655,0.074000,1.177790,0.081942,0.056768,-0.005986,0.073138,0.561038,-4.718568,10.734555,-1.893173,-2.052674,1,1,3.443486,38.991441,-76.936682,-9.993000,0.518407,0.995380,2.993926
2026-09-11T17:41:46.116,3.475671,1.280274,1.249468,11.854391,0.000000,-8.461649,2.911118,1.278622,0.048690,0.102506,0.076911,1.219481,0.086481,0.105152,0.115698,0.103989,0.930161,2.235132,15.036341,-1.872197,-1.920018,1,0,,38.991441,-76.936682,-9.993000,,,
2026-09-11T17:41:46.149,3.509090,1.339144,1.294561,12.399484,0.000000,-8.292734,2.853005,1.337484,0.056883,0.119753,0.080624,1.262920,0.091681,0.131596,-0.002811,0.121237,0.821111,2.036351,10.021318,-1.857195,-1.803576,1,0,,38.991441,-76.936682,-9.993000,,,
2026-09-11T17:41:46.183,3.542508,1.397831,1.341694,12.942876,0.000000,-7.103464,2.443852,1.396559,0.039126,0.082370,0.084002,1.308317,0.097037,0.122399,-0.011196,0.083853,2.191492,0.896230,12.140339,-1.755999,-1.759275,1,0,,38.991441,-76.936682,-9.993000,,,
2026-09-11T17:41:46.216,3.575959,1.408097,1.389407,13.037936,0.000000,-5.047647,1.736576,1.407450,0.027271,0.057413,0.086340,1.354951,0.102134,0.068191,-0.084665,0.058896,0.725300,-2.716834,1.515226,-1.751729,-1.947202,1,0,,38.991441,-76.936682,-9.993000,,,
2026-09-11T17:41:46.249,3.609373,1.447716,1.437543,13.404775,0.000000,-4.900705,1.686022,1.447089,0.024723,0.052048,0.088168,1.402385,0.107156,0.175663,0.028140,0.053531,-1.369106,-2.913948,15.340739,-1.883292,-2.145240,1,0,,38.991441,-76.936682,-9.993000,,,
2026-09-11T17:41:46.283,3.642788,1.419076,1.485177,13.139591,0.000000,-3.905069,1.343487,1.418686,0.017182,0.036174,0.089642,1.450014,0.112104,0.193408,0.025697,0.037657,-0.090908,-2.936601,6.930850,-1.929547,-2.340997,1,0,,38.991441,-76.936682,-9.993000,,,
2026-09-11T17:41:46.316,3.676209,1.360635,1.531535,12.598473,0.000000,-2.682154,0.922759,1.360459,-0.033540,-0.070610,0.089067,1.496294,0.115976,0.064036,0.143104,-0.069127,-2.386350,3.566875,11.784750,-2.119697,-2.104276,1,0,,38.991441,-76.936682,-9.993000,,,
2026-09-11T17:41:46.350,3.709624,1.340873,1.576138,12.415493,0.000000,-0.782892,0.269344,1.340858,-0.022628,-0.047639,0.087091,1.541333,0.119012,0.155803,-0.076395,-0.046155,-1.936715,2.635341,5.233515,-2.272214,-1.932569,1,0,,38.991441,-76.936682,-9.993000,,,
2026-09-11T17:41:46.383,3.743044,1.321303,1.619830,12.234291,0.000000,1.771429,-0.609437,1.321229,-0.032255,-0.067905,0.085161,1.585731,0.121925,0.108667,-0.090592,-0.066422,-0.756681,2.029192,7.778537,-2.337278,-1.800279,1,0,,38.991441,-76.936682,-9.993000,,,
2026-09-11T17:41:46.417,3.776458,1.321899,1.663534,12.239802,0.000000,5.543860,-1.907291,1.321166,-0.031323,-0.065943,0.082924,1.629811,0.124572,0.120029,-0.020650,-0.064459,1.261626,4.523808,14.574153,-2.259239,-1.508248,1,0,,38.991441,-76.936682,-9.993000,,,
2026-09-11T17:41:46.450,3.809874,1.380411,1.710006,12.781580,0.000000,9.845007,-3.387044,1.377999,-0.041654,-0.087692,0.080357,1.674857,0.127033,0.078964,0.079253,-0.086209,2.335356,-4.119578,8.820297,-2.102660,-1.776482,1,0,,38.991441,-76.936682,-9.993000,,,
2026-09-11T17:41:46.483,3.843289,1.419491,1.757571,13.143436,0.000000,12.794836,-4.401893,1.415304,-0.057709,-0.121493,0.076863,1.721512,0.129042,-0.016462,0.028965,-0.120009,2.481671,-0.395208,9.189125,-1.929700,-1.797469,1,0,,38.991441,-76.936682,-9.993000,,,
2026-09-11T17:41:46.517,3.876704,1.439300,1.806083,13.326854,0.000000,17.237433,-5.930310,1.431598,-0.076460,-0.160968,0.072143,1.769111,0.130346,0.005123,0.006424,-0.159485,0.156906,-1.270059,11.427297,-1.903616,-1.871040,1,0,,38.991441,-76.936682,-9.993000,,,
2026-09-11T17:41:46.550,3.910119,1.468741,1.855414,13.599457,0.000000,21.864051,-7.522036,1.456102,-0.094017,-0.197930,0.066147,1.817438,0.130837,-0.056018,0.017510,-0.196447,2.940720,4.399754,7.223382,-1.701723,-1.573235,1,0,,38.991441,-76.936682,-9.993000,,,
2026-09-11T17:41:46.584,3.943539,1.478917,1.904712,13.693677,0.000000,22.677726,-7.801970,1.465227,-0.103676,-0.218266,0.059192,1.866364,0.130597,-0.120791,0.042768,-0.216783,0.243793,3.062911,9.948847,-1.681284,-1.363133,1,0,,38.991441,-76.936682,-9.993000,,,
2026-09-11T17:41:46.617,3.976957,1.469715,1.953565,13.608469,0.000000,23.969306,-8.246321,1.454519,-0.094351,-0.198633,0.052226,1.915258,0.130010,-0.051023,0.027784,-0.197150,0.130821,5.897916,6.732854,-1.669312,-0.973891,1,0,,38.991441,-76.936682,-9.993000,,,
2026-09-11T17:41:46.650,4.010373,1.441267,2.001290,13.345062,0.000000,23.661003,-8.140253,1.426745,-0.108762,-0.228972,0.045082,1.963505,0.128963,-0.048534,0.072839,-0.227489,-1.584362,0.738539,10.800260,-1.769748,-0.920393,1,0,,38.991441,-76.936682,-9.993000,,,
2026-09-11T17:41:46.684,4.043789,1.402843,2.047899,12.989286,0.000000,22.955818,-7.897644,1.389537,-0.099466,-0.209403,0.037758,2.010664,0.127438,-0.115602,0.013811,-0.207919,-2.134221,5.077589,12.359419,-1.902228,-0.588961,1,0,,38.991441,-76.936682,-9.993000,,,
2026-09-11T17:41:46.717,4.077202,1.354948,2.092696,12.545811,0.000000,22.365303,-7.694485,1.342748,-0.065684,-0.138283,0.031949,2.056380,0.126274,-0.083208,0.010483,-0.136800,2.764299,0.987235,12.002065,-1.712166,-0.532751,1,0,,38.991441,-76.936682,-9.993000,,,
2026-09-11T17:41:46.751,4.110615,1.316573,2.136308,12.190495,0.000000,21.178092,-7.286041,1.305943,-0.069279,-0.145849,0.027202,2.100678,0.125330,-0.028909,0.074231,-0.144366,-2.390959,6.199274,7.335669,-1.858036,-0.139468,1,0,,38.991441,-76.936682,-9.993000,,,
2026-09-11T17:41:46.784,4.144030,1.278248,2.179431,11.835632,0.000000,19.175147,-6.596954,1.269785,-0.051754,-0.108956,0.022945,2.143749,0.124389,0.179827,0.082858,-0.107473,0.149159,7.453937,16.029852,-1.839743,0.327451,1,0,,38.991441,-76.936682,-9.993000,,,
2026-09-11T17:41:46.817,4.177444,1.287827,2.222724,11.924321,0.000000,16.740303,-5.759278,1.281326,-0.052007,-0.109489,0.019295,2.186397,0.123555,0.188544,-0.019755,-0.108006,-2.240329,2.701242,3.369369,-1.977226,0.481619,1,0,,38.991441,-76.936682,-9.993000,,,
2026-09-11T17:41:46.851,4.210859,1.268221,2.264969,11.742790,0.000000,11.085090,-3.813678,1.265413,-0.026028,-0.054795,0.016551,2.228964,0.123015,0.054254,-0.017193,-0.053311,3.558343,-1.988004,6.257133,-1.741340,0.325771,1,0,,38.991441,-76.936682,-9.993000,,,
2026-09-11T17:41:46.885,4.244273,1.258321,2.306941,11.651118,0.000000,8.894004,-3.059864,1.256527,-0.040599,-0.085471,0.014207,2.271110,0.122550,0.077810,-0.026501,-0.083987,0.737950,3.292779,8.341537,-1.697455,0.516141,1,0,,38.991441,-76.936682,-9.993000,,,
2026-09-11T17:41:46.918,4.277689,1.267826,2.349459,11.739130,0.000000,8.944129,-3.077109,1.265998,-0.028439,-0.059871,0.011779,2.313268,0.121944,0.048618,-0.032284,-0.058388,2.910123,1.203766,13.120513,-1.525288,0.567063,1,0,,38.991441,-76.936682,-9.993000,,,
2026-09-11T17:41:46.951,4.311103,1.277669,2.391955,11.830273,0.000000,8.962669,-3.083487,1.275820,-0.040959,-0.086230,0.009338,2.355744,0.121232,0.010320,-0.044931,-0.084747,1.214456,5.547230,10.202839,-1.477689,0.901039,1,0,,38.991441,-76.936682,-9.993000,,,
2026-09-11T17:41:46.985,4.344520,1.297479,2.435647,12.013691,0.000000,9.270286,-3.189319,1.295469,-0.024173,-0.050890,0.007047,2.398714,0.120496,-0.009018,-0.038161,-0.049406,1.004299,1.043035,8.739392,-1.454477,0.936661,1,0,,38.991441,-76.936682,-9.993000,,,
2026-09-11T17:41:47.018,4.377940,1.336806,2.480444,12.377836,0.000000,9.749565,-3.354208,1.334516,-0.041648,-0.087681,0.004731,2.442667,0.119654,-0.049940,-0.033125,-0.086197,2.379780,0.735303,7.614374,-1.350920,0.955258,1,0,,38.991441,-76.936682,-9.993000,,,
2026-09-11T17:41:47.052,4.411363,1.366253,2.526654,12.650493,0.000000,9.983711,-3.434763,1.363799,-0.032605,-0.068643,0.002119,2.487763,0.118567,-0.017088,-0.009143,-0.067160,2.113431,1.325173,7.074321,-1.270503,1.010369,1,0,,38.991441,-76.936682,-9.993000,,,
2026-09-11T17:41:47.086,4.444780,1.385972,2.572602,12.833070,0.000000,9.929466,-3.416101,1.383509,-0.053229,-0.112062,-0.000900,2.533667,0.117160,0.084805,-0.074012,-0.110578,0.336564,1.245543,9.607085,-1.311729,1.063683,1,1,4.441281,38.991451,-76.936674,-10.030000,1.247403,2.130309,2.782155
2026-09-11T17:41:47.118,4.478194,1.415575,2.620304,13.107173,0.000000,9.735145,-3.349247,1.413157,-0.046064,-0.096977,-0.004393,2.580387,0.115377,0.094298,-0.051557,-0.095493,1.007241,-0.838763,8.345165,-1.317472,0.980162,1,0,,38.991451,-76.936674,-10.030000,,,
2026-09-11T17:41:47.152,4.511612,1.454841,2.669112,13.470752,0.000000,9.687080,-3.332711,1.452381,-0.054463,-0.114659,-0.007929,2.628255,0.113401,0.206521,-0.081956,-0.113176,1.597798,-0.009414,6.992142,-1.289308,0.953222,1,0,,38.991451,-76.936674,-10.030000,,,
2026-09-11T17:41:47.187,4.545030,1.533141,2.719731,14.195751,0.000000,9.669914,-3.326805,1.530557,-0.061208,-0.128859,-0.011998,2.678075,0.110969,0.212755,-0.143104,-0.127376,3.573543,3.759183,11.236852,-1.131633,1.172829,1,0,,38.991451,-76.936674,-10.030000,,,
2026-09-11T17:41:47.219,4.578449,1.572396,2.772663,14.559223,0.000000,10.854377,-3.734304,1.569058,-0.065990,-0.138925,-0.016473,2.729833,0.108105,0.158684,-0.036034,-0.137442,-0.673619,-5.111716,15.785078,-1.246656,0.816392,1,0,,38.991451,-76.936674,-10.030000,,,
2026-09-11T17:41:47.253,4.611864,1.611742,2.826631,14.923538,0.000000,13.955268,-4.801124,1.606087,-0.082737,-0.174183,-0.021704,2.782824,0.104607,0.055561,-0.017713,-0.172699,1.164344,1.547293,13.346361,-1.238962,0.899476,1,0,,38.991451,-76.936674,-10.030000,,,
2026-09-11T17:41:47.286,4.645280,1.641187,2.881443,15.196180,0.000000,22.398948,-7.706060,1.626366,-0.093060,-0.195917,-0.027887,2.836740,0.100330,-0.015278,-0.009423,-0.194433,0.808853,-4.585099,8.908361,-1.251344,0.586840,1,0,,38.991451,-76.936674,-10.030000,,,
2026-09-11T17:41:47.319,4.678696,1.670534,2.937348,15.467905,0.000000,22.524604,-7.749290,1.655278,-0.147467,-0.310457,-0.036348,2.891409,0.094551,-0.081153,-0.013961,-0.308973,-0.126506,3.910108,4.145075,-1.319274,0.840716,1,0,,38.991451,-76.936674,-10.030000,,,
2026-09-11T17:41:47.353,4.712115,1.728808,2.995543,16.007484,0.000000,23.737907,-8.166711,1.711276,-0.140619,-0.296039,-0.046482,2.947414,0.087408,-0.017776,-0.114752,-0.294556,-0.664695,-2.878252,15.681618,-1.413847,0.651472,1,0,,38.991451,-76.936674,-10.030000,,,
2026-09-11T17:41:47.386,4.745530,1.777818,3.054810,16.461276,0.000000,23.480415,-8.078124,1.760177,-0.145082,-0.305436,-0.056531,3.005090,0.079651,-0.065389,-0.146150,-0.303952,-3.915501,-11.385619,15.841663,-1.708903,-0.084538,1,0,,38.991451,-76.936674,-10.030000,,,
2026-09-11T17:41:47.420,4.778945,1.797443,3.115101,16.642995,0.000000,23.501701,-8.085448,1.779576,-0.143660,-0.302442,-0.066687,3.063819,0.071193,0.083353,-0.036861,-0.300958,0.617427,-4.971677,8.906105,-1.698507,-0.396836,1,0,,38.991451,-76.936674,-10.030000,,,
2026-09-11T17:41:47.454,4.812402,1.768891,3.174744,16.378621,0.000000,25.061073,-8.621929,1.748901,-0.143456,-0.302012,-0.076799,3.122350,0.062174,-0.040377,0.081688,-0.300529,-0.793750,-1.009987,10.036518,-1.771301,-0.449924,1,0,,38.991451,-76.936674,-10.030000,,,
2026-09-11T17:41:47.487,4.845822,1.769085,3.233577,16.380418,0.000000,25.188102,-8.665631,1.748890,-0.164486,-0.346286,-0.087632,3.180175,0.052246,-0.078852,0.041841,-0.344802,-0.623605,3.894809,14.318298,-1.824631,-0.179800,1,0,,38.991451,-76.936674,-10.030000,,,
2026-09-11T17:41:47.519,4.879238,1.789092,3.292661,16.565669,0.000000,25.168189,-8.658781,1.768701,-0.152812,-0.321710,-0.098793,3.238198,0.041495,0.042990,-0.125041,-0.320226,-1.984278,5.039441,6.351473,-1.959057,0.159101,1,0,,38.991451,-76.936674,-10.030000,,,
2026-09-11T17:41:47.553,4.912657,1.789730,3.352030,16.571571,0.000000,24.364128,-8.382154,1.770611,-0.134474,-0.283104,-0.108899,3.296522,0.030590,0.024373,-0.060016,-0.281621,-0.835625,1.576517,1.979276,-2.012061,0.265666,1,0,,38.991451,-76.936674,-10.030000,,,
2026-09-11T17:41:47.586,4.946070,1.761090,3.410681,16.306391,0.000000,24.038658,-8.270180,1.742776,-0.129560,-0.272758,-0.118186,3.354341,0.019559,0.009806,0.049947,-0.271275,0.658811,-0.218982,12.985868,-1.959981,0.253085,1,0,,38.991451,-76.936674,-10.030000,,,
2026-09-11T17:41:47.620,4.979488,1.722997,3.467725,15.953677,0.000000,24.206886,-8.328057,1.704828,-0.146275,-0.307947,-0.127889,3.410944,0.007919,0.035322,0.185607,-0.306464,-3.489206,-3.801646,7.600056,-2.165800,0.011846,1,0,,38.991451,-76.936674,-10.030000,,,
2026-09-11T17:41:47.655,5.012903,1.694589,3.525454,15.690635,0.000000,24.927177,-8.575864,1.675642,-0.153211,-0.322549,-0.138423,3.466259,-0.004536,-0.022274,-0.011759,-0.321066,4.217742,-1.133551,7.080598,-1.862013,-0.052921,1,0,,38.991451,-76.936674,-10.030000,,,
2026-09-11T17:41:47.687,5.046330,1.704586,3.582213,15.783208,0.000000,25.758018,-8.861703,1.684239,-0.144838,-0.304921,-0.148910,3.521123,-0.017507,0.051031,-0.051772,-0.303438,-0.262034,4.331695,10.816245,-1.851565,0.235273,1,0,,38.991451,-76.936674,-10.030000,,,
2026-09-11T17:41:47.720,5.079752,1.685025,3.638221,15.602079,0.000000,26.593666,-9.149197,1.663587,-0.149101,-0.313896,-0.159251,3.575649,-0.030944,-0.021662,0.047730,-0.312412,0.862691,-0.635373,9.010546,-1.770514,0.199091,1,0,,38.991451,-76.936674,-10.030000,,,
2026-09-11T17:41:47.754,5.113166,1.665247,3.693694,15.418949,0.000000,27.656593,-9.514883,1.642337,-0.138253,-0.291060,-0.169358,3.629354,-0.044713,-0.011693,0.012561,-0.289576,2.576305,-3.238744,12.275670,-1.576555,-0.008115,1,0,,38.991451,-76.936674,-10.030000,,,
2026-09-11T17:41:47.787,5.146584,1.645961,3.748756,15.240383,0.000000,28.034934,-9.645046,1.622695,-0.127626,-0.268687,-0.178711,3.682316,-0.058533,-0.101008,-0.013317,-0.267204,2.361736,0.558685,7.236033,-1.397349,0.030147,1,0,,38.991451,-76.936674,-10.030000,,,
2026-09-11T17:41:47.820,5.180002,1.627054,3.803203,15.065317,0.000000,27.833061,-9.575594,1.604384,-0.141281,-0.297434,-0.188170,3.734511,-0.072785,-0.164788,-0.077647,-0.295950,0.832487,0.494844,7.629966,-1.323287,0.066520,1,0,,38.991451,-76.936674,-10.030000,,,
2026-09-11T17:41:47.854,5.213416,1.607870,3.856898,14.887689,0.000000,27.167015,-9.346450,1.586525,-0.140890,-0.296610,-0.198095,3.785925,-0.087642,-0.038250,0.010925,-0.295127,-1.835805,-1.847671,12.944778,-1.430030,-0.049614,1,0,,38.991451,-76.936674,-10.030000,,,
2026-09-11T17:41:47.887,5.246833,1.559404,3.908736,14.438924,0.000000,27.491798,-9.458187,1.538205,-0.134119,-0.282356,-0.207768,3.836139,-0.102662,-0.113189,-0.035157,-0.280872,1.760196,1.687823,11.450441,-1.309059,0.062114,1,0,,38.991451,-76.936674,-10.030000,,,
2026-09-11T17:41:47.920,5.280249,1.540253,3.960130,14.261605,0.000000,27.263832,-9.379759,1.519660,-0.141709,-0.298335,-0.217470,3.885105,-0.117946,-0.080813,0.007442,-0.296851,-2.049394,-6.884661,5.731595,-1.439048,-0.381182,1,0,,38.991451,-76.936674,-10.030000,,,
2026-09-11T17:41:47.954,5.313663,1.550137,4.011728,14.353116,0.000000,27.276878,-9.384247,1.529391,-0.137881,-0.290277,-0.227304,3.933760,-0.133738,0.023220,-0.043848,-0.288793,0.645180,2.522663,2.176586,-1.395226,-0.211153,1,0,,38.991451,-76.936674,-10.030000,,,
2026-09-11T17:41:47.987,5.347079,1.540913,4.063077,14.267713,0.000000,26.854591,-9.238965,1.520923,-0.137333,-0.289123,-0.236985,3.982300,-0.149937,-0.004141,-0.078495,-0.287640,-1.531308,-6.699707,4.680910,-1.495777,-0.640265,1,0,,38.991451,-76.936674,-10.030000,,,
2026-09-11T17:41:48.020,5.380493,1.522097,4.114242,14.093492,0.000000,26.145286,-8.994938,1.503379,-0.127024,-0.267420,-0.246283,4.030303,-0.166315,0.076177,-0.133249,-0.265936,-2.605235,-3.053104,11.009240,-1.669228,-0.830972,1,0,,38.991451,-76.936674,-10.030000,,,
2026-09-11T17:41:48.054,5.413910,1.541909,4.166206,14.276934,0.000000,25.981178,-8.938479,1.523184,-0.140127,-0.295003,-0.255681,4.078178,-0.183199,0.089951,-0.016336,-0.293520,-0.934574,3.530296,6.212121,-1.735686,-0.590416,1,0,,38.991451,-76.936674,-10.030000,,,
2026-09-11T17:41:48.087,5.447327,1.562059,4.218557,14.463507,0.000000,26.201591,-9.014309,1.542766,-0.135287,-0.284815,-0.265368,4.126491,-0.200843,0.012848,-0.074152,-0.283332,3.842540,-0.208784,6.929869,-1.493949,-0.595177,1,1,5.447965,38.991461,-76.936661,-10.079000,2.362864,3.202785,2.782155
2026-09-11T17:41:48.121,5.480743,1.591306,4.271739,14.734317,0.000000,26.485862,-9.112109,1.571225,-0.149583,-0.314912,-0.275388,4.175354,-0.219327,0.027767,-0.020502,-0.313428,-0.328131,0.275567,13.354402,-1.528423,-0.564950,1,0,,38.991461,-76.936661,-10.079000,,,
2026-09-11T17:41:48.154,5.514157,1.591207,4.324899,14.733403,0.000000,26.793479,-9.217940,1.570659,-0.139511,-0.293708,-0.285557,4.224459,-0.238499,0.097740,-0.067664,-0.292224,4.505567,4.503802,12.965470,-1.253009,-0.263529,1,0,,38.991461,-76.936661,-10.079000,,,
2026-09-11T17:41:48.188,5.547574,1.620569,4.379061,15.005273,0.000000,27.112083,-9.327551,1.599142,-0.139599,-0.293892,-0.295375,4.273866,-0.258138,0.068734,0.030805,-0.292408,-0.128467,0.938300,13.126594,-1.278977,-0.195668,1,0,,38.991461,-76.936661,-10.079000,,,
2026-09-11T17:41:48.221,5.580988,1.611162,4.433360,14.918164,0.000000,27.611961,-9.499528,1.589068,-0.148442,-0.312509,-0.305506,4.323320,-0.278496,-0.007359,-0.011643,-0.311026,-0.924865,-0.882500,9.129403,-1.357422,-0.244713,1,0,,38.991461,-76.936661,-10.079000,,,
2026-09-11T17:41:48.255,5.614405,1.630811,4.487795,15.100101,0.000000,29.775581,-10.243892,1.604815,-0.165817,-0.349088,-0.316560,4.372514,-0.299827,-0.000458,0.030130,-0.347604,0.465718,-0.507788,11.509575,-1.347395,-0.264840,1,0,,38.991461,-76.936661,-10.079000,,,
2026-09-11T17:41:48.288,5.647819,1.650597,4.543154,15.283305,0.000000,32.858620,-11.304571,1.618574,-0.186266,-0.392139,-0.328944,4.421718,-0.322487,-0.024357,0.041342,-0.390655,1.515520,0.390697,8.874822,-1.266217,-0.221756,1,0,,38.991461,-76.936661,-10.079000,,,
2026-09-11T17:41:48.321,5.681244,1.650856,4.598387,15.285706,0.000000,35.508386,-12.216188,1.613475,-0.195760,-0.412126,-0.342385,4.470614,-0.346307,-0.043598,-0.033275,-0.410642,0.396973,3.865585,14.790586,-1.255546,0.047873,1,0,,38.991461,-76.936661,-10.079000,,,
2026-09-11T17:41:48.355,5.714663,1.651207,4.654213,15.288952,0.000000,38.392983,-13.208595,1.607524,-0.210856,-0.443907,-0.356689,4.518851,-0.371120,0.027302,-0.011341,-0.442424,1.568868,-1.409412,10.574903,-1.165779,-0.023954,1,0,,38.991461,-76.936661,-10.079000,,,
2026-09-11T17:41:48.388,5.748081,1.651581,4.708876,15.292415,0.000000,39.874078,-13.718146,1.604468,-0.204855,-0.431274,-0.371312,4.566530,-0.396717,-0.042983,0.044210,-0.429791,-1.350572,-2.488339,8.162761,-1.263252,-0.166239,1,0,,38.991461,-76.936661,-10.079000,,,
2026-09-11T17:41:48.421,5.781491,1.642460,4.763528,15.207963,0.000000,41.927834,-14.424714,1.590683,-0.220173,-0.463523,-0.386260,4.613495,-0.423049,0.022024,-0.068668,-0.462039,-0.744913,4.597161,8.445683,-1.319797,0.154723,1,0,,38.991461,-76.936661,-10.079000,,,
2026-09-11T17:41:48.455,5.814911,1.623672,4.818032,15.033996,0.000000,41.877709,-14.407469,1.572608,-0.194109,-0.408650,-0.400834,4.659660,-0.449710,-0.062045,0.031906,-0.407167,3.207657,1.342628,8.494030,-1.119988,0.255346,1,0,,38.991461,-76.936661,-10.079000,,,
2026-09-11T17:41:48.489,5.848329,1.663366,4.873960,15.401535,0.000000,41.816598,-14.386444,1.611206,-0.213103,-0.448639,-0.415159,4.705787,-0.477067,-0.131671,-0.045770,-0.447155,-1.469625,5.259503,9.879808,-1.224879,0.613792,1,0,,38.991461,-76.936661,-10.079000,,,
2026-09-11T17:41:48.522,5.881745,1.634765,4.928259,15.136716,0.000000,41.930581,-14.425659,1.583224,-0.191617,-0.403404,-0.429395,4.751703,-0.505106,-0.053186,0.023941,-0.401920,-3.316217,3.980519,6.779337,-1.444641,0.880017,1,0,,38.991461,-76.936661,-10.079000,,,
2026-09-11T17:41:48.557,5.915164,1.605952,4.982319,14.869924,0.000000,39.179192,-13.479080,1.561716,-0.179362,-0.377604,-0.442445,4.796723,-0.532912,-0.108219,-0.022884,-0.376121,3.157349,7.008911,13.015582,-1.243592,1.336543,1,0,,38.991461,-76.936661,-10.079000,,,
2026-09-11T17:41:48.589,5.948579,1.615849,5.035832,14.961564,0.000000,35.202142,-12.110829,1.579886,-0.181973,-0.383100,-0.455154,4.841391,-0.561126,-0.089747,0.105457,-0.381617,-4.591277,-5.624800,11.440830,-1.547896,0.970131,1,0,,38.991461,-76.936661,-10.079000,,,
2026-09-11T17:41:48.622,5.981997,1.586859,5.088752,14.693138,0.000000,32.181588,-11.071647,1.557324,-0.129968,-0.273617,-0.466127,4.886034,-0.589096,-0.158336,-0.013303,-0.272134,1.180426,0.877009,10.588829,-1.475644,1.017575,1,0,,38.991461,-76.936661,-10.079000,,,
2026-09-11T17:41:48.656,6.015411,1.587375,5.142026,14.697920,0.000000,27.059899,-9.309598,1.566467,-0.133920,-0.281936,-0.475409,4.930546,-0.616697,-0.008403,-0.060649,-0.280452,-0.414527,9.396634,7.536215,-1.510504,1.617804,1,0,,38.991461,-76.936661,-10.079000,,,
2026-09-11T17:41:48.689,6.048851,1.588011,5.194980,14.703801,0.000000,21.128655,-7.269033,1.575248,-0.084821,-0.178570,-0.483108,4.975472,-0.644166,-0.102602,-0.101320,-0.177086,0.210157,4.892145,4.032298,-1.508603,1.909354,1,0,,38.991461,-76.936661,-10.079000,,,
2026-09-11T17:41:48.723,6.082270,1.598020,5.248379,14.796483,0.000000,20.989953,-7.221314,1.585345,-0.078696,-0.165676,-0.488861,5.020893,-0.671250,-0.156444,-0.002356,-0.164192,1.029894,5.323932,8.294072,-1.453662,2.224422,1,0,,38.991461,-76.936661,-10.079000,,,
2026-09-11T17:41:48.756,6.115688,1.588582,5.301174,14.709095,0.000000,19.150430,-6.588451,1.578091,-0.082112,-0.172866,-0.494517,5.066221,-0.698574,-0.171443,-0.084181,-0.171383,1.552687,-1.042741,6.610663,-1.366714,2.123480,1,0,,38.991461,-76.936661,-10.079000,,,
2026-09-11T17:41:48.789,6.149104,1.569499,5.353388,14.532397,0.000000,16.627694,-5.720537,1.561683,-0.061724,-0.129946,-0.499577,5.111188,-0.725700,-0.059262,0.009022,-0.128463,1.910826,4.532830,9.508430,-1.264492,2.381004,1,0,,38.991461,-76.936661,-10.079000,,,
2026-09-11T17:41:48.823,6.182590,1.599016,5.406969,14.805700,0.000000,12.673303,-4.360081,1.594388,-0.060988,-0.128395,-0.503902,5.156528,-0.752917,-0.013444,0.044665,-0.126911,-0.040305,6.188879,16.832919,-1.292447,2.744198,1,0,,38.991461,-76.936661,-10.079000,,,
2026-09-11T17:41:48.856,6.216021,1.580095,5.460026,14.630508,0.000000,8.274651,-2.846784,1.578145,-0.034949,-0.073577,-0.507278,5.202148,-0.780004,0.014960,0.131318,-0.072093,-1.284377,-0.808264,9.986896,-1.403425,2.642433,1,0,,38.991461,-76.936661,-10.079000,,,
2026-09-11T17:41:48.890,6.249437,1.590378,5.513254,14.725718,0.000000,6.722143,-2.312664,1.589082,-0.027957,-0.058856,-0.509491,5.247861,-0.806680,0.064730,-0.007020,-0.057372,-0.307733,5.701586,4.659139,-1.453960,2.963225,1,0,,38.991461,-76.936661,-10.079000,,,
2026-09-11T17:41:48.923,6.282859,1.610533,5.566790,14.912346,0.000000,5.668829,-1.950285,1.609600,0.007475,0.015738,-0.510211,5.294350,-0.833067,-0.006168,0.003102,0.017221,-2.890804,-7.914359,8.701735,-1.672462,2.388268,1,0,,38.991461,-76.936661,-10.079000,,,
2026-09-11T17:41:48.956,6.316294,1.620583,5.621715,15.005398,0.000000,5.028875,-1.730118,1.619844,-0.012979,-0.027323,-0.510405,5.341414,-0.859518,-0.019399,0.233807,-0.025840,-0.855924,1.062551,3.356718,-1.756323,2.407333,1,0,,38.991461,-76.936661,-10.079000,,,
2026-09-11T17:41:48.990,6.349712,1.630689,5.676162,15.098977,0.000000,5.535620,-1.904456,1.629789,-0.025000,-0.052632,-0.511741,5.388464,-0.886629,-0.159669,-0.126697,-0.051148,0.602324,-2.370562,-0.703431,-1.743485,2.206009,1,0,,38.991461,-76.936661,-10.079000,,,
2026-09-11T17:41:49.024,6.383129,1.650135,5.731680,15.279028,0.000000,5.518454,-1.898551,1.649229,-0.018788,-0.039554,-0.513281,5.435853,-0.914133,0.007841,-0.033585,-0.038070,0.861612,1.824821,7.765102,-1.711853,2.277917,1,0,,38.991461,-76.936661,-10.079000,,,
2026-09-11T17:41:49.057,6.416542,1.688945,5.788235,15.638376,0.000000,5.510214,-1.895716,1.688020,-0.022998,-0.048417,-0.514751,5.484058,-0.942154,0.005856,-0.045891,-0.046933,1.753919,4.835855,10.206075,-1.619356,2.545567,1,0,,38.991461,-76.936661,-10.079000,,,
2026-09-11T17:41:49.090,6.449966,1.689283,5.844972,15.641509,0.000000,5.414770,-1.862880,1.688390,-0.029986,-0.063129,-0.516615,5.532710,-0.970750,0.210073,0.152299,-0.061646,1.883073,5.150060,12.514855,-1.516609,2.832481,1,1,6.443354,38.991467,-76.936645,-10.110000,3.732126,3.949458,2.781683
2026-09-11T17:41:49.123,6.483383,1.728503,5.903088,16.004654,0.000000,5.806158,-1.997531,1.727452,-0.022102,-0.046530,-0.518448,5.581879,-0.999744,0.057379,0.278350,-0.045047,-1.618490,-6.325485,9.950318,-1.638226,2.369181,1,0,,38.991467,-76.936645,-10.110000,,,
2026-09-11T17:41:49.157,6.516799,1.738364,5.961864,16.095959,0.000000,5.555532,-1.911307,1.737396,-0.039157,-0.082436,-0.520602,5.631623,-1.029373,0.171483,0.243623,-0.080952,-4.273052,-5.876635,10.118207,-1.925103,1.944530,1,0,,38.991467,-76.936645,-10.110000,,,
2026-09-11T17:41:49.190,6.550227,1.767704,6.020481,16.367630,0.000000,5.846670,-2.011469,1.766615,-0.042168,-0.088775,-0.523464,5.681710,-1.059755,-0.016345,-0.116558,-0.087292,1.669386,1.259566,3.587371,-1.816054,1.988590,1,0,,38.991467,-76.936645,-10.110000,,,
2026-09-11T17:41:49.224,6.583645,1.748627,6.078961,16.190990,0.000000,6.111029,-2.102418,1.747450,-0.029834,-0.062808,-0.525997,5.731925,-1.090212,0.005725,-0.052053,-0.061324,-2.953861,2.578855,9.418895,-2.001073,2.114711,1,0,,38.991467,-76.936645,-10.110000,,,
2026-09-11T17:41:49.258,6.617055,1.749246,6.137828,16.196724,0.000000,6.285437,-2.162421,1.748001,-0.017761,-0.037391,-0.527671,5.781999,-1.120258,0.070927,-0.062762,-0.035907,0.066881,0.667048,16.994827,-1.983624,2.112493,1,0,,38.991467,-76.936645,-10.110000,,,
2026-09-11T17:41:49.290,6.650474,1.691563,6.193859,15.662621,0.000000,6.525763,-2.245102,1.690265,-0.040865,-0.086032,-0.529733,5.831113,-1.150083,0.041202,-0.000306,-0.084548,-1.073730,-5.499471,12.152205,-2.034566,1.715393,1,0,,38.991467,-76.936645,-10.110000,,,
2026-09-11T17:41:49.324,6.683897,1.711482,6.251405,15.847051,0.000000,6.528509,-2.246047,1.710167,-0.040436,-0.085128,-0.532593,5.879421,-1.180039,0.053053,0.099968,-0.083645,-3.299153,5.439651,14.253770,-2.226455,2.032480,1,0,,38.991467,-76.936645,-10.110000,,,
2026-09-11T17:41:49.358,6.717311,1.663500,6.307561,15.402775,0.000000,6.859472,-2.359910,1.662089,-0.026398,-0.055574,-0.534944,5.927356,-1.209665,0.041346,0.027832,-0.054091,1.536408,6.426396,10.243831,-2.101449,2.406701,1,0,,38.991467,-76.936645,-10.110000,,,
2026-09-11T17:41:49.391,6.750726,1.654381,6.362338,15.318341,0.000000,6.965216,-2.396290,1.652934,-0.035852,-0.075477,-0.537133,5.974442,-1.238846,0.065190,0.022520,-0.073994,-1.045683,-0.209078,7.994577,-2.144192,2.348229,1,0,,38.991467,-76.936645,-10.110000,,,
2026-09-11T17:41:49.425,6.784145,1.615530,6.416091,14.958613,0.000000,7.017401,-2.414243,1.614096,-0.024295,-0.051148,-0.539249,6.020801,-1.267691,-0.047228,-0.034501,-0.049665,1.207003,1.149143,8.479124,-2.039928,2.375836,1,0,,38.991467,-76.936645,-10.110000,,,
2026-09-11T17:41:49.458,6.817557,1.557234,6.468054,14.418830,0.000000,7.184256,-2.471648,1.555785,-0.035416,-0.074561,-0.541349,6.065701,-1.295785,-0.099954,0.042062,-0.073077,-3.162939,-1.921711,10.571667,-2.221416,2.205998,1,0,,38.991467,-76.936645,-10.110000,,,
2026-09-11T17:41:49.491,6.850971,1.538146,6.518992,14.242095,0.000000,7.178762,-2.469758,1.536718,-0.019781,-0.041644,-0.543291,6.109478,-1.323241,-0.008910,-0.105396,-0.040160,3.924621,3.412028,7.269964,-1.948776,2.380846,1,0,,38.991467,-76.936645,-10.110000,,,
2026-09-11T17:41:49.525,6.884401,1.509507,6.569748,13.976912,0.000000,7.424582,-2.554329,1.508007,-0.024345,-0.051252,-0.544844,6.152641,-1.350215,0.136989,-0.105727,-0.049769,-1.698316,5.228317,5.694820,-2.047645,2.672743,1,0,,38.991467,-76.936645,-10.110000,,,
2026-09-11T17:41:49.558,6.917819,1.509883,6.620093,13.980395,0.000000,7.893560,-2.715674,1.508187,-0.042497,-0.089467,-0.547195,6.195131,-1.377340,0.054623,-0.016440,-0.087983,3.716426,-1.075397,7.594564,-1.798772,2.555694,1,0,,38.991467,-76.936645,-10.110000,,,
2026-09-11T17:41:49.591,6.951242,1.510245,6.670256,13.983748,0.000000,8.042563,-2.766937,1.508484,-0.070543,-0.148511,-0.551172,6.237143,-1.405266,0.006792,0.008382,-0.147028,-2.024583,1.640162,13.079620,-1.929456,2.622095,1,0,,38.991467,-76.936645,-10.110000,,,
2026-09-11T17:41:49.625,6.984653,1.520504,6.720875,14.078737,0.000000,9.130896,-3.141363,1.518219,-0.052899,-0.111366,-0.555513,6.279076,-1.433593,0.066624,-0.017819,-0.109883,3.644151,5.623525,11.493982,-1.697260,2.942897,1,0,,38.991467,-76.936645,-10.110000,,,
2026-09-11T17:41:49.658,7.018066,1.550146,6.772679,14.353207,0.000000,10.596884,-3.645717,1.547009,-0.055228,-0.116270,-0.559316,6.321578,-1.462216,0.130477,0.031762,-0.114786,2.282596,0.951147,11.452402,-1.562619,2.957394,1,0,,38.991467,-76.936645,-10.110000,,,
2026-09-11T17:41:49.691,7.051484,1.550386,6.824608,14.355427,0.000000,13.637351,-4.691749,1.545191,-0.074995,-0.157884,-0.563897,6.364150,-1.491573,0.235906,0.160186,-0.156400,0.172793,1.838355,8.114415,-1.575573,3.033552,1,0,,38.991467,-76.936645,-10.110000,,,
2026-09-11T17:41:49.725,7.084893,1.599795,6.878110,14.812918,0.000000,21.485023,-7.391636,1.586501,-0.112972,-0.237836,-0.570507,6.406582,-1.522329,0.171616,0.127650,-0.236353,-1.773533,-1.412158,4.233825,-1.718590,2.906341,1,0,,38.991467,-76.936645,-10.110000,,,
2026-09-11T17:41:49.758,7.118306,1.639345,6.932557,15.179118,0.000000,21.831092,-7.510697,1.625280,-0.123287,-0.259551,-0.578817,6.449472,-1.554809,0.059638,-0.027410,-0.258067,-5.055720,-5.561547,7.090698,-2.074732,2.513996,1,0,,38.991467,-76.936645,-10.110000,,,
2026-09-11T17:41:49.792,7.151726,1.620390,6.987061,15.003612,0.000000,25.186042,-8.664923,1.601895,-0.147029,-0.309534,-0.588326,6.491984,-1.588289,0.003423,0.005522,-0.308051,-4.035927,-2.996324,-1.525915,-2.363749,2.297443,1,0,,38.991467,-76.936645,-10.110000,,,
2026-09-11T17:41:49.825,7.185134,1.669728,7.042943,15.460445,0.000000,28.612403,-9.843717,1.645146,-0.142181,-0.299329,-0.598497,6.534246,-1.622627,0.072281,-0.033666,-0.297846,0.525342,-3.538239,6.505536,-2.356065,2.048060,1,0,,38.991467,-76.936645,-10.110000,,,
2026-09-11T17:41:49.858,7.218546,1.689253,7.099863,15.641229,0.000000,32.877160,-11.310950,1.656443,-0.211226,-0.444687,-0.610926,6.576257,-1.658837,0.037437,-0.097249,-0.443203,1.468252,4.982465,8.994561,-2.289143,2.370176,1,0,,38.991467,-76.936645,-10.110000,,,
2026-09-11T17:41:49.892,7.251965,1.708704,7.157238,15.821335,0.000000,35.469933,-12.202959,1.670096,-0.211090,-0.444399,-0.625783,6.617457,-1.696810,-0.012560,-0.128725,-0.442916,-3.896967,1.669974,8.762046,-2.569370,2.474190,1,0,,38.991467,-76.936645,-10.110000,,,
2026-09-11T17:41:49.926,7.285376,1.757217,7.216550,16.270525,0.000000,36.253396,-12.472499,1.715746,-0.207644,-0.437145,-0.640509,6.658913,-1.735920,0.054895,-0.112906,-0.435661,0.408741,-4.817909,12.763846,-2.566798,2.156442,1,0,,38.991467,-76.936645,-10.110000,,,
2026-09-11T17:41:49.959,7.318790,1.767400,7.274688,16.364818,0.000000,37.885552,-13.034020,1.721866,-0.202205,-0.425695,-0.654925,6.700580,-1.776033,0.003719,-0.027600,-0.424211,0.410604,-1.366949,7.793345,-2.561660,2.065099,1,0,,38.991467,-76.936645,-10.110000,,,
2026-09-11T17:41:49.992,7.352212,1.758210,7.333590,16.279724,0.000000,41.014596,-14.110526,1.705160,-0.227198,-0.478311,-0.670032,6.741320,-1.816912,-0.032841,-0.026204,-0.476828,0.756583,4.458005,12.693728,-2.530970,2.358219,1,0,,38.991467,-76.936645,-10.110000,,,
2026-09-11T17:41:50.026,7.385623,1.777982,7.393596,16.462799,0.000000,45.852700,-15.775011,1.711018,-0.239084,-0.503334,-0.686430,6.780868,-1.858781,-0.123680,-0.056599,-0.501850,1.797853,-3.893730,10.485074,-2.433143,2.108983,1,0,,38.991467,-76.936645,-10.110000,,,
2026-09-11T17:41:50.059,7.419041,1.788065,7.453136,16.556158,0.000000,46.513253,-16.002266,1.718779,-0.264548,-0.556943,-0.704146,6.819476,-1.901951,-0.110052,-0.014519,-0.555460,2.560516,-4.222253,11.941950,-2.283224,1.847460,1,0,,38.991467,-76.936645,-10.110000,,,
2026-09-11T17:41:50.093,7.452460,1.807687,7.513553,16.737841,0.000000,46.829110,-16.110932,1.736692,-0.260574,-0.548578,-0.722619,6.857392,-1.946371,-0.158747,-0.129890,-0.547094,-1.056078,2.942583,6.783260,-2.363788,2.053429,1,1,7.446997,38.991472,-76.936627,-10.132000,5.255802,4.482267,2.966737
2026-09-11T17:41:50.126,7.485955,1.827730,7.574300,16.923427,0.000000,47.210885,-16.242277,1.754781,-0.270637,-0.569763,-0.741349,6.894936,-1.992068,-0.108343,-0.041977,-0.568279,-0.379419,3.550302,12.180938,-2.399994,2.300233,1,0,,38.991472,-76.936627,-10.132000,,,
2026-09-11T17:41:50.159,7.519371,1.837926,7.635697,17.017831,0.000000,47.368813,-16.296610,1.764081,-0.254691,-0.536191,-0.759827,6.931943,-2.038588,-0.133386,-0.132406,-0.534708,1.904059,1.257213,7.698907,-2.284737,2.391425,1,0,,38.991472,-76.936627,-10.132000,,,
2026-09-11T17:41:50.193,7.552794,1.838488,7.697048,17.023036,0.000000,47.376366,-16.299209,1.764598,-0.243257,-0.512120,-0.777345,6.968551,-2.085561,-0.228172,-0.011404,-0.510637,1.918475,0.052171,6.826017,-2.166526,2.400648,1,0,,38.991472,-76.936627,-10.132000,,,
2026-09-11T17:41:50.226,7.586212,1.838664,7.758456,17.024670,0.000000,47.202645,-16.239442,1.765304,-0.272746,-0.574201,-0.795497,7.004107,-2.133395,-0.142391,-0.000964,-0.572718,0.001863,9.161569,7.381171,-2.175396,3.008599,1,0,,38.991472,-76.936627,-10.132000,,,
2026-09-11T17:41:50.259,7.619628,1.868128,7.820935,17.297480,0.000000,46.818810,-16.107389,1.794791,-0.231580,-0.487536,-0.813236,7.039291,-2.182095,-0.297152,-0.102061,-0.486053,-1.340667,-5.032479,12.952820,-2.273402,2.678810,1,0,,38.991472,-76.936627,-10.132000,,,
2026-09-11T17:41:50.293,7.653052,1.848503,7.882583,17.115764,0.000000,45.937157,-15.804068,1.778627,-0.225218,-0.474144,-0.829308,7.074390,-2.231008,-0.099643,-0.194462,-0.472660,-0.765213,-2.439895,12.101897,-2.332695,2.519060,1,0,,38.991472,-76.936627,-10.132000,,,
2026-09-11T17:41:50.326,7.686464,1.819588,7.943535,16.848036,0.000000,44.302255,-15.241601,1.755585,-0.255111,-0.537076,-0.846201,7.107933,-2.280248,-0.241181,0.088673,-0.535592,0.495432,6.317346,16.168028,-2.305453,2.936300,1,0,,38.991472,-76.936627,-10.132000,,,
2026-09-11T17:41:50.360,7.719876,1.810387,8.003759,16.762847,0.000000,41.936074,-14.427548,1.753294,-0.154121,-0.324465,-0.860594,7.141326,-2.328921,-0.037702,0.100230,-0.322982,0.221140,-13.415792,15.812439,-2.289316,2.043400,1,0,,38.991472,-76.936627,-10.132000,,,
2026-09-11T17:41:50.393,7.753292,1.820617,8.064517,16.857561,0.000000,33.388711,-11.486942,1.784150,-0.213240,-0.448926,-0.873516,7.174885,-2.377952,0.038579,0.079020,-0.447442,3.655331,5.790337,14.124420,-2.043971,2.422246,1,0,,38.991472,-76.936627,-10.132000,,,
2026-09-11T17:41:50.427,7.786706,1.791937,8.124718,16.592009,0.000000,30.461541,-10.479888,1.762045,-0.148307,-0.312225,-0.886233,7.207989,-2.427461,0.180739,0.063762,-0.310742,-0.023536,2.728602,6.720203,-2.033211,2.581938,1,0,,38.991472,-76.936627,-10.132000,,,
2026-09-11T17:41:50.460,7.820117,1.801992,8.184611,16.685116,0.000000,22.726479,-7.818743,1.785240,-0.145963,-0.307290,-0.896582,7.241397,-2.476653,-0.115282,-0.227003,-0.305806,0.399621,1.440401,8.699774,-1.988989,2.656133,1,0,,38.991472,-76.936627,-10.132000,,,
2026-09-11T17:41:50.494,7.853539,1.792535,8.244412,16.597547,0.000000,20.799065,-7.155642,1.778574,-0.099546,-0.209571,-0.905219,7.275161,-2.525886,0.112529,-0.145727,-0.208088,-2.779303,-7.437560,13.653113,-2.145900,2.141627,1,0,,38.991472,-76.936627,-10.132000,,,
2026-09-11T17:41:50.527,7.886952,1.822437,8.305125,16.874420,0.000000,18.411599,-6.334266,1.811312,-0.058325,-0.122789,-0.910772,7.309986,-2.574788,-0.085532,-0.222720,-0.121306,2.565812,1.098835,8.172764,-1.950630,2.177321,1,0,,38.991472,-76.936627,-10.132000,,,
2026-09-11T17:41:50.560,7.920367,1.793604,8.365372,16.607445,0.000000,15.562020,-5.353906,1.785779,-0.063823,-0.134364,-0.915068,7.345117,-2.623589,-0.056711,-0.169669,-0.132880,-1.393035,-1.323309,7.936522,-2.009770,2.056583,1,0,,38.991472,-76.936627,-10.132000,,,
2026-09-11T17:41:50.594,7.953783,1.774806,8.424285,16.433385,0.000000,12.041589,-4.142748,1.770168,-0.042542,-0.089563,-0.918810,7.379845,-2.671829,-0.103926,-0.060813,-0.088080,1.058334,-2.921401,8.165605,-1.906512,1.828241,1,0,,38.991472,-76.936627,-10.132000,,,
2026-09-11T17:41:50.627,7.987193,1.716844,8.481865,15.896699,0.000000,9.174157,-3.156247,1.714239,-0.019495,-0.041042,-0.920991,7.414290,-2.718764,-0.101619,-0.015309,-0.039558,1.232402,2.289166,6.876227,-1.789050,1.934735,1,0,,38.991472,-76.936627,-10.132000,,,
2026-09-11T17:41:50.660,8.020606,1.687670,8.537941,15.626571,0.000000,7.536505,-2.592834,1.685942,-0.041432,-0.087226,-0.923134,7.447799,-2.764642,-0.100440,0.011192,-0.085742,0.633313,0.050798,19.801490,-1.711310,1.899834,1,0,,38.991472,-76.936627,-10.132000,,,
2026-09-11T17:41:50.694,8.054026,1.629514,8.591704,15.088090,0.000000,4.644354,-1.597828,1.628880,-0.013677,-0.028794,-0.925073,7.480441,-2.809404,-0.005485,0.000592,-0.027311,1.450502,4.241572,14.212680,-1.580887,2.130761,1,0,,38.991472,-76.936627,-10.132000,,,
2026-09-11T17:41:50.727,8.087438,1.590983,8.644955,14.731324,0.000000,-1.755182,0.603847,1.590895,0.015798,0.033258,-0.924998,7.512840,-2.852340,-0.154758,-0.184725,0.034742,1.329880,0.657438,4.311003,-1.460325,2.120067,1,0,,38.991472,-76.936627,-10.132000,,,
2026-09-11T17:41:50.761,8.120850,1.581599,8.697898,14.644435,0.000000,-4.688532,1.613027,1.580972,0.019920,0.041937,-0.923742,7.545234,-2.894280,-0.107243,0.065609,0.043421,-1.326448,0.597911,13.064223,-1.515877,2.104760,1,0,,38.991472,-76.936627,-10.132000,,,
2026-09-11T17:41:50.794,8.154270,1.533627,8.748962,14.200245,0.000000,-6.256830,2.152579,1.532544,0.031533,0.066386,-0.921932,7.577320,-2.935243,0.032590,0.016776,0.067870,-0.417371,11.595579,14.917386,-1.514634,2.801419,1,0,,38.991472,-76.936627,-10.132000,,,
2026-09-11T17:41:50.828,8.187680,1.485278,8.798874,13.752577,0.000000,-10.955545,3.769110,1.482066,0.078119,0.164460,-0.918076,7.609283,-2.974199,0.065145,0.030480,0.165944,-1.409902,-4.661983,6.540741,-1.582897,2.425515,1,0,,38.991472,-76.936627,-10.132000,,,
2026-09-11T17:41:50.861,8.221093,1.466315,8.847306,13.576994,0.000000,-17.339289,5.965352,1.458375,0.093387,0.196605,-0.912044,7.641506,-3.011388,0.110566,0.061614,0.198088,-0.710982,-6.232911,6.437379,-1.610449,1.949237,1,0,,38.991472,-76.936627,-10.132000,,,
2026-09-11T17:41:50.894,8.254513,1.456955,8.895863,13.490320,0.000000,-19.393045,6.671919,1.447088,0.116875,0.246053,-0.904647,7.674135,-3.047507,0.215999,0.155547,0.247537,1.663992,-1.974079,11.137413,-1.491732,1.750162,1,0,,38.991472,-76.936627,-10.132000,,,
2026-09-11T17:41:50.928,8.287929,1.476989,8.945695,13.675827,0.000000,-23.768351,8.177185,1.461973,0.109846,0.231254,-0.896672,7.707293,-3.083247,-0.016903,-0.087040,0.232737,0.584967,0.225945,12.293519,-1.453535,1.697203,1,0,,38.991472,-76.936627,-10.132000,,,
2026-09-11T17:41:50.961,8.321343,1.458149,8.994503,13.501381,0.000000,-27.597773,9.494647,1.438174,0.103794,0.218514,-0.889158,7.740459,-3.118750,0.185807,0.040546,0.219997,2.252489,4.157333,12.626650,-1.315937,1.901376,1,0,,38.991472,-76.936627,-10.132000,,,
2026-09-11T17:41:50.995,8.354767,1.507228,9.045042,13.955812,0.000000,-26.931040,9.265266,1.487564,0.112475,0.236789,-0.881549,7.774210,-3.154311,0.065509,-0.042652,0.238272,4.148998,-3.712405,13.239762,-1.062745,1.590298,1,0,,38.991472,-76.936627,-10.132000,,,
2026-09-11T17:41:51.028,8.388185,1.527035,9.096242,14.139217,0.000000,-25.130655,8.645868,1.509683,0.106342,0.223878,-0.873852,7.809021,-3.190499,0.126696,-0.133229,0.225361,4.415640,2.384585,6.751192,-0.802090,1.679121,1,0,,38.991472,-76.936627,-10.132000,,,
2026-09-11T17:41:51.062,8.421598,1.546659,9.147374,14.320918,0.000000,-19.955408,6.865393,1.535569,0.088658,0.186648,-0.866993,7.844303,-3.227299,-0.090280,-0.012618,0.188131,1.522286,-15.250224,11.626862,-0.739217,0.627276,1,0,,38.991472,-76.936627,-10.132000,,,
2026-09-11T17:41:51.095,8.455023,1.556618,9.199189,14.413125,0.000000,-14.723856,5.065547,1.550538,0.049369,0.103935,-0.862137,7.879532,-3.265043,-0.035498,0.038885,0.105418,0.255071,8.674669,6.504163,-0.765079,1.145882,1,1,8.444381,38.991474,-76.936609,-10.123000,6.857260,4.702248,2.966737
2026-09-11T17:41:51.128,8.488439,1.546897,9.251255,14.323119,0.000000,-7.377436,2.538109,1.545379,0.046899,0.098734,-0.858751,7.914482,-3.303209,0.038582,0.044796,0.100217,-0.851119,2.706047,7.607999,-0.865699,1.272434,1,0,,38.991474,-76.936609,-10.123000,,,
2026-09-11T17:41:51.162,8.521861,1.586108,9.304346,14.686187,0.000000,-3.898203,1.341125,1.585674,-0.002327,-0.004899,-0.857183,7.949264,-3.342305,-0.211022,0.038025,-0.003415,0.287727,-1.842081,7.933678,-0.896300,1.113139,1,0,,38.991474,-76.936609,-10.123000,,,
2026-09-11T17:41:51.196,8.555287,1.605791,9.357734,14.868439,0.000000,-3.724482,1.281358,1.605390,0.005606,0.011802,-0.857067,7.984217,-3.382586,0.124850,-0.049912,0.013285,2.848243,5.033263,12.501125,-0.765218,1.399668,1,0,,38.991474,-76.936609,-10.123000,,,
2026-09-11T17:41:51.229,8.588704,1.615878,9.412124,14.961834,0.000000,-3.395578,1.168204,1.615542,-0.012451,-0.026213,-0.857308,8.019357,-3.423347,0.069678,0.184969,-0.024729,0.097184,-1.489728,8.152072,-0.813296,1.264048,1,0,,38.991474,-76.936609,-10.123000,,,
2026-09-11T17:41:51.263,8.622133,1.645474,9.467004,15.235870,0.000000,-2.270853,0.781257,1.645321,-0.008954,-0.018851,-0.858061,8.054743,-3.464805,-0.002905,-0.000074,-0.017367,-0.840038,-2.797445,8.235429,-0.918821,1.044376,1,0,,38.991474,-76.936609,-10.123000,,,
2026-09-11T17:41:51.296,8.655552,1.664977,9.522818,15.416455,0.000000,-0.043375,0.014923,1.664977,-0.025606,-0.053907,-0.859277,8.090450,-3.507053,0.081566,0.082058,-0.052424,-3.884316,-1.874541,10.409269,-1.217043,0.890868,1,0,,38.991474,-76.936609,-10.123000,,,
2026-09-11T17:41:51.329,8.688977,1.665252,9.577709,15.419004,0.000000,2.776678,-0.955279,1.665021,-0.013720,-0.028885,-0.860661,8.126263,-3.549656,-0.020981,-0.049162,-0.027401,1.596817,-3.052124,9.106651,-1.155901,0.660045,1,0,,38.991474,-76.936609,-10.123000,,,
2026-09-11T17:41:51.363,8.722391,1.685110,9.634162,15.602867,0.000000,5.447729,-1.874219,1.684208,-0.031519,-0.066356,-0.862252,8.162135,-3.592608,0.034834,0.165483,-0.064873,2.132848,0.944478,11.267057,-1.063401,0.694909,1,0,,38.991474,-76.936609,-10.123000,,,
2026-09-11T17:41:51.396,8.755805,1.685598,9.691206,15.607392,0.000000,7.777517,-2.675751,1.683761,-0.048496,-0.102098,-0.865066,8.197674,-3.636253,-0.128398,0.156944,-0.100614,-1.337529,-2.972886,-2.603764,-1.198137,0.479524,1,0,,38.991474,-76.936609,-10.123000,,,
2026-09-11T17:41:51.429,8.789222,1.763936,9.750643,16.332741,0.000000,7.662848,-2.636301,1.762069,-0.055778,-0.117427,-0.868734,8.233605,-3.681272,-0.072969,-0.027982,-0.115944,2.261904,8.371937,11.722085,-1.095346,1.003796,1,0,,38.991474,-76.936609,-10.123000,,,
2026-09-11T17:41:51.463,8.822638,1.744890,9.808953,16.156390,0.000000,7.874334,-2.709060,1.742940,-0.041757,-0.087910,-0.872165,8.270102,-3.727100,0.006259,-0.151241,-0.086426,0.896426,1.558571,2.624456,-1.080785,1.077352,1,0,,38.991474,-76.936609,-10.123000,,,
2026-09-11T17:41:51.496,8.856056,1.784311,9.868902,16.521401,0.000000,8.324087,-2.863791,1.782083,-0.036186,-0.076180,-0.874907,8.306924,-3.773089,-0.047186,-0.228102,-0.074697,1.994869,-0.540052,6.091401,-0.992180,1.012947,1,0,,38.991474,-76.936609,-10.123000,,,
2026-09-11T17:41:51.529,8.889474,1.774848,9.928248,16.433778,0.000000,8.535574,-2.936551,1.772517,-0.030183,-0.063542,-0.877241,8.344094,-3.819427,0.092400,0.004740,-0.062059,-0.229378,-2.263081,8.370466,-1.040388,0.836102,1,0,,38.991474,-76.936609,-10.123000,,,
2026-09-11T17:41:51.563,8.922890,1.784389,9.987845,16.522118,0.000000,8.569906,-2.948362,1.782027,-0.070750,-0.148948,-0.880791,8.380679,-3.866238,0.150616,-0.170174,-0.147464,2.554927,2.969061,11.326387,-0.901699,1.010179,1,0,,38.991474,-76.936609,-10.123000,,,
2026-09-11T17:41:51.596,8.956305,1.794653,10.047590,16.617161,0.000000,8.322027,-2.863083,1.792413,-0.062226,-0.131002,-0.885469,8.416869,-3.913796,0.230251,0.105101,-0.129519,2.203947,0.491215,9.723980,-0.780457,1.019776,1,0,,38.991474,-76.936609,-10.123000,,,
2026-09-11T17:41:51.630,8.989722,1.833622,10.109214,16.977979,0.000000,5.812338,-1.999658,1.832505,-0.031431,-0.066170,-0.888763,8.453913,-3.961741,0.306037,-0.107208,-0.064686,0.711571,3.430366,7.586425,-0.750356,1.212417,1,0,,38.991474,-76.936609,-10.123000,,,
2026-09-11T17:41:51.663,9.023138,1.853447,10.171044,17.161545,0.000000,0.626791,-0.215639,1.853434,0.003965,0.008347,-0.889729,8.492354,-4.009856,0.044409,-0.153531,0.009831,2.282694,-0.544563,10.948242,-0.611425,1.136415,1,0,,38.991474,-76.936609,-10.123000,,,
2026-09-11T17:41:51.697,9.056563,1.844144,10.232965,17.075407,0.000000,-2.615549,0.899845,1.843917,0.004708,0.009912,-0.889424,8.531380,-4.057766,0.180518,0.129687,0.011395,1.650950,-0.415508,12.332745,-0.508543,1.069425,1,0,,38.991474,-76.936609,-10.123000,,,
2026-09-11T17:41:51.730,9.089977,1.864013,10.295660,17.259379,0.000000,-2.855188,0.982290,1.863739,-0.019752,-0.041583,-0.889953,8.570187,-4.106046,0.096428,0.137642,-0.040099,-3.464493,6.014419,12.462781,-0.734081,1.426179,1,0,,38.991474,-76.936609,-10.123000,,,
2026-09-11T17:41:51.764,9.123392,1.835652,10.356624,16.996782,0.000000,-2.380716,0.819054,1.835465,-0.003054,-0.006429,-0.890755,8.608775,-4.154327,-0.031985,-0.120065,-0.004946,0.525146,1.056274,3.033687,-0.696431,1.453350,1,0,,38.991474,-76.936609,-10.123000,,,
2026-09-11T17:41:51.797,9.156813,1.787757,10.416278,16.553310,0.000000,-1.805307,0.621092,1.787652,-0.021718,-0.045723,-0.891627,8.646505,-4.201679,-0.091586,-0.021956,-0.044240,-2.102840,-0.237517,3.785955,-0.829333,1.400860,1,0,,38.991474,-76.936609,-10.123000,,,
2026-09-11T17:41:51.830,9.190233,1.759310,10.474815,16.289905,0.000000,-1.540949,0.530143,1.759234,-0.009446,-0.019886,-0.892723,8.683304,-4.248143,-0.103110,-0.049915,-0.018403,-3.027019,4.430645,3.932859,-1.019956,1.648655,1,0,,38.991474,-76.936609,-10.123000,,,
2026-09-11T17:41:51.864,9.223655,1.701623,10.531142,15.755764,0.000000,-1.389200,0.477936,1.701563,-0.001966,-0.004140,-0.893125,8.719425,-4.293310,-0.118183,-0.059613,-0.002656,-1.970744,-0.035500,5.680992,-1.138152,1.602246,1,0,,38.991474,-76.936609,-10.123000,,,
2026-09-11T17:41:51.897,9.257073,1.673153,10.587195,15.492161,0.000000,-1.479151,0.508882,1.673087,-0.009405,-0.019800,-0.893525,8.754621,-4.337363,-0.201139,-0.020615,-0.018316,-0.565648,-1.124431,10.180676,-1.159594,1.487438,1,0,,38.991474,-76.936609,-10.123000,,,
2026-09-11T17:41:51.931,9.290493,1.663464,10.642451,15.402448,0.000000,-1.348688,0.463998,1.663410,-0.018107,-0.038121,-0.894493,8.789181,-4.381115,-0.140734,-0.066559,-0.036637,-0.596146,5.298043,13.578876,-1.183365,1.792417,1,0,,38.991474,-76.936609,-10.123000,,,
2026-09-11T17:41:51.964,9.323911,1.634142,10.696317,15.130944,0.000000,-1.135828,0.390767,1.634104,0.008920,0.018778,-0.894816,8.823540,-4.424186,-0.146620,-0.148789,0.020262,3.607965,7.969865,3.877255,-0.937995,2.261403,1,0,,38.991474,-76.936609,-10.123000,,,
2026-09-11T17:41:51.998,9.357328,1.624712,10.750400,15.043629,0.000000,-2.054560,0.706844,1.624588,0.003516,0.007401,-0.894378,8.857778,-4.466524,0.032408,-0.305711,0.008885,0.566334,-2.111372,10.373475,-0.895916,2.072216,1,0,,38.991474,-76.936609,-10.123000,,,
2026-09-11T17:41:52.031,9.390759,1.625058,10.804231,15.046836,0.000000,-2.535898,0.872442,1.624870,0.004562,0.009605,-0.894094,8.891892,-4.508792,-0.099909,-0.024639,0.011088,5.001882,-0.209078,18.016483,-0.575171,2.008336,1,0,,38.991474,-76.936609,-10.123000,,,
2026-09-11T17:41:52.065,9.424191,1.625401,10.858439,15.050011,0.000000,-2.625849,0.903388,1.625199,0.007893,0.016617,-0.893656,8.926085,-4.551010,0.002443,-0.239671,0.018100,3.552753,5.938025,10.866161,-0.359092,2.343540,1,0,,38.991474,-76.936609,-10.123000,,,
2026-09-11T17:41:52.098,9.457610,1.635619,10.913479,15.144616,0.000000,-2.708933,0.931972,1.635402,0.012096,0.025465,-0.892953,8.960497,-4.593251,0.039473,-0.101115,0.026949,2.914929,3.374861,4.434665,-0.193958,2.507650,1,1,9.448040,38.991476,-76.936589,-10.121000,8.519791,4.892206,2.966737
2026-09-11T17:41:52.131,9.491037,1.645517,10.968279,15.236273,0.000000,-2.076532,0.714403,1.645390,-0.002283,-0.004805,-0.892607,8.995019,-4.635854,0.029886,-0.070675,-0.003322,-0.324208,-0.433160,9.142348,-0.249245,2.425889,1,0,,38.991476,-76.936589,-10.121000,,,
2026-09-11T17:41:52.165,9.524455,1.626664,11.022885,15.061704,0.000000,-1.224405,0.421240,1.626620,-0.027788,-0.058501,-0.893665,9.028906,-4.678760,0.045038,0.033660,-0.057018,1.873168,1.002142,4.069662,-0.167187,2.443912,1,0,,38.991476,-76.936589,-10.121000,,,
2026-09-11T17:41:52.198,9.557873,1.665980,11.078552,15.425743,0.000000,0.174978,-0.060199,1.665979,-0.010191,-0.021454,-0.895001,9.062852,-4.722058,0.005456,0.002645,-0.019971,3.269341,-0.401877,8.154033,-0.000815,2.366725,1,0,,38.991476,-76.936589,-10.121000,,,
2026-09-11T17:41:52.232,9.591309,1.686082,11.134764,15.611875,0.000000,0.963934,-0.331629,1.686054,-0.031481,-0.066276,-0.896468,9.097330,-4.766243,0.058486,-0.140548,-0.064792,-0.715101,-0.045895,6.591050,-0.102288,2.318414,1,0,,38.991476,-76.936589,-10.121000,,,
2026-09-11T17:41:52.265,9.624728,1.715807,11.192333,15.887100,0.000000,2.357138,-0.810942,1.715635,-0.030953,-0.065163,-0.898664,9.131955,-4.811332,0.089424,-0.035814,-0.063680,2.557672,1.658893,13.493166,0.006872,2.381343,1,0,,38.991476,-76.936589,-10.121000,,,
2026-09-11T17:41:52.299,9.658150,1.735616,11.250791,16.070521,0.000000,4.949225,-1.702715,1.734850,-0.033773,-0.071102,-0.900941,9.166959,-4.857165,0.044943,0.128980,-0.069618,1.647517,-2.212969,8.577485,0.056496,2.192960,1,0,,38.991476,-76.936589,-10.121000,,,
2026-09-11T17:41:52.332,9.691569,1.755301,11.308986,16.252791,0.000000,8.936575,-3.074510,1.752775,-0.051925,-0.109315,-0.903956,9.201948,-4.903790,0.020437,-0.059904,-0.107832,3.372017,0.240361,8.988285,0.216606,2.170374,1,0,,38.991476,-76.936589,-10.121000,,,
2026-09-11T17:41:52.366,9.724997,1.765046,11.368571,16.343016,0.000000,12.154196,-4.181490,1.760347,-0.069222,-0.145730,-0.908219,9.236572,-4.951255,0.117698,0.021502,-0.144246,2.193453,0.819542,7.762944,0.299234,2.189848,1,0,,38.991476,-76.936589,-10.121000,,,
2026-09-11T17:41:52.399,9.758418,1.813932,11.428680,16.795670,0.000000,17.241553,-5.931727,1.804220,-0.110333,-0.232280,-0.914535,9.270691,-5.000170,-0.029848,0.212825,-0.230796,0.190739,0.930553,9.914033,0.251088,2.226861,1,0,,38.991476,-76.936589,-10.121000,,,
2026-09-11T17:41:52.433,9.791839,1.823972,11.489747,16.888630,0.000000,22.139396,-7.616765,1.807879,-0.115756,-0.243697,-0.922489,9.304327,-5.050431,-0.094241,0.048974,-0.242214,2.257197,-0.876224,9.333283,0.338377,2.147581,1,0,,38.991476,-76.936589,-10.121000,,,
2026-09-11T17:41:52.465,9.825254,1.863126,11.552260,17.251168,0.000000,22.966804,-7.901423,1.845438,-0.149710,-0.315179,-0.931827,9.337404,-5.101917,-0.060364,0.153736,-0.313695,0.566040,1.964566,9.223939,0.318789,2.262712,1,0,,38.991476,-76.936589,-10.121000,,,
2026-09-11T17:41:52.499,9.858688,1.911920,11.616232,17.702960,0.000000,23.643150,-8.134111,1.892685,-0.170202,-0.358321,-0.943086,9.370072,-5.155453,-0.133054,-0.037709,-0.356837,0.406682,-0.636255,12.539764,0.292830,2.214012,1,0,,38.991476,-76.936589,-10.121000,,,
2026-09-11T17:41:52.533,9.892114,1.892878,11.679565,17.526645,0.000000,23.571052,-8.109307,1.873950,-0.140301,-0.295371,-0.954011,9.402551,-5.209632,-0.033127,-0.053087,-0.293887,2.289853,-2.074401,3.852052,0.394163,2.064417,1,0,,38.991476,-76.936589,-10.121000,,,
2026-09-11T17:41:52.566,9.925527,1.902904,11.743696,17.619478,0.000000,23.434410,-8.062297,1.884096,-0.151097,-0.318099,-0.964260,9.434615,-5.263827,0.002937,0.082082,-0.316615,5.088965,2.427244,10.623642,0.682324,2.211621,1,0,,38.991476,-76.936589,-10.121000,,,
2026-09-11T17:41:52.599,9.958939,1.913260,11.807155,17.715369,0.000000,23.482475,-8.078833,1.894272,-0.134317,-0.282772,-0.974298,9.466404,-5.318568,0.082339,0.036590,-0.281288,1.656049,7.464920,7.207986,0.752221,2.680154,1,0,,38.991476,-76.936589,-10.121000,,,
2026-09-11T17:41:52.633,9.992359,1.913957,11.871206,17.721820,0.000000,23.244895,-7.997097,1.895344,-0.168063,-0.353816,-0.984935,9.497500,-5.373958,0.174522,0.227635,-0.352333,-2.177567,8.119710,12.642733,0.580621,3.195270,1,0,,38.991476,-76.936589,-10.121000,,,
2026-09-11T17:41:52.666,10.025924,1.904529,11.935007,17.634525,0.000000,22.230033,-7.647947,1.887587,-0.143390,-0.301873,-0.995939,9.527941,-5.429917,0.065447,0.023243,-0.300390,-1.121783,3.800763,14.225233,0.482963,3.418581,1,0,,38.991476,-76.936589,-10.121000,,,
2026-09-11T17:41:52.699,10.059343,1.914432,11.999275,17.726219,0.000000,20.890388,-7.187060,1.899390,-0.106661,-0.224550,-1.004735,9.558596,-5.485433,0.133371,0.046908,-0.223066,-1.420395,1.659481,11.417392,0.372929,3.489927,1,0,,38.991476,-76.936589,-10.121000,,,
2026-09-11T17:41:52.733,10.092758,1.904539,12.062734,17.634621,0.000000,19.791755,-6.809090,1.891106,-0.107480,-0.226273,-1.012268,9.589333,-5.540920,0.072083,0.109476,-0.224790,0.477780,-4.355526,7.620846,0.398526,3.169487,1,0,,38.991476,-76.936589,-10.121000,,,
2026-09-11T17:41:52.766,10.126172,1.904557,12.126295,17.634784,0.000000,19.783515,-6.806255,1.891134,-0.104603,-0.220216,-1.019727,9.619607,-5.596497,-0.065977,0.033345,-0.218733,-0.144158,-0.061586,3.389767,0.389604,3.131036,1,0,,38.991476,-76.936589,-10.121000,,,
2026-09-11T17:41:52.799,10.159587,1.875749,12.188751,17.368045,0.000000,19.999809,-6.880668,1.862239,-0.108866,-0.229191,-1.027236,9.649197,-5.651901,-0.082238,-0.031080,-0.227708,-1.524444,0.888090,4.915289,0.293825,3.155405,1,0,,38.991476,-76.936589,-10.121000,,,
2026-09-11T17:41:52.833,10.192997,1.837600,12.250057,17.014815,0.000000,19.951744,-6.864132,1.824429,-0.089154,-0.187693,-1.034200,9.678030,-5.706423,-0.102534,-0.037128,-0.186210,0.599579,-0.681072,9.879906,0.342194,3.072051,1,0,,38.991476,-76.936589,-10.121000,,,
2026-09-11T17:41:52.866,10.226409,1.789182,12.310144,16.566503,0.000000,20.432395,-7.029494,1.775734,-0.085823,-0.180681,-1.040354,9.706103,-5.759693,-0.167427,-0.089713,-0.179197,-2.255431,-0.612916,9.159804,0.207569,2.992654,1,0,,38.991476,-76.936589,-10.121000,,,
2026-09-11T17:41:52.900,10.259822,1.770113,12.369592,16.389935,0.000000,19.726524,-6.786648,1.757710,-0.083908,-0.176648,-1.046324,9.733366,-5.812129,-0.124497,0.044980,-0.175165,2.501676,-0.612916,7.379014,0.381873,2.913470,1,0,,38.991476,-76.936589,-10.121000,,,
2026-09-11T17:41:52.933,10.293241,1.770806,12.428084,16.396350,0.000000,17.836875,-6.136540,1.760659,-0.055171,-0.116149,-1.051216,9.760667,-5.864248,-0.127211,0.040175,-0.114666,-4.346405,-5.450046,5.398365,0.113493,2.514097,1,0,,38.991476,-76.936589,-10.121000,,,
2026-09-11T17:41:52.966,10.326651,1.722956,12.485550,15.953295,0.000000,16.253471,-5.591790,1.714757,-0.042402,-0.089267,-1.054647,9.787991,-5.915498,-0.163479,-0.025701,-0.087783,-4.363665,-5.021986,8.575523,-0.150269,2.143925,1,0,,38.991476,-76.936589,-10.121000,,,
2026-09-11T17:41:53.000,10.360059,1.674813,12.541831,15.507532,0.000000,15.185050,-5.224215,1.667856,-0.063833,-0.134385,-1.058383,9.814242,-5.965564,-0.068039,0.026651,-0.132902,-1.790204,9.862744,15.962186,-0.245755,2.748572,1,0,,38.991476,-76.936589,-10.121000,,,
2026-09-11T17:41:53.033,10.393470,1.656405,12.597133,15.337082,0.000000,14.903526,-5.127360,1.649777,-0.036425,-0.076684,-1.061909,9.839869,-6.014736,-0.113291,-0.023672,-0.075201,-2.591702,-1.691059,5.479662,-0.397115,2.590172,1,0,,38.991476,-76.936589,-10.121000,,,
2026-09-11T17:41:53.067,10.426883,1.627522,12.651124,15.069647,0.000000,14.063758,-4.838449,1.621722,-0.051508,-0.108438,-1.065002,9.865140,-6.063220,-0.062929,-0.059117,-0.106954,1.953092,5.618720,12.129159,-0.258235,2.911462,1,0,,38.991476,-76.936589,-10.121000,,,
2026-09-11T17:41:53.101,10.460303,1.589045,12.704466,14.713381,0.000000,12.987098,-4.468038,1.584216,-0.051112,-0.107604,-1.068612,9.889510,-6.110957,-0.057789,-0.004028,-0.106120,0.313715,5.356392,4.440745,-0.233864,3.212013,1,1,10.443820,38.991476,-76.936569,-10.100000,10.250167,4.864593,2.825945
2026-09-11T17:41:53.134,10.493723,1.598766,12.757785,14.803389,0.000000,9.974098,-3.431456,1.595900,-0.042952,-0.090424,-1.071921,9.913632,-6.158333,-0.075342,-0.004104,-0.088941,-0.806205,1.540134,14.321240,-0.289154,3.259518,1,0,,38.991476,-76.936569,-10.100000,,,
2026-09-11T17:41:53.167,10.527136,1.589042,12.810705,14.713348,0.000000,9.597816,-3.302001,1.586403,-0.043094,-0.090723,-1.074948,9.937735,-6.205743,0.042325,-0.007088,-0.089240,-2.507560,6.841119,8.484321,-0.455590,3.651173,1,0,,38.991476,-76.936569,-10.100000,,,
2026-09-11T17:41:53.200,10.560546,1.560321,12.863614,14.447413,0.000000,8.536949,-2.937024,1.558271,-0.033089,-0.069660,-1.077627,9.961546,-6.252584,0.096415,-0.037013,-0.068177,-0.711865,9.247083,3.907754,-0.509323,4.193049,1,0,,38.991476,-76.936569,-10.100000,,,
2026-09-11T17:41:53.234,10.593968,1.551061,12.915635,14.361676,0.000000,8.347434,-2.871824,1.549113,-0.032677,-0.068794,-1.079940,9.985109,-6.298872,0.116771,0.131713,-0.067310,-0.458755,1.383130,2.368600,-0.555335,4.217079,1,0,,38.991476,-76.936569,-10.100000,,,
2026-09-11T17:41:53.267,10.627378,1.571023,12.968236,14.546511,0.000000,8.105049,-2.788434,1.569163,-0.038866,-0.081824,-1.082457,10.008550,-6.345406,0.144497,0.079160,-0.080340,-0.304595,9.693481,15.160787,-0.595717,4.783699,1,0,,38.991476,-76.936569,-10.100000,,,
2026-09-11T17:41:53.301,10.660787,1.600389,13.021874,14.818418,0.000000,8.096122,-2.785363,1.598498,-0.035510,-0.074757,-1.085072,10.032216,-6.392749,0.048644,-0.147346,-0.073273,1.336744,-0.035500,6.529072,-0.537440,4.709573,1,0,,38.991476,-76.936569,-10.100000,,,
2026-09-11T17:41:53.334,10.694208,1.590938,13.074897,14.730904,0.000000,8.499870,-2.924267,1.588866,-0.057572,-0.121205,-1.088347,10.055627,-6.440614,-0.002004,0.009917,-0.119722,-1.242993,7.099524,7.149931,-0.658504,5.106393,1,0,,38.991476,-76.936569,-10.100000,,,
2026-09-11T17:41:53.367,10.727622,1.620525,13.128922,15.004864,0.000000,8.617286,-2.964663,1.618356,-0.070977,-0.149425,-1.092868,10.078474,-6.489130,-0.069707,0.045162,-0.147941,0.303124,-0.619290,1.396761,-0.684202,4.998526,1,0,,38.991476,-76.936569,-10.100000,,,
2026-09-11T17:41:53.401,10.761034,1.630891,13.183404,15.100843,0.000000,8.342628,-2.870170,1.628845,-0.033657,-0.070856,-1.096548,10.101783,-6.538148,0.017325,-0.057404,-0.069373,-1.008516,1.174641,4.308356,-0.798696,5.000638,1,0,,38.991476,-76.936569,-10.100000,,,
2026-09-11T17:41:53.436,10.794460,1.631257,13.238694,15.104233,0.000000,8.615226,-2.963954,1.629075,-0.031335,-0.065969,-1.098835,10.125626,-6.587112,0.036404,0.017144,-0.064486,-0.891228,4.884987,8.225916,-0.911137,5.244389,1,0,,38.991476,-76.936569,-10.100000,,,
2026-09-11T17:41:53.468,10.827873,1.670861,13.294508,15.470931,0.000000,7.800863,-2.683783,1.669028,-0.059490,-0.125243,-1.102029,10.149244,-6.636914,-0.077821,0.001968,-0.123759,0.678424,4.067210,7.366658,-0.925642,5.438711,1,0,,38.991476,-76.936569,-10.100000,,,
2026-09-11T17:41:53.501,10.861284,1.681042,13.350037,15.565207,0.000000,7.617529,-2.620710,1.679284,-0.047910,-0.100864,-1.105807,10.172818,-6.687671,-0.017019,-0.031312,-0.099381,0.427276,2.948369,8.002423,-0.956238,5.555295,1,0,,38.991476,-76.936569,-10.100000,,,
2026-09-11T17:41:53.535,10.894706,1.681221,13.406319,15.566857,0.000000,7.338064,-2.524563,1.679589,-0.028025,-0.058999,-1.108478,10.196785,-6.738443,0.146413,0.048835,-0.057516,-0.887600,0.914176,12.156716,-1.071144,5.533157,1,0,,38.991476,-76.936569,-10.100000,,,
2026-09-11T17:41:53.569,10.928119,1.758876,13.465665,16.285887,0.000000,7.599676,-2.614567,1.757045,-0.018173,-0.038259,-1.110103,10.221660,-6.790195,-0.069749,-0.015236,-0.036776,-0.874067,0.811795,11.361396,-1.184101,5.502503,1,0,,38.991476,-76.936569,-10.100000,,,
2026-09-11T17:41:53.602,10.961534,1.797782,13.525569,16.646132,0.000000,7.997244,-2.751345,1.795710,-0.044194,-0.093040,-1.112297,10.247056,-6.843856,-0.046164,-0.090112,-0.091556,4.590101,-0.925454,10.744362,-0.939215,5.365274,1,0,,38.991476,-76.936569,-10.100000,,,
2026-09-11T17:41:53.635,10.994956,1.827220,13.587068,16.918700,0.000000,8.187445,-2.816781,1.825012,-0.074950,-0.157790,-1.116488,10.271933,-6.899045,-0.085293,-0.067848,-0.156306,3.295034,-0.593498,15.718491,-0.776413,5.259146,1,0,,38.991476,-76.936569,-10.100000,,,
2026-09-11T17:41:53.669,11.028368,1.866417,13.649205,17.281643,0.000000,9.769476,-3.361058,1.863207,-0.057919,-0.121934,-1.121161,10.296845,-6.955445,-0.075683,0.120887,-0.120451,1.685665,2.777636,4.391124,-0.716344,5.370302,1,0,,38.991476,-76.936569,-10.100000,,,
2026-09-11T17:41:53.703,11.061787,1.895784,13.712436,17.553551,0.000000,10.342138,-3.558075,1.892129,-0.079517,-0.167404,-1.125996,10.321910,-7.013015,0.037074,0.180852,-0.165921,2.262198,0.744521,10.802025,-0.614293,5.353358,1,0,,38.991476,-76.936569,-10.100000,,,
2026-09-11T17:41:53.737,11.095207,1.905799,13.776157,17.646287,0.000000,10.456808,-3.597526,1.902044,-0.069583,-0.146490,-1.131241,10.346787,-7.071385,0.083211,-0.001659,-0.145006,1.062551,-0.022653,14.179337,-0.585035,5.284026,1,0,,38.991476,-76.936569,-10.100000,,,
2026-09-11T17:41:53.769,11.128622,1.906331,13.840140,17.651217,0.000000,9.623221,-3.310741,1.903150,-0.048439,-0.101977,-1.135393,10.371936,-7.129809,0.212249,-0.009498,-0.100494,-0.796888,0.938791,0.000196,-0.672390,5.272717,1,0,,38.991476,-76.936569,-10.100000,,,
2026-09-11T17:41:53.803,11.162039,1.945877,13.905285,18.017382,0.000000,6.575888,-2.262347,1.944360,-0.041713,-0.087817,-1.138564,10.397590,-7.188774,0.189491,-0.135558,-0.086333,4.278543,10.975603,9.030062,-0.419205,5.915670,1,0,,38.991476,-76.936569,-10.100000,,,
2026-09-11T17:41:53.836,11.195455,1.926852,13.969701,17.841219,0.000000,3.613699,-1.243245,1.926398,-0.013704,-0.028850,-1.140513,10.423783,-7.247911,0.203530,-0.073768,-0.027366,-0.916530,-4.830854,5.662556,-0.491067,5.511294,1,0,,38.991476,-76.936569,-10.100000,,,
2026-09-11T17:41:53.869,11.228867,1.917317,14.033365,17.752935,0.000000,1.242025,-0.427302,1.917264,-0.026381,-0.055538,-1.141923,10.449918,-7.306568,0.230515,-0.038420,-0.054055,-3.307489,-0.398052,6.304695,-0.707585,5.404454,1,0,,38.991476,-76.936569,-10.100000,,,
2026-09-11T17:41:53.903,11.262288,1.898503,14.097587,17.578732,0.000000,1.579855,-0.543528,1.898418,-0.038779,-0.081640,-1.144215,10.475376,-7.365037,0.137069,-0.067990,-0.080156,-0.246343,1.277218,11.755526,-0.715031,5.411353,1,0,,38.991476,-76.936569,-10.100000,,,
2026-09-11T17:41:53.936,11.295699,1.879139,14.160499,17.399435,0.000000,6.642492,-2.285261,1.877644,-0.052477,-0.110478,-1.147424,10.499996,-7.423136,0.071322,0.060037,-0.108995,-4.169003,-0.577416,9.000347,-0.970126,5.300529,1,0,,38.991476,-76.936569,-10.100000,,,
2026-09-11T17:41:53.969,11.329111,1.859911,14.221873,17.221398,0.000000,10.432089,-3.589021,1.856263,-0.060132,-0.126593,-1.151385,10.523794,-7.480826,0.036459,-0.054224,-0.125110,-1.526993,-0.154161,7.244074,-1.046533,5.220377,1,0,,38.991476,-76.936569,-10.100000,,,
2026-09-11T17:41:54.003,11.362531,1.841014,14.283122,17.046425,0.000000,13.229483,-4.551428,1.835208,-0.090184,-0.189862,-1.156673,10.546468,-7.538245,-0.077907,-0.127643,-0.188378,-1.067258,-2.236210,11.202333,-1.088562,5.012653,1,0,,38.991476,-76.936569,-10.100000,,,
2026-09-11T17:41:54.036,11.395946,1.812295,14.343231,16.780510,0.000000,15.911521,-5.474147,1.804030,-0.091438,-0.192501,-1.163061,10.567976,-7.595197,-0.071210,0.064658,-0.191018,1.311149,0.954972,17.556650,-0.974128,5.015404,1,0,,38.991476,-76.936569,-10.100000,,,
2026-09-11T17:41:54.069,11.429359,1.754244,14.401381,16.243000,0.000000,20.247688,-6.965948,1.741295,-0.085938,-0.180922,-1.169300,10.588571,-7.650809,-0.068826,0.153224,-0.179439,1.071180,-2.023798,9.343188,-0.876820,4.821761,1,0,,38.991476,-76.936569,-10.100000,,,
2026-09-11T17:41:54.103,11.462785,1.715919,14.459280,15.888140,0.000000,20.179710,-6.942561,1.703338,-0.084148,-0.177154,-1.175284,10.608293,-7.704971,-0.229351,0.060873,-0.175670,-4.129777,-8.939252,3.820671,-1.119475,4.178724,1,1,11.449215,38.991473,-76.936550,-10.123000,11.917452,4.580860,4.122796
2026-09-11T17:41:54.136,11.496197,1.677826,14.515174,15.535426,0.000000,19.955177,-6.865313,1.665796,-0.090741,-0.191034,-1.181435,10.627121,-7.758094,-0.126014,-0.091756,-0.189550,-1.573281,0.241832,8.825985,-1.196309,4.142374,1,0,,38.991473,-76.936550,-10.123000,,,
2026-09-11T17:41:54.170,11.529611,1.649465,14.570293,15.272827,0.000000,19.729270,-6.787593,1.637904,-0.088168,-0.185617,-1.187728,10.645144,-7.810348,-0.125287,-0.040527,-0.184133,3.723585,2.147460,9.545009,-0.931469,4.229585,1,0,,38.991473,-76.936550,-10.123000,,,
2026-09-11T17:41:54.204,11.563032,1.650189,14.625492,15.279532,0.000000,19.574089,-6.734205,1.638805,-0.072407,-0.152437,-1.193377,10.662975,-7.862189,-0.004050,-0.116956,-0.150953,1.634965,0.246147,11.690115,-0.806704,4.188484,1,0,,38.991473,-76.936550,-10.123000,,,
2026-09-11T17:41:54.237,11.596446,1.612122,14.678811,14.927054,0.000000,19.924964,-6.854919,1.600598,-0.081293,-0.171143,-1.198783,10.680395,-7.913492,0.084836,-0.006029,-0.169660,2.464803,1.506105,9.270913,-0.635505,4.231465,1,0,,38.991473,-76.936550,-10.123000,,,
2026-09-11T17:41:54.270,11.629862,1.602886,14.732825,14.841535,0.000000,20.304679,-6.985555,1.590987,-0.103855,-0.218643,-1.205296,10.696731,-7.964347,-0.027891,0.122825,-0.217159,1.962605,-1.539056,3.146071,-0.504600,4.080489,1,0,,38.991473,-76.936550,-10.123000,,,
2026-09-11T17:41:54.304,11.663283,1.622887,14.787272,15.026734,0.000000,20.573844,-7.078157,1.610519,-0.109012,-0.229498,-1.212784,10.712337,-8.015641,0.108276,0.059989,-0.228015,0.736087,-3.149700,4.970501,-0.463055,3.827794,1,0,,38.991473,-76.936550,-10.123000,,,
2026-09-11T17:41:54.337,11.696696,1.632610,14.841594,15.116758,0.000000,21.317481,-7.333996,1.619253,-0.113424,-0.238786,-1.220608,10.727560,-8.067540,0.042296,-0.100718,-0.237303,-0.601050,-1.436282,15.202759,-0.519249,3.690627,1,0,,38.991473,-76.936550,-10.123000,,,
2026-09-11T17:41:54.370,11.730112,1.632317,14.896075,15.114047,0.000000,21.625099,-7.439828,1.618575,-0.115118,-0.242355,-1.228647,10.742323,-8.119723,0.080143,0.008642,-0.240871,-2.162857,-0.724711,4.700622,-0.682398,3.601654,1,0,,38.991473,-76.936550,-10.123000,,,
2026-09-11T17:41:54.404,11.763531,1.642479,14.951069,15.208140,0.000000,21.926536,-7.543533,1.628264,-0.120670,-0.254042,-1.236941,10.756596,-8.172213,0.092218,-0.099631,-0.252558,2.837652,7.823451,1.783241,-0.527603,4.071355,1,0,,38.991473,-76.936550,-10.123000,,,
2026-09-11T17:41:54.437,11.796946,1.623394,15.005254,15.031425,0.000000,22.786903,-7.839531,1.608222,-0.131557,-0.276963,-1.245813,10.770102,-8.224741,0.068116,-0.102810,-0.275480,0.339800,-1.614273,7.415397,-0.543492,3.923661,1,0,,38.991473,-76.936550,-10.123000,,,
2026-09-11T17:41:54.470,11.830359,1.633463,15.059895,15.124659,0.000000,23.152885,-7.965442,1.617703,-0.149424,-0.314577,-1.255696,10.782600,-8.277373,0.042286,0.014076,-0.313094,3.255219,-0.574572,9.960222,-0.378840,3.849433,1,0,,38.991473,-76.936550,-10.123000,,,
2026-09-11T17:41:54.505,11.863782,1.672548,15.116826,15.486555,0.000000,22.957878,-7.898352,1.656681,-0.138353,-0.291269,-1.265820,10.794712,-8.330953,0.065874,-0.113771,-0.289786,-1.854438,2.666134,6.876325,-0.554700,3.985255,1,0,,38.991473,-76.936550,-10.123000,,,
2026-09-11T17:41:54.538,11.897193,1.672928,15.172047,15.490071,0.000000,22.891960,-7.875674,1.657148,-0.145803,-0.306953,-1.275814,10.806535,-8.385241,0.007258,0.008746,-0.305470,0.096497,-0.552997,8.373506,-0.605626,3.911730,1,0,,38.991473,-76.936550,-10.123000,,,
2026-09-11T17:41:54.571,11.930606,1.712424,15.229308,15.855779,0.000000,23.821678,-8.195531,1.694936,-0.123349,-0.259682,-1.285280,10.818252,-8.440189,0.062402,0.021358,-0.258199,4.246083,-4.508117,11.652164,-0.389191,3.577270,1,0,,38.991473,-76.936550,-10.123000,,,
2026-09-11T17:41:54.604,11.964026,1.741931,15.287208,16.128989,0.000000,24.741783,-8.512081,1.722743,-0.122088,-0.257027,-1.293915,10.830158,-8.496194,0.020327,-0.050326,-0.255544,4.422211,-8.345459,19.161410,-0.165096,2.997388,1,0,,38.991473,-76.936550,-10.123000,,,
2026-09-11T17:41:54.637,11.997440,1.742776,15.345380,16.136814,0.000000,26.891670,-9.251721,1.720105,-0.171895,-0.361885,-1.304255,10.840862,-8.552916,0.048897,0.134342,-0.360401,3.437917,4.242161,10.499980,-0.008138,3.253932,1,0,,38.991473,-76.936550,-10.123000,,,
2026-09-11T17:41:54.671,12.030852,1.801292,15.405581,16.678631,0.000000,29.239997,-10.059632,1.773600,-0.164473,-0.346259,-1.316085,10.850468,-8.610760,-0.074477,-0.041642,-0.344776,-0.015004,-2.399295,10.149883,-0.076380,3.075465,1,0,,38.991473,-76.936550,-10.123000,,,
2026-09-11T17:41:54.705,12.064272,1.840525,15.467205,17.041903,0.000000,32.281152,-11.105901,1.806058,-0.179040,-0.376927,-1.328169,10.859622,-8.670147,-0.059575,-0.040819,-0.375444,3.287778,4.718176,6.674896,0.072310,3.365964,1,0,,38.991473,-76.936550,-10.123000,,,
2026-09-11T17:41:54.738,12.097687,1.908628,15.530459,17.672485,0.000000,35.594903,-12.245953,1.865200,-0.207088,-0.435975,-1.341751,10.867674,-8.731291,0.004684,-0.132341,-0.434492,2.817647,2.655739,17.924889,0.193959,3.527815,1,0,,38.991473,-76.936550,-10.123000,,,
2026-09-11T17:41:54.771,12.131100,1.928097,15.594510,17.852754,0.000000,36.763573,-12.648018,1.881309,-0.220038,-0.463238,-1.356773,10.874463,-8.793917,-0.228446,0.064116,-0.461754,-0.965759,-8.670354,6.141905,0.072831,2.955397,1,0,,38.991473,-76.936550,-10.123000,,,
2026-09-11T17:41:54.805,12.164517,1.976865,15.660590,18.304309,0.000000,37.612267,-12.940000,1.926663,-0.246388,-0.518712,-1.373181,10.879830,-8.857789,-0.095031,0.090674,-0.517228,2.229346,3.175295,9.433213,0.166515,3.167565,1,0,,38.991473,-76.936550,-10.123000,,,
2026-09-11T17:41:54.838,12.197932,1.987063,15.727147,18.398731,0.000000,37.571069,-12.925826,1.936712,-0.233503,-0.491585,-1.390060,10.884092,-8.922691,-0.026559,0.195862,-0.490101,0.116209,-9.117733,11.586655,0.132608,2.575622,1,0,,38.991473,-76.936550,-10.123000,,,
2026-09-11T17:41:54.872,12.231345,2.006696,15.794024,18.580521,0.000000,37.276498,-12.824483,1.956638,-0.245160,-0.516125,-1.406895,10.887364,-8.988140,0.030677,-0.110414,-0.514642,-2.247586,-5.234790,4.708663,-0.046899,2.246492,1,0,,38.991473,-76.936550,-10.123000,,,
2026-09-11T17:41:54.905,12.264763,2.006875,15.861060,18.582173,0.000000,36.081048,-12.413205,1.959959,-0.202996,-0.427360,-1.422660,10.890136,-9.053955,-0.006940,-0.138910,-0.425877,1.679389,-2.963275,9.279837,0.036928,2.057323,1,0,,38.991473,-76.936550,-10.123000,,,
2026-09-11T17:41:54.939,12.298179,1.988013,15.926650,18.407532,0.000000,34.535409,-11.881448,1.945422,-0.178242,-0.375245,-1.436070,10.893029,-9.119454,0.186001,-0.020161,-0.373762,0.558587,-5.366885,9.927174,0.055839,1.707411,1,0,,38.991473,-76.936550,-10.123000,,,
2026-09-11T17:41:54.972,12.331594,1.949512,15.991715,18.051040,0.000000,32.202187,-11.078734,1.913181,-0.175968,-0.370459,-1.448529,10.895425,-9.184145,0.084005,-0.060984,-0.368976,-0.359316,-2.425969,9.245318,0.022603,1.550848,1,0,,38.991473,-76.936550,-10.123000,,,
2026-09-11T17:41:55.005,12.365010,1.950322,16.057179,18.058536,0.000000,31.468163,-10.826203,1.915609,-0.160429,-0.337745,-1.460362,10.897268,-9.248339,0.102059,-0.123018,-0.336261,3.035060,3.586586,15.740262,0.216918,1.781951,1,0,,38.991473,-76.936550,-10.123000,,,
2026-09-11T17:41:55.039,12.398429,1.931376,16.121527,17.883109,0.000000,30.967599,-10.653990,1.898082,-0.154581,-0.325433,-1.471443,10.898707,-9.312263,0.071284,-0.181796,-0.323950,1.591325,1.630846,8.190416,0.323529,1.881776,1,0,,38.991473,-76.936550,-10.123000,,,
2026-09-11T17:41:55.073,12.431849,1.883235,16.184530,17.437363,0.000000,30.546685,-10.509181,1.851645,-0.159526,-0.335845,-1.482493,10.899356,-9.375136,-0.057188,0.026830,-0.334362,-0.821405,-1.170228,2.039587,0.277718,1.799043,1,0,,38.991473,-76.936550,-10.123000,,,
2026-09-11T17:41:55.106,12.465271,1.834414,16.245915,16.985318,0.000000,30.028268,-10.330826,1.804676,-0.146827,-0.309110,-1.493271,10.899319,-9.436451,-0.151070,-0.107974,-0.307627,-4.242063,2.192963,7.628299,0.012869,1.931281,1,1,12.442377,38.991467,-76.936532,-10.104000,13.479011,3.940934,3.811541
2026-09-11T17:41:55.139,12.498685,1.795542,16.305238,16.625385,0.000000,29.387627,-10.110422,1.767659,-0.132530,-0.279011,-1.503096,10.898997,-9.496315,-0.180524,-0.005936,-0.277528,3.195497,-1.861694,9.535398,0.237077,1.794813,1,0,,38.991467,-76.936532,-10.104000,,,
2026-09-11T17:41:55.173,12.532099,1.766809,16.364470,16.359343,0.000000,25.938607,-8.923833,1.745423,-0.132989,-0.279977,-1.512435,10.898269,-9.555170,-0.197768,0.046969,-0.278494,1.347238,-6.412274,13.180726,0.341403,1.364526,1,0,,38.991467,-76.936532,-10.104000,,,
2026-09-11T17:41:55.206,12.565513,1.738106,16.422802,16.093574,0.000000,23.522988,-8.092771,1.720797,-0.096112,-0.202340,-1.520494,10.897594,-9.613205,-0.006128,-0.007138,-0.200857,1.644183,3.689850,2.719874,0.461324,1.584941,1,0,,38.991467,-76.936532,-10.104000,,,
2026-09-11T17:41:55.239,12.598926,1.738421,16.480952,16.096492,0.000000,23.571053,-8.109307,1.721038,-0.163121,-0.343413,-1.529611,10.895896,-9.670838,-0.083859,0.001699,-0.341930,-1.643693,-2.308191,17.040820,0.366275,1.429766,1,0,,38.991467,-76.936532,-10.104000,,,
2026-09-11T17:41:55.273,12.632339,1.700021,16.537438,15.740934,0.000000,24.686852,-8.493183,1.681378,-0.144283,-0.303754,-1.540423,10.892801,-9.727828,-0.153207,0.051454,-0.302270,-1.226812,-8.740569,8.889336,0.297661,0.854285,1,0,,38.991467,-76.936532,-10.104000,,,
2026-09-11T17:41:55.306,12.665756,1.681155,16.593788,15.566250,0.000000,26.475564,-9.108566,1.659956,-0.144568,-0.304354,-1.550583,10.889390,-9.783760,-0.040259,0.030988,-0.302870,1.795696,-5.417292,7.151107,0.420741,0.500321,1,0,,38.991467,-76.936532,-10.104000,,,
2026-09-11T17:41:55.339,12.699169,1.681515,16.649796,15.569586,0.000000,27.147103,-9.339600,1.659225,-0.169366,-0.356560,-1.561625,10.884961,-9.839281,-0.069554,-0.006037,-0.355076,-1.507576,2.759199,10.459283,0.322454,0.685586,1,0,,38.991467,-76.936532,-10.104000,,,
2026-09-11T17:41:55.373,12.732583,1.682352,16.705371,15.577337,0.000000,27.491113,-9.457952,1.659483,-0.140028,-0.294796,-1.572507,10.879999,-9.894746,0.015548,-0.087904,-0.293312,2.421262,0.362062,12.349515,0.471721,0.706888,1,0,,38.991467,-76.936532,-10.104000,,,
2026-09-11T17:41:55.406,12.766044,1.634263,16.760467,15.132069,0.000000,27.233620,-9.369365,1.612461,-0.148739,-0.313135,-1.582678,10.874799,-9.949452,0.069865,-0.026360,-0.311652,1.439616,3.262378,15.530694,0.549537,0.917184,1,0,,38.991467,-76.936532,-10.104000,,,
2026-09-11T17:41:55.439,12.799456,1.635047,16.814470,15.139327,0.000000,27.112084,-9.327552,1.613429,-0.145026,-0.305318,-1.593010,10.868974,-10.003251,0.007006,0.097249,-0.303835,2.188746,1.486492,6.744033,0.670632,1.009004,1,0,,38.991467,-76.936532,-10.104000,,,
2026-09-11T17:41:55.473,12.832866,1.625683,16.869179,15.052620,0.000000,27.112084,-9.327552,1.604188,-0.145454,-0.306218,-1.603226,10.862656,-10.056849,0.031572,0.109740,-0.304735,0.915745,2.949840,10.912644,0.703933,1.194556,1,0,,38.991467,-76.936532,-10.104000,,,
2026-09-11T17:41:55.506,12.866285,1.615881,16.923319,14.961864,0.000000,26.829873,-9.230461,1.594957,-0.131810,-0.277495,-1.612979,10.856033,-10.110096,-0.004984,0.043388,-0.276011,-0.075805,-2.884234,9.503527,0.667055,0.996786,1,0,,38.991467,-76.936532,-10.104000,,,
2026-09-11T17:41:55.542,12.899700,1.635439,16.978187,15.142958,0.000000,26.936303,-9.267077,1.614094,-0.145718,-0.306775,-1.622741,10.848878,-10.163431,-0.035748,0.001739,-0.305292,1.573967,-0.448458,8.724094,0.728631,0.962510,1,0,,38.991467,-76.936532,-10.104000,,,
2026-09-11T17:41:55.573,12.933114,1.626305,17.032759,15.058378,0.000000,26.864205,-9.242272,1.605192,-0.168931,-0.355645,-1.633808,10.840541,-10.216822,-0.012629,0.017727,-0.354162,0.623899,3.739276,11.000904,0.720610,1.204920,1,0,,38.991467,-76.936532,-10.104000,,,
2026-09-11T17:41:55.606,12.966535,1.636407,17.087241,15.151920,0.000000,26.960336,-9.275345,1.615012,-0.146800,-0.309053,-1.644916,10.831589,-10.270147,-0.011999,0.009258,-0.307570,0.829545,-2.335552,6.348237,0.721239,1.046250,1,0,,38.991467,-76.936532,-10.104000,,,
2026-09-11T17:41:55.640,12.999947,1.665898,17.143112,15.424984,0.000000,26.974068,-9.280069,1.644095,-0.164575,-0.346475,-1.655867,10.822073,-10.324005,-0.065445,0.070115,-0.344991,-1.403724,-0.613602,15.272190,0.568711,1.005551,1,0,,38.991467,-76.936532,-10.104000,,,
2026-09-11T17:41:55.674,13.033357,1.676082,17.199416,15.519277,0.000000,27.084618,-9.318103,1.653965,-0.158762,-0.334235,-1.667238,10.811699,-10.378382,-0.038655,-0.085772,-0.332752,3.665039,0.792083,5.307751,0.738994,1.055299,1,0,,38.991467,-76.936532,-10.104000,,,
2026-09-11T17:41:55.707,13.066780,1.686084,17.255652,15.611885,0.000000,27.296105,-9.390862,1.663487,-0.146603,-0.308637,-1.677981,10.800987,-10.433016,0.076540,-0.184967,-0.307154,3.677690,9.864804,8.361934,0.904440,1.690310,1,0,,38.991467,-76.936532,-10.104000,,,
2026-09-11T17:41:55.741,13.100190,1.715610,17.313505,15.885278,0.000000,27.872887,-9.589296,1.691638,-0.154661,-0.325602,-1.688576,10.789693,-10.488142,-0.049917,0.011802,-0.324118,0.500335,-7.248684,12.957723,0.857584,1.211104,1,0,,38.991467,-76.936532,-10.104000,,,
2026-09-11T17:41:55.774,13.133602,1.735532,17.370949,16.069743,0.000000,28.342553,-9.750878,1.710460,-0.191371,-0.402887,-1.700747,10.776933,-10.543824,-0.066268,-0.095359,-0.401403,3.957474,1.857281,10.498411,1.033955,1.336472,1,0,,38.991467,-76.936532,-10.104000,,,
2026-09-11T17:41:55.807,13.167023,1.794282,17.431377,16.613726,0.000000,29.037438,-9.989944,1.767078,-0.168230,-0.354167,-1.713397,10.763079,-10.600580,0.014386,0.052555,-0.352684,1.108740,-2.530606,6.797676,1.024110,1.171894,1,0,,38.991467,-76.936532,-10.104000,,,
2026-09-11T17:41:55.842,13.200436,1.833757,17.493560,16.979231,0.000000,30.806924,-10.598712,1.802472,-0.178228,-0.375218,-1.725583,10.748517,-10.658697,0.029484,0.038310,-0.373734,0.854846,-0.021182,2.003695,0.998367,1.175106,1,0,,38.991467,-76.936532,-10.104000,,,
2026-09-11T17:41:55.874,13.233849,1.882469,17.556016,17.430272,0.000000,35.336724,-12.157130,1.840253,-0.210820,-0.443832,-1.739266,10.732306,-10.717709,-0.076070,0.070906,-0.442349,1.900921,-2.609942,1.889447,1.045005,1.019614,1,0,,38.991467,-76.936532,-10.104000,,,
2026-09-11T17:41:55.907,13.267267,1.940891,17.620933,17.971210,0.000000,39.203225,-13.487348,1.887364,-0.237442,-0.499879,-1.755035,10.713999,-10.777708,-0.125725,-0.143637,-0.498395,2.022720,3.821259,9.407520,1.104973,1.290904,1,0,,38.991467,-76.936532,-10.104000,,,
2026-09-11T17:41:55.942,13.300681,1.979875,17.687855,18.332172,0.000000,45.946084,-15.807139,1.905004,-0.275060,-0.579074,-1.773061,10.693428,-10.838234,-0.052576,0.013326,-0.577590,0.691369,-1.725872,11.368555,1.083745,1.209967,1,0,,38.991467,-76.936532,-10.104000,,,
2026-09-11T17:41:55.974,13.334094,2.018920,17.754573,18.693703,0.000000,47.084542,-16.198810,1.938768,-0.277278,-0.583743,-1.792487,10.670892,-10.899067,-0.172180,-0.110079,-0.582259,2.061260,1.765589,5.024535,1.160032,1.358100,1,0,,38.991467,-76.936532,-10.104000,,,
2026-09-11T17:41:56.007,13.367517,2.038745,17.822839,18.877271,0.000000,47.128487,-16.213929,1.957656,-0.283960,-0.597810,-1.812233,10.646817,-10.960287,-0.021806,0.014867,-0.596326,0.703235,1.147770,9.178240,1.154849,1.467093,1,0,,38.991467,-76.936532,-10.104000,,,
2026-09-11T17:41:56.042,13.400930,2.048905,17.892200,18.971345,0.000000,46.901894,-16.135973,1.968188,-0.264349,-0.556524,-1.831518,10.621648,-11.021541,0.111318,-0.001967,-0.555040,-2.581993,-1.687332,3.515292,0.944288,1.386185,1,0,,38.991467,-76.936532,-10.104000,,,
2026-09-11T17:41:56.074,13.434342,2.039646,17.959396,18.885608,0.000000,45.699578,-15.722332,1.963335,-0.264440,-0.556716,-1.850116,10.595616,-11.082482,0.213220,-0.025051,-0.555233,0.081297,6.276256,7.861305,0.920257,1.822392,1,0,,38.991467,-76.936532,-10.104000,,,
2026-09-11T17:41:56.108,13.467762,2.030438,18.027161,18.800349,0.000000,43.291512,-14.893869,1.962222,-0.261344,-0.550197,-1.868612,10.568527,-11.142863,-0.121810,-0.067159,-0.548713,2.515798,2.297894,5.281568,1.063086,1.995033,1,1,13.445851,38.991458,-76.936518,-10.166000,14.718203,2.848629,3.812081
2026-09-11T17:41:56.142,13.501181,1.992097,18.094539,18.445342,0.000000,39.823953,-13.700901,1.935413,-0.222787,-0.469025,-1.885643,10.541177,-11.202524,-0.070579,-0.101426,-0.467542,1.075103,8.612985,8.681631,1.117489,2.564635,1,0,,38.991458,-76.936518,-10.166000,,,
2026-09-11T17:41:56.175,13.534595,1.953950,18.160163,18.092133,0.000000,35.683480,-12.276427,1.909270,-0.207258,-0.436332,-1.900769,10.514013,-11.261172,-0.056567,-0.075339,-0.434848,0.713826,-0.977625,16.202449,1.153748,2.500490,1,0,,38.991458,-76.936518,-10.166000,,,
2026-09-11T17:41:56.208,13.568018,1.906237,18.223872,17.650345,0.000000,34.310876,-11.804200,1.865925,-0.191835,-0.403864,-1.914810,10.486863,-11.318510,-0.098286,0.198433,-0.402380,-0.416881,2.191688,10.186560,1.122021,2.637718,1,0,,38.991458,-76.936518,-10.166000,,,
2026-09-11T17:41:56.241,13.601429,1.848265,18.285554,17.113569,0.000000,31.528588,-10.846991,1.815243,-0.166431,-0.350382,-1.927409,10.460142,-11.374220,-0.164689,0.003816,-0.348898,-1.316445,2.512660,8.901006,1.038175,2.786614,1,0,,38.991458,-76.936518,-10.166000,,,
2026-09-11T17:41:56.275,13.634840,1.819082,18.346164,16.843348,0.000000,24.855767,-8.551296,1.798859,-0.116891,-0.246087,-1.937374,10.434356,-11.429020,-0.151431,0.071488,-0.244603,0.626449,-1.571320,7.969080,1.082345,2.656091,1,0,,38.991458,-76.936518,-10.166000,,,
2026-09-11T17:41:56.308,13.668254,1.790082,18.405864,16.574830,0.000000,20.976220,-7.216589,1.775901,-0.085794,-0.180618,-1.944503,10.409595,-11.483477,0.028092,0.022018,-0.179135,-3.847051,-1.075593,9.184026,0.835236,2.551295,1,0,,38.991458,-76.936518,-10.166000,,,
2026-09-11T17:41:56.342,13.701667,1.722650,18.463899,15.950465,0.000000,19.549371,-6.725701,1.710795,-0.084419,-0.177724,-1.950489,10.385526,-11.536597,-0.042686,-0.059834,-0.176241,2.442738,-7.593093,7.009695,0.997919,2.023632,1,0,,38.991458,-76.936518,-10.166000,,,
2026-09-11T17:41:56.375,13.735080,1.722743,18.521047,15.951328,0.000000,18.343621,-6.310879,1.712304,-0.044208,-0.093069,-1.955013,10.362216,-11.588864,-0.077842,0.064059,-0.091586,4.023080,-8.532080,8.268183,1.258760,1.431909,1,0,,38.991458,-76.936518,-10.166000,,,
2026-09-11T17:41:56.408,13.768502,1.704034,18.577943,15.778093,0.000000,17.157784,-5.902907,1.694999,-0.088511,-0.186340,-1.959683,10.338696,-11.640766,0.057239,0.112785,-0.184856,3.745650,-2.410377,15.230512,1.494810,1.253944,1,0,,38.991458,-76.936518,-10.166000,,,
2026-09-11T17:41:56.442,13.801920,1.694494,18.634589,15.689755,0.000000,16.571389,-5.701166,1.686112,-0.062763,-0.132133,-1.965004,10.314801,-11.692021,0.007171,-0.068546,-0.130649,2.884038,-2.303680,9.603849,1.666100,1.078895,1,0,,38.991458,-76.936518,-10.166000,,,
2026-09-11T17:41:56.476,13.835342,1.666060,18.690073,15.426477,0.000000,16.015893,-5.510055,1.658361,-0.048212,-0.101498,-1.968908,10.291524,-11.742867,0.075024,0.014440,-0.100015,3.798116,-6.268901,2.600822,1.885841,0.645299,1,0,,38.991458,-76.936518,-10.166000,,,
2026-09-11T17:41:56.509,13.868764,1.657018,18.745762,15.342759,0.000000,16.246606,-5.589429,1.649139,-0.060559,-0.127492,-1.972735,10.268325,-11.793067,-0.118671,-0.021414,-0.126009,3.228153,-5.566157,3.557068,2.058325,0.264912,1,0,,38.991458,-76.936518,-10.166000,,,
2026-09-11T17:41:56.542,13.902179,1.677221,18.801724,15.529826,0.000000,16.455346,-5.661243,1.669041,-0.088218,-0.185722,-1.977968,10.244219,-11.843049,0.155453,-0.079044,-0.184238,0.671756,6.289397,10.538324,2.057480,0.663178,1,0,,38.991458,-76.936518,-10.166000,,,
2026-09-11T17:41:56.575,13.935591,1.677682,18.857755,15.534097,0.000000,16.402474,-5.643053,1.669552,-0.066733,-0.140491,-1.983418,10.219617,-11.893174,0.001962,-0.018009,-0.139007,2.347614,-0.308615,8.479124,2.156669,0.624786,1,0,,38.991458,-76.936518,-10.166000,,,
2026-09-11T17:41:56.610,13.969015,1.678286,18.912965,15.539688,0.000000,16.639367,-5.724553,1.669917,-0.065342,-0.137562,-1.988064,10.195099,-11.943356,0.021054,-0.000387,-0.136079,2.850597,-0.983607,6.464544,2.279045,0.542759,1,0,,38.991458,-76.936518,-10.166000,,,
2026-09-11T17:41:56.643,14.002436,1.688290,18.970340,15.632315,0.000000,16.609155,-5.714159,1.679901,-0.071965,-0.151506,-1.992895,10.170194,-11.993540,-0.139689,-0.179523,-0.150022,2.597684,-4.931372,-0.269094,2.379566,0.207533,1,0,,38.991458,-76.936518,-10.166000,,,
2026-09-11T17:41:56.676,14.035954,1.688197,19.026371,15.631455,0.000000,16.770516,-5.769673,1.679645,-0.092587,-0.194920,-1.998701,10.144467,-12.043696,0.029456,-0.025764,-0.193437,4.930195,3.821357,13.773146,2.624393,0.448423,1,0,,38.991458,-76.936518,-10.166000,,,
2026-09-11T17:41:56.709,14.069374,1.717559,19.083837,15.903325,0.000000,17.752419,-6.107484,1.707810,-0.086451,-0.182003,-2.004999,10.118097,-12.093872,0.080228,0.045190,-0.180520,-0.888777,2.735761,11.689723,2.479973,0.614577,1,0,,38.991458,-76.936518,-10.166000,,,
2026-09-11T17:41:56.743,14.102788,1.737163,19.141873,16.084842,0.000000,19.924279,-6.854683,1.724746,-0.101448,-0.213575,-2.011608,10.090956,-12.144487,-0.033769,0.183489,-0.212092,-0.621938,1.095501,13.866113,2.348373,0.676349,1,0,,38.991458,-76.936518,-10.166000,,,
2026-09-11T17:41:56.776,14.136203,1.776234,19.201230,16.446608,0.000000,20.486642,-7.048157,1.762811,-0.108404,-0.228218,-2.018989,10.062733,-12.195583,0.033944,-0.000791,-0.226735,2.020758,1.215240,9.254438,2.386668,0.747399,1,0,,38.991458,-76.936518,-10.166000,,,
2026-09-11T17:41:56.810,14.169617,1.786340,19.261043,16.540186,0.000000,21.539269,-7.410299,1.771421,-0.138772,-0.292151,-2.027683,10.033202,-12.246878,0.052923,0.006791,-0.290667,2.388115,4.902541,13.865328,2.445349,1.064067,1,0,,38.991458,-76.936518,-10.166000,,,
2026-09-11T17:41:56.843,14.203035,1.825688,19.322588,16.904519,0.000000,22.499886,-7.740787,1.809052,-0.145527,-0.306372,-2.037684,10.002286,-12.298316,0.055716,-0.024683,-0.304889,3.192849,-1.646537,11.424061,2.551354,0.955219,1,0,,38.991458,-76.936518,-10.166000,,,
2026-09-11T17:41:56.877,14.236450,1.855129,19.384156,17.177123,0.000000,22.880975,-7.871895,1.837648,-0.150124,-0.316050,-2.048083,9.970178,-12.350331,0.107076,0.077295,-0.314567,-0.024419,0.922806,4.602457,2.445551,1.015815,1,0,,38.991458,-76.936518,-10.166000,,,
2026-09-11T17:41:56.910,14.269873,1.874987,19.446908,17.360988,0.000000,23.078042,-7.939693,1.857013,-0.152264,-0.320556,-2.058721,9.937047,-12.402674,-0.090956,-0.040480,-0.319073,1.932793,2.719384,10.288451,2.469267,1.193164,1,0,,38.991458,-76.936518,-10.166000,,,
2026-09-11T17:41:56.943,14.303290,1.933871,19.511666,17.906216,0.000000,23.045083,-7.928354,1.915386,-0.135784,-0.285862,-2.068854,9.902972,-12.455921,0.049613,0.040676,-0.284379,0.458755,-3.330535,6.995574,2.401383,0.973297,1,0,,38.991458,-76.936518,-10.166000,,,
2026-09-11T17:41:56.977,14.336702,1.963675,19.576651,18.182173,0.000000,23.463250,-8.072219,1.944218,-0.153835,-0.323863,-2.079040,9.867642,-12.510072,0.003027,-0.097169,-0.322379,1.575144,-4.420053,7.193080,2.412659,0.690689,1,0,,38.991458,-76.936518,-10.166000,,,
2026-09-11T17:41:57.010,14.370123,1.993399,19.643095,18.457397,0.000000,23.616372,-8.124899,1.973390,-0.156431,-0.329329,-2.089955,9.830955,-12.564537,-0.054367,-0.102781,-0.327845,2.875604,-0.123564,12.500537,2.515877,0.690884,1,0,,38.991458,-76.936518,-10.166000,,,
2026-09-11T17:41:57.044,14.403538,2.022824,19.711066,18.729855,0.000000,23.728295,-8.163404,2.002327,-0.163116,-0.343401,-2.101195,9.793053,-12.619346,0.049593,0.061383,-0.341918,1.111682,3.409380,13.680277,2.511814,0.922432,1,0,,38.991458,-76.936518,-10.166000,,,
2026-09-11T17:41:57.077,14.436954,2.061531,19.780403,19.088252,0.000000,23.687783,-8.149467,2.040713,-0.151608,-0.319175,-2.112265,9.754035,-12.674738,0.095943,0.017954,-0.317692,-0.775118,-6.428259,5.277743,2.393117,0.511688,1,1,14.444429,38.991444,-76.936508,-10.081000,15.574389,1.321922,4.729258
2026-09-11T17:41:57.110,14.470371,2.090939,19.850356,19.360544,0.000000,23.993340,-8.254590,2.069276,-0.145879,-0.307113,-2.122729,9.714086,-12.730816,0.024258,-0.081098,-0.305629,1.193764,-3.843913,8.783915,2.411991,0.271954,1,0,,38.991444,-76.936508,-10.081000,,,
2026-09-11T17:41:57.144,14.503786,2.101142,19.920810,19.455021,0.000000,24.307137,-8.362547,2.078802,-0.176343,-0.371249,-2.134063,9.672847,-12.786769,-0.049388,0.164077,-0.369765,-2.625044,-6.958309,12.593014,2.190235,-0.157876,1,0,,38.991444,-76.936508,-10.081000,,,
2026-09-11T17:41:57.177,14.537199,2.081960,19.989988,19.277410,0.000000,24.792596,-8.529563,2.058933,-0.172689,-0.363555,-2.146339,9.630670,-12.841847,-0.087492,0.016628,-0.362072,-1.981434,-0.657144,6.954092,2.020289,-0.176442,1,0,,38.991444,-76.936508,-10.081000,,,
2026-09-11T17:41:57.210,14.570620,2.063003,20.058506,19.101883,0.000000,25.160638,-8.656183,2.039504,-0.177824,-0.374367,-2.158670,9.588149,-12.895850,0.023466,-0.095118,-0.372883,1.114134,0.063351,11.187917,2.058687,-0.147183,1,0,,38.991444,-76.936508,-10.081000,,,
2026-09-11T17:41:57.245,14.604036,2.034327,20.126704,18.836357,0.000000,24.582482,-8.457276,2.012205,-0.161351,-0.339685,-2.170601,9.545575,-12.948788,-0.032914,0.013047,-0.338202,0.223690,1.916612,11.005219,2.043884,-0.003437,1,0,,38.991444,-76.936508,-10.081000,,,
2026-09-11T17:41:57.278,14.637459,1.996059,20.193968,18.482031,0.000000,23.312875,-8.020484,1.976534,-0.164920,-0.347200,-2.182080,9.503153,-13.000491,-0.063155,-0.040672,-0.345716,-2.407827,1.025776,6.624196,1.864805,0.081239,1,0,,38.991444,-76.936508,-10.081000,,,
2026-09-11T17:41:57.311,14.670877,1.948168,20.259068,18.038597,0.000000,23.025170,-7.921504,1.929579,-0.141942,-0.298826,-2.192874,9.461228,-13.050773,-0.158028,-0.009084,-0.297342,-1.457072,-2.095289,11.507025,1.756889,-0.044238,1,0,,38.991444,-76.936508,-10.081000,,,
2026-09-11T17:41:57.345,14.704329,1.919624,20.322959,17.774293,0.000000,22.236901,-7.650310,1.902537,-0.116325,-0.244894,-2.201968,9.420142,-13.100161,-0.158892,-0.095925,-0.243411,2.380957,-1.006555,12.111017,1.906005,-0.105053,1,0,,38.991444,-76.936508,-10.081000,,,
2026-09-11T17:41:57.379,14.737771,1.881275,20.385849,17.419216,0.000000,21.864053,-7.522036,1.865086,-0.117407,-0.247173,-2.210196,9.379615,-13.148550,-0.162216,-0.015264,-0.245690,-0.019025,-0.880833,1.852868,1.902523,-0.157345,1,0,,38.991444,-76.936508,-10.081000,,,
2026-09-11T17:41:57.412,14.771195,1.852026,20.447713,17.148390,0.000000,21.695824,-7.464160,1.836333,-0.102888,-0.216606,-2.217947,9.339567,-13.195839,0.025762,0.034850,-0.215123,0.001079,0.462482,11.098088,1.900838,-0.126133,1,0,,38.991444,-76.936508,-10.081000,,,
2026-09-11T17:41:57.445,14.804619,1.842143,20.509781,17.056881,0.000000,21.820107,-7.506918,1.826354,-0.116316,-0.244876,-2.225659,9.299561,-13.242310,-0.001247,0.091962,-0.243392,-2.805879,-3.996798,11.595972,1.714492,-0.380826,1,0,,38.991444,-76.936508,-10.081000,,,
2026-09-11T17:41:57.478,14.838068,1.852375,20.570848,17.151618,0.000000,21.930657,-7.544951,1.836337,-0.116122,-0.244468,-2.233843,9.258981,-13.288360,0.036256,-0.062917,-0.242984,1.362732,-2.215126,6.898194,1.797820,-0.517299,1,0,,38.991444,-76.936508,-10.081000,,,
2026-09-11T17:41:57.512,14.871505,1.823569,20.632438,16.884898,0.000000,22.352258,-7.689997,1.807169,-0.132177,-0.278267,-2.242582,9.218020,-13.333634,0.065273,-0.147865,-0.276784,2.773125,-0.296259,12.728444,1.966178,-0.524428,1,0,,38.991444,-76.936508,-10.081000,,,
2026-09-11T17:41:57.545,14.904920,1.814191,20.692821,16.798063,0.000000,22.764245,-7.831736,1.797269,-0.139427,-0.293532,-2.252136,9.176778,-13.377748,0.143665,0.001683,-0.292048,1.571810,-0.742069,3.866272,2.047946,-0.558731,1,0,,38.991444,-76.936508,-10.081000,,,
2026-09-11T17:41:57.579,14.938339,1.775792,20.751996,16.442522,0.000000,22.958566,-7.898589,1.758945,-0.130419,-0.274566,-2.261628,9.135646,-13.420871,0.043857,0.004592,-0.273083,0.034127,4.483012,11.764744,2.021772,-0.257283,1,0,,38.991444,-76.936508,-10.081000,,,
2026-09-11T17:41:57.612,14.971761,1.776143,20.811536,16.445767,0.000000,22.823983,-7.852288,1.759489,-0.121426,-0.255633,-2.270488,9.094751,-13.463324,0.116697,0.019846,-0.254150,0.429335,5.309811,11.514282,2.014747,0.092307,1,0,,38.991444,-76.936508,-10.081000,,,
