timestamp,time_s,speed_mps,distance_m,wheel_omega_rad_s,motor_current_A,steer_motor_deg,steer_column_deg,vx_mps,vy_mps,yaw_rate_rad_s,heading_rad,x_m,y_m,gyro_x_rad_s,gyro_y_rad_s,gyro_z_rad_s,accel_x_mps2,accel_y_mps2,accel_z_mps2,grade_deg,bank_deg,moving,gps_new_fix,gps_time_s,gps_latitude_deg,gps_longitude_deg,gps_altitude_m,gps_east_m,gps_north_m,gps_sigma_m
2026-09-11T17:38:59.693,0.000008,1.397993,0.004893,12.944383,0.000000,-68.800209,23.669797,1.280386,0.281632,0.592909,0.000000,0.000000,0.000000,0.053969,-0.032259,0.594392,2.043216,4.984426,7.523760,8.050469,22.413106,1,1,-0.589621,38.991374,-76.936658,-9.527000,0.000000,0.000000,3.478534
2026-09-11T17:38:59.727,0.033419,1.417803,0.052220,13.127802,0.000000,-68.901833,23.704759,1.298181,0.285517,0.601089,0.019947,0.042978,0.009906,0.065544,0.122862,0.602573,-2.476081,-6.010594,18.541041,7.753899,21.626069,1,0,,38.991374,-76.936658,-9.527000,,,
2026-09-11T17:38:59.761,0.066836,1.408452,0.099859,13.041222,0.000000,-69.463509,23.897996,1.287703,0.280680,0.590905,0.039863,0.085880,0.020652,0.081569,0.036886,0.592389,-0.559960,5.020416,12.016677,7.584665,21.637198,1,0,,38.991374,-76.936658,-9.527000,,,
2026-09-11T17:38:59.795,0.100250,1.438158,0.148419,13.316279,0.000000,-70.009392,24.085800,1.312945,0.327611,0.689708,0.061258,0.128749,0.033001,0.038561,0.093733,0.691192,2.656720,-2.263571,7.304385,7.627340,21.120160,1,0,,38.991374,-76.936658,-9.527000,,,
2026-09-11T17:38:59.829,0.133673,1.496941,0.199145,13.860569,0.000000,-70.991295,24.423611,1.362985,0.326983,0.688385,0.084288,0.172551,0.047171,0.085891,0.053079,0.689869,-2.592192,1.115212,8.730174,7.326220,20.847455,1,0,,38.991374,-76.936658,-9.527000,,,
2026-09-11T17:38:59.862,0.167094,1.545991,0.250963,14.314727,0.000000,-73.940437,25.438224,1.396105,0.353514,0.744239,0.108228,0.217341,0.062926,0.000732,0.114043,0.745723,0.910744,0.865437,13.570933,7.259105,20.553592,1,0,,38.991374,-76.936658,-9.527000,,,
2026-09-11T17:38:59.896,0.200513,1.604145,0.304798,14.853192,0.000000,-80.709389,27.766992,1.419427,0.371996,0.783149,0.133750,0.262571,0.080642,0.047211,0.028910,0.784633,-0.606639,6.953601,4.976973,7.094531,20.688306,1,0,,38.991374,-76.936658,-9.527000,,,
2026-09-11T17:38:59.928,0.233920,1.652830,0.359076,15.303978,0.000000,-81.196220,27.934480,1.460248,0.376181,0.791961,0.160060,0.308318,0.100052,0.099604,-0.092480,0.793444,0.200448,9.365841,-0.272135,6.984904,20.989232,1,0,,38.991374,-76.936658,-9.527000,,,
2026-09-11T17:38:59.963,0.267336,1.711425,0.416889,15.846527,0.000000,-82.200096,28.279850,1.507156,0.419195,0.882516,0.188037,0.354831,0.121733,0.015039,0.080954,0.883999,-0.634588,-0.827583,6.787183,6.823997,20.553316,1,0,,38.991374,-76.936658,-9.527000,,,
2026-09-11T17:38:59.996,0.300753,1.721549,0.474741,15.940268,0.000000,-82.648476,28.434109,1.513870,0.423224,0.890998,0.217670,0.401431,0.145688,0.021057,0.063266,0.892481,-1.469625,-3.508133,9.269540,6.609374,19.933738,1,0,,38.991374,-76.936658,-9.527000,,,
2026-09-11T17:39:00.029,0.334171,1.741626,0.532755,16.126164,0.000000,-82.661522,28.438597,1.531460,0.412633,0.868702,0.247072,0.447728,0.170999,-0.019823,-0.001076,0.870185,-0.484841,-2.438914,13.626831,6.461124,19.399944,1,0,,38.991374,-76.936658,-9.527000,,,
2026-09-11T17:39:00.063,0.367587,1.731984,0.590382,16.036893,0.000000,-82.548912,28.399855,1.523540,0.405751,0.854212,0.275859,0.493499,0.197398,-0.054301,0.003827,0.855696,1.243777,1.814132,8.488734,6.433025,19.173153,1,0,,38.991374,-76.936658,-9.527000,,,
2026-09-11T17:39:00.096,0.401014,1.732517,0.648555,16.041823,0.000000,-82.086800,28.240871,1.526289,0.409398,0.861891,0.304541,0.538437,0.225036,0.065872,0.094656,0.863374,0.327052,-0.104049,4.590787,6.352122,18.814314,1,1,0.381048,38.991380,-76.936644,-9.555000,1.184458,0.620097,3.478534
2026-09-11T17:39:00.129,0.434432,1.703776,0.705897,15.775708,0.000000,-81.486671,28.034405,1.503865,0.398808,0.839596,0.332971,0.582285,0.253720,0.075189,0.013663,0.841080,-0.485821,1.121390,17.103975,6.223708,18.549383,1,0,,38.991380,-76.936644,-9.555000,,,
2026-09-11T17:39:00.163,0.467849,1.704576,0.762630,15.783114,0.000000,-80.261009,27.612733,1.510426,0.373150,0.785580,0.360125,0.625275,0.282958,-0.072448,0.219607,0.787063,0.712061,-0.262230,4.647273,6.179311,18.197056,1,0,,38.991380,-76.936644,-9.555000,,,
2026-09-11T17:39:00.197,0.501269,1.685911,0.818760,15.610288,0.000000,-78.957756,27.164366,1.499956,0.378770,0.797410,0.386577,0.667526,0.313000,-0.096398,0.008336,0.798893,-0.328131,-3.429778,-1.825116,6.072464,17.629465,1,0,,38.991380,-76.936644,-9.555000,,,
2026-09-11T17:39:00.230,0.534689,1.666822,0.874421,15.433538,0.000000,-75.958488,26.132508,1.496436,0.345052,0.726426,0.412041,0.708958,0.343609,-0.198522,-0.063871,0.727909,-3.073894,-2.713108,5.858983,5.790349,17.127178,1,0,,38.991380,-76.936644,-9.555000,,,
2026-09-11T17:39:00.263,0.568106,1.686711,0.931393,15.617693,0.000000,-74.021462,25.466099,1.522830,0.352290,0.741663,0.436570,0.750129,0.374998,0.023420,-0.057466,0.743147,-0.665872,7.982025,9.415169,5.668153,17.365987,1,0,,38.991380,-76.936644,-9.555000,,,
2026-09-11T17:39:00.297,0.601523,1.667509,0.987191,15.439902,0.000000,-71.208962,24.498496,1.517387,0.311555,0.655905,0.459921,0.791106,0.407009,0.153392,0.032924,0.657388,-0.616544,3.312098,9.092334,5.551188,17.289135,1,0,,38.991380,-76.936644,-9.555000,,,
2026-09-11T17:39:00.330,0.634941,1.657724,1.042630,15.349293,0.000000,-70.356148,24.205097,1.511983,0.335387,0.706079,0.482678,0.831290,0.439618,0.141420,-0.101536,0.707562,-0.512201,6.626157,6.923789,5.441945,17.436975,1,0,,38.991380,-76.936644,-9.555000,,,
2026-09-11T17:39:00.363,0.668360,1.638512,1.097370,15.171407,0.000000,-69.750526,23.996741,1.496893,0.313340,0.659664,0.505499,0.870416,0.473001,0.103955,-0.029807,0.661148,-2.762337,-2.235230,0.032656,5.184225,16.977233,1,0,,38.991380,-76.936644,-9.555000,,,
2026-09-11T17:39:00.397,0.701778,1.628952,1.152036,15.082888,0.000000,-67.335594,23.165915,1.497609,0.311563,0.655922,0.527482,0.908766,0.506788,0.023442,0.040689,0.657405,-1.285946,-1.876208,6.958799,5.022140,16.548924,1,0,,38.991380,-76.936644,-9.555000,,,
2026-09-11T17:39:00.430,0.735194,1.609950,1.206086,14.906943,0.000000,-63.744438,21.930426,1.493451,0.280118,0.589722,0.548294,0.946622,0.540881,0.116996,-0.045459,0.591206,0.115326,1.445010,10.251382,4.948280,16.361202,1,0,,38.991380,-76.936644,-9.555000,,,
2026-09-11T17:39:00.464,0.768611,1.600674,1.259104,14.821059,0.000000,-56.427544,19.413146,1.509670,0.273966,0.576771,0.567784,0.984283,0.575307,0.039724,-0.148194,0.578255,0.256346,-3.488716,12.539273,4.880924,15.838637,1,0,,38.991380,-76.936644,-9.555000,,,
2026-09-11T17:39:00.497,0.802037,1.591397,1.312705,14.735158,0.000000,-54.340141,18.695003,1.507432,0.253603,0.533901,0.586347,1.021734,0.610206,0.071747,-0.094031,0.535385,2.450976,-2.155796,9.948650,4.955540,15.418773,1,0,,38.991380,-76.936644,-9.555000,,,
2026-09-11T17:39:00.531,0.835468,1.610970,1.365795,14.916386,0.000000,-49.995735,17.200368,1.538921,0.208320,0.438568,0.602602,1.059596,0.645128,-0.061020,-0.296752,0.440052,-0.298809,1.270550,15.452927,4.847371,15.246843,1,0,,38.991380,-76.936644,-9.555000,,,
2026-09-11T17:39:00.564,0.868888,1.572515,1.417899,14.560321,0.000000,-48.112953,16.552622,1.507347,0.206888,0.435554,0.617209,1.097348,0.679968,0.136084,-0.015304,0.437038,5.287255,-1.074319,17.357182,5.097161,14.918677,1,0,,38.991380,-76.936644,-9.555000,,,
2026-09-11T17:39:00.597,0.902306,1.602063,1.471405,14.833914,0.000000,-46.557014,16.017321,1.539868,0.210479,0.443113,0.631890,1.134571,0.715400,0.120692,-0.172935,0.444596,2.067144,7.458350,6.702257,5.126522,15.173424,1,0,,38.991380,-76.936644,-9.555000,,,
2026-09-11T17:39:00.631,0.935731,1.592801,1.524599,14.748158,0.000000,-44.424294,15.283587,1.536468,0.220290,0.463769,0.647047,1.171528,0.751856,0.090936,-0.067087,0.465253,1.833157,2.342122,14.645644,5.133249,15.074888,1,0,,38.991380,-76.936644,-9.555000,,,
2026-09-11T17:39:00.665,0.969154,1.632256,1.579259,15.113478,0.000000,-43.433464,14.942706,1.577060,0.197624,0.416050,0.661750,1.208558,0.789073,-0.008160,-0.047327,0.417534,3.285032,1.863362,9.173239,5.228442,14.948755,1,0,,38.991380,-76.936644,-9.555000,,,
2026-09-11T17:39:00.698,1.002582,1.661584,1.634546,15.385041,0.000000,-42.872475,14.749705,1.606831,0.193131,0.406591,0.675499,1.246263,0.827188,0.159415,0.100699,0.408074,-0.125623,-2.909633,3.854014,5.097624,14.499935,1,0,,38.991380,-76.936644,-9.555000,,,
2026-09-11T17:39:00.731,1.036013,1.671410,1.690312,15.476018,0.000000,-42.623909,14.664189,1.616966,0.213944,0.450409,0.689825,1.283778,0.866461,0.008990,0.041429,0.451893,-0.057173,1.723813,5.935475,4.972934,14.366173,1,0,,38.991380,-76.936644,-9.555000,,,
2026-09-11T17:39:00.765,1.069429,1.710225,1.747798,15.835419,0.000000,-42.571037,14.645999,1.654654,0.209755,0.441590,0.704728,1.321133,0.906992,0.095847,0.126530,0.443074,0.072961,1.951818,6.990376,4.863070,14.249339,1,0,,38.991380,-76.936644,-9.555000,,,
2026-09-11T17:39:00.798,1.102846,1.739649,1.806355,16.107858,0.000000,-42.496880,14.620486,1.683317,0.209327,0.440689,0.719470,1.358773,0.948737,0.090602,0.132346,0.442173,0.632627,4.193814,7.167681,4.791505,14.285045,1,0,,38.991380,-76.936644,-9.555000,,,
2026-09-11T17:39:00.832,1.136270,1.807767,1.866962,16.738584,0.000000,-42.445381,14.602769,1.749371,0.230982,0.486278,0.734961,1.396728,0.992375,0.064032,0.001657,0.487761,1.894939,-0.435317,11.973135,4.802005,13.999312,1,0,,38.991380,-76.936644,-9.555000,,,
2026-09-11T17:39:00.865,1.169690,1.847012,1.928466,17.101966,0.000000,-42.507179,14.624030,1.787175,0.227115,0.478138,0.751076,1.435064,1.037993,0.050557,0.101918,0.479621,1.262116,4.333559,10.373573,4.775579,14.039573,1,0,,38.991380,-76.936644,-9.555000,,,
2026-09-11T17:39:00.898,1.203112,1.905436,1.992129,17.642922,0.000000,-42.391823,14.584343,1.844039,0.240186,0.505654,0.767517,1.473693,1.085433,-0.130079,-0.161247,0.507138,2.054885,0.128369,-2.546003,4.807179,13.789538,1,0,,38.991380,-76.936644,-9.555000,,,
2026-09-11T17:39:00.932,1.236536,1.935061,2.056542,17.917228,0.000000,-41.141441,14.154166,1.876315,0.261113,0.549712,0.785154,1.512178,1.134975,0.016780,-0.082552,0.551196,0.835919,-0.805028,3.755751,4.766181,13.472863,1,0,,38.991380,-76.936644,-9.555000,,,
2026-09-11T17:39:00.965,1.269955,1.954948,2.121900,18.101367,0.000000,-39.647987,13.640363,1.899809,0.218243,0.459459,0.802017,1.550718,1.185577,-0.079218,-0.036278,0.460943,0.251148,-3.848816,3.763400,4.690865,12.965904,1,0,,38.991380,-76.936644,-9.555000,,,
2026-09-11T17:39:00.999,1.303378,1.936139,2.186948,17.927217,0.000000,-37.581184,12.929307,1.887052,0.213538,0.449553,0.817208,1.589146,1.236371,-0.255232,0.135414,0.451036,0.362748,2.646619,12.351770,4.624902,12.904198,1,0,,38.991380,-76.936644,-9.555000,,,
2026-09-11T17:39:01.032,1.336810,1.888023,2.250159,17.481697,0.000000,-31.908119,10.977564,1.853476,0.179173,0.377206,0.831028,1.626800,1.286719,-0.123052,0.092976,0.378689,1.319485,2.317606,-1.427358,4.623634,12.831076,1,0,,38.991380,-76.936644,-9.555000,,,
2026-09-11T17:39:01.066,1.370228,1.908126,2.314120,17.667830,0.000000,-30.094002,10.353441,1.877057,0.162321,0.341729,0.843040,1.664304,1.336835,-0.401241,-0.004825,0.343212,3.462042,-0.034127,6.560747,4.768924,12.604584,1,0,,38.991380,-76.936644,-9.555000,,,
2026-09-11T17:39:01.099,1.403648,1.898548,2.377103,17.579146,0.000000,-30.037697,10.334070,1.867751,0.178373,0.375521,0.855026,1.701374,1.387566,-0.236957,-0.196990,0.377005,-2.757532,1.622020,3.332986,4.515697,12.488029,1,1,1.377290,38.991393,-76.936634,-9.599000,2.017165,2.089353,3.478534
2026-09-11T17:39:01.132,1.437069,1.869396,2.439186,17.309219,0.000000,-30.153053,10.373757,1.838839,0.175498,0.369470,0.867475,1.737243,1.438407,-0.076677,-0.036775,0.370954,-2.387429,-0.563784,7.469529,4.294085,12.227600,1,0,,38.991393,-76.936634,-9.599000,,,
2026-09-11T17:39:01.166,1.470496,1.840582,2.500864,17.042425,0.000000,-30.275276,10.415806,1.810252,0.175766,0.370033,0.879835,1.771900,1.488932,0.036960,0.000362,0.371517,0.493765,-2.397530,7.709106,4.269213,11.848110,1,0,,38.991393,-76.936634,-9.599000,,,
2026-09-11T17:39:01.199,1.503922,1.831301,2.561739,16.956487,0.000000,-30.755241,10.580932,1.800162,0.175201,0.368844,0.892183,1.805522,1.539377,0.207841,0.261477,0.370327,-0.454832,-1.848063,5.589889,4.188494,11.510638,1,0,,38.991393,-76.936634,-9.599000,,,
2026-09-11T17:39:01.233,1.537341,1.831404,2.623298,16.957441,0.000000,-30.940636,10.644714,1.799888,0.186661,0.392970,0.904913,1.838251,1.590207,0.106792,0.057923,0.394454,2.928168,-5.401209,9.985327,4.329558,10.937490,1,0,,38.991393,-76.936634,-9.599000,,,
2026-09-11T17:39:01.266,1.570761,1.860675,2.685740,17.228469,0.000000,-30.931023,10.641407,1.828675,0.180698,0.380418,0.917836,1.870545,1.641891,0.060266,0.000471,0.381901,-0.224670,0.539072,6.313521,4.260893,10.768414,1,0,,38.991393,-76.936634,-9.599000,,,
2026-09-11T17:39:01.299,1.604183,1.870674,2.747981,17.321058,0.000000,-30.355614,10.443445,1.839685,0.157562,0.331710,0.929737,1.902988,1.694212,0.089062,0.098900,0.333194,-3.340341,0.852198,8.376154,3.988930,10.627869,1,0,,38.991393,-76.936634,-9.599000,,,
2026-09-11T17:39:01.333,1.637601,1.842048,2.809439,17.056004,0.000000,-29.658669,10.203670,1.812915,0.142705,0.300431,0.940299,1.935194,1.746298,-0.032334,-0.013427,0.301915,-0.257425,-0.603894,9.214427,3.920749,10.396441,1,0,,38.991393,-76.936634,-9.599000,,,
2026-09-11T17:39:01.366,1.671029,1.852588,2.871606,17.153597,0.000000,-28.706291,9.876018,1.825135,0.154436,0.325128,0.950755,1.966756,1.798506,-0.102500,0.128005,0.326612,-2.699771,-2.495400,7.986340,3.692067,10.038753,1,0,,38.991393,-76.936634,-9.599000,,,
2026-09-11T17:39:01.399,1.704456,1.863089,2.933596,17.250825,0.000000,-28.483818,9.799479,1.835906,0.158394,0.333462,0.961762,1.997763,1.851513,-0.080006,-0.008797,0.334945,-1.964958,-4.632858,2.659073,3.508551,9.542506,1,0,,38.991393,-76.936634,-9.599000,,,
2026-09-11T17:39:01.433,1.737871,1.834394,2.995087,16.985129,0.000000,-28.619087,9.846016,1.807375,0.163904,0.345060,0.973098,2.027869,1.904688,-0.102035,-0.100012,0.346544,1.016950,3.467435,4.781723,3.515390,9.588706,1,0,,38.991393,-76.936634,-9.599000,,,
2026-09-11T17:39:01.466,1.771296,1.834948,3.056700,16.990260,0.000000,-29.528206,10.158786,1.806181,0.138254,0.291062,0.983730,2.057399,1.957610,-0.025678,0.007834,0.292545,-0.873282,9.368881,12.006772,3.397699,10.032757,1,0,,38.991393,-76.936634,-9.599000,,,
2026-09-11T17:39:01.500,1.804718,1.834952,3.118065,16.990296,0.000000,-31.030586,10.675660,1.803192,0.171773,0.361628,0.994637,2.086205,2.010852,0.072576,0.043771,0.363112,0.540837,10.097515,7.719305,3.373148,10.512738,1,0,,38.991393,-76.936634,-9.599000,,,
2026-09-11T17:39:01.533,1.838142,1.844934,3.179738,17.082721,0.000000,-32.759560,11.270491,1.809355,0.197207,0.415173,1.007619,2.113572,2.065013,0.124930,-0.068810,0.416657,0.825328,-5.583122,4.698366,3.365963,9.937972,1,0,,38.991393,-76.936634,-9.599000,,,
2026-09-11T17:39:01.567,1.871566,1.855268,3.241446,17.178409,0.000000,-33.690651,11.590820,1.817435,0.217634,0.458177,1.022214,2.139664,2.120154,0.011314,-0.151551,0.459661,0.815815,-7.363323,11.603719,3.354463,9.247511,1,0,,38.991393,-76.936634,-9.599000,,,
2026-09-11T17:39:01.600,1.904993,1.855773,3.303339,17.183083,0.000000,-33.681725,11.587749,1.817949,0.191744,0.403672,1.036619,2.165112,2.175752,0.121106,0.243263,0.405156,1.799226,-3.391140,15.022219,3.403443,8.835595,1,0,,38.991393,-76.936634,-9.599000,,,
2026-09-11T17:39:01.634,1.938417,1.855759,3.365612,17.182958,0.000000,-33.306816,11.458767,1.818770,0.198791,0.418507,1.050359,2.190054,2.231556,0.136303,-0.002516,0.419990,-0.270075,3.340439,7.980848,3.315881,8.872009,1,0,,38.991393,-76.936634,-9.599000,,,
2026-09-11T17:39:01.667,1.971843,1.875682,3.427650,17.367423,0.000000,-32.380531,11.140091,1.840340,0.189315,0.398557,1.064014,2.214449,2.288007,0.187630,-0.038594,0.400041,1.015577,2.823629,6.180641,3.311043,8.875667,1,0,,38.991393,-76.936634,-9.599000,,,
2026-09-11T17:39:01.701,2.005260,1.895748,3.491357,17.553227,0.000000,-31.123283,10.707552,1.862740,0.183765,0.386874,1.077138,2.238653,2.345291,0.068156,-0.031546,0.388357,0.858278,-4.183517,16.780061,3.292634,8.417082,1,0,,38.991393,-76.936634,-9.599000,,,
2026-09-11T17:39:01.734,2.038684,1.886414,3.554170,17.466792,0.000000,-29.715660,10.223278,1.856464,0.164303,0.345901,1.089384,2.262631,2.402930,0.145037,-0.001472,0.347385,-0.375399,-0.562509,14.689185,3.189656,8.208258,1,0,,38.991393,-76.936634,-9.599000,,,
2026-09-11T17:39:01.767,2.072107,1.916057,3.618652,17.741265,0.000000,-26.888054,9.250477,1.891138,0.147523,0.310575,1.100355,2.286690,2.460986,0.104960,-0.012717,0.312058,1.053921,3.721330,7.582110,3.178403,8.288144,1,0,,38.991393,-76.936634,-9.599000,,,
2026-09-11T17:39:01.801,2.105531,1.935943,3.683423,17.925402,0.000000,-22.994774,7.911046,1.917519,0.127758,0.268965,1.110040,2.311154,2.519929,0.057254,-0.001209,0.270449,0.879853,-4.172926,12.796698,3.156341,7.851117,1,0,,38.991393,-76.936634,-9.599000,,,
2026-09-11T17:39:01.835,2.138952,1.946034,3.748122,18.018835,0.000000,-18.738945,6.446885,1.933728,0.089953,0.189376,1.117699,2.336283,2.579291,0.083030,0.129285,0.190859,0.222317,0.796006,7.385879,3.091832,7.756641,1,0,,38.991393,-76.936634,-9.599000,,,
2026-09-11T17:39:01.868,2.172379,1.965375,3.814007,18.197915,0.000000,-15.378502,5.290769,1.957002,0.087529,0.184272,1.123944,2.361894,2.639135,0.035045,-0.047652,0.185756,-2.750079,-4.679243,9.424877,2.835313,7.303128,1,0,,38.991393,-76.936634,-9.599000,,,
2026-09-11T17:39:01.902,2.205801,1.985026,3.881235,18.379868,0.000000,-8.959053,3.082243,1.982154,0.016743,0.035249,1.127612,2.388658,2.699303,-0.005317,0.137952,0.036733,-3.186867,6.804050,13.465609,2.555559,7.629791,1,0,,38.991393,-76.936634,-9.599000,,,
2026-09-11T17:39:01.935,2.239219,1.966117,3.946668,18.204785,0.000000,-3.399284,1.169479,1.965707,0.007659,0.016123,1.128471,2.416552,2.759083,0.021718,0.272308,0.017607,-1.680173,4.562054,-0.397660,2.379099,7.807908,1,0,,38.991393,-76.936634,-9.599000,,,
2026-09-11T17:39:01.968,2.272649,2.005261,4.013380,18.567233,0.000000,1.047432,-0.360355,2.005221,-0.025366,-0.053401,1.127848,2.445249,2.818933,-0.141013,0.033602,-0.051918,-0.831506,6.161028,6.353827,2.259889,8.098848,1,0,,38.991393,-76.936634,-9.599000,,,
2026-09-11T17:39:02.001,2.306071,2.034627,4.081204,18.839141,0.000000,4.190208,-1.441585,2.033983,-0.024479,-0.051535,1.126094,2.474985,2.879534,-0.049531,-0.108086,-0.050052,-1.296341,-4.199698,3.894417,2.114789,7.703342,1,0,,38.991393,-76.936634,-9.599000,,,
2026-09-11T17:39:02.035,2.339493,2.044526,4.149596,18.930797,0.000000,7.692787,-2.646601,2.042345,-0.030959,-0.065178,1.124144,2.505186,2.940601,0.102393,-0.207415,-0.063694,-0.411781,3.503426,8.264751,2.033247,7.821797,1,0,,38.991393,-76.936634,-9.599000,,,
2026-09-11T17:39:02.068,2.372920,2.045049,4.218111,18.935637,0.000000,8.176872,-2.813144,2.042584,-0.071419,-0.150355,1.120542,2.536328,3.001380,0.019052,-0.070339,-0.148872,0.777863,2.715854,15.644941,2.029789,7.898548,1,0,,38.991393,-76.936634,-9.599000,,,
2026-09-11T17:39:02.102,2.406340,2.055395,4.286261,19.031434,0.000000,10.512154,-3.616567,2.051302,-0.083511,-0.175812,1.115091,2.568595,3.061755,0.019798,0.036900,-0.174328,-3.103118,-0.361375,13.044806,1.772646,7.775169,1,1,2.386268,38.991410,-76.936630,-9.685000,2.418034,3.946123,3.478534
2026-09-11T17:39:02.135,2.439757,2.046137,4.354247,18.945716,0.000000,11.296990,-3.886579,2.041432,-0.077389,-0.162925,1.109431,2.601274,3.121886,0.191861,0.038058,-0.161441,0.375693,2.841085,4.706898,1.741875,7.862335,1,0,,38.991410,-76.936630,-9.685000,,,
2026-09-11T17:39:02.169,2.473188,2.046401,4.423157,18.948154,0.000000,12.401116,-4.266439,2.040730,-0.093937,-0.197762,1.103402,2.634395,3.181612,0.094209,-0.019872,-0.196278,-0.010983,1.793734,4.087020,1.685787,7.884216,1,0,,38.991410,-76.936630,-9.685000,,,
2026-09-11T17:39:02.203,2.506613,2.056127,4.491461,19.038216,0.000000,14.582589,-5.016946,2.048250,-0.090566,-0.190666,1.096911,2.668131,3.241119,0.127103,0.008069,-0.189183,0.671265,-1.128647,10.438198,1.677059,7.712400,1,0,,38.991410,-76.936630,-9.685000,,,
2026-09-11T17:39:02.236,2.540037,2.065941,4.560479,19.129085,0.000000,19.083551,-6.565442,2.052393,-0.112424,-0.236683,1.089769,2.702634,3.300425,0.081733,0.030820,-0.235199,-0.391580,-0.125133,8.342615,1.601289,7.614941,1,0,,38.991410,-76.936630,-9.685000,,,
2026-09-11T17:39:02.269,2.573483,2.046782,4.629281,18.951690,0.000000,19.928811,-6.856242,2.032146,-0.136788,-0.287974,1.080995,2.738188,3.358895,-0.040763,-0.019868,-0.286490,-3.361425,-0.843568,4.767209,1.332327,7.477750,1,0,,38.991410,-76.936630,-9.685000,,,
2026-09-11T17:39:02.303,2.606911,2.056863,4.698431,19.045032,0.000000,19.827875,-6.821516,2.042303,-0.127792,-0.269036,1.071685,2.774397,3.416738,0.016172,0.019309,-0.267552,-1.509930,2.752727,2.284557,1.184511,7.576612,1,0,,38.991410,-76.936630,-9.685000,,,
2026-09-11T17:39:02.336,2.640331,2.086295,4.768827,19.317544,0.000000,18.349527,-6.312911,2.073644,-0.096532,-0.203225,1.063794,2.810842,3.475189,0.216503,0.017620,-0.201742,2.203652,10.905191,2.424694,1.278211,8.203390,1,0,,38.991410,-76.936630,-9.685000,,,
2026-09-11T17:39:02.369,2.673751,2.125439,4.839464,19.679991,0.000000,15.524667,-5.341055,2.116211,-0.057897,-0.121888,1.058361,2.847258,3.535042,0.065403,-0.064332,-0.120405,0.240557,-0.994492,9.260126,1.244254,8.027979,1,0,,38.991410,-76.936630,-9.685000,,,
2026-09-11T17:39:02.403,2.707169,2.154936,4.911721,19.953109,0.000000,8.985055,-3.091189,2.151800,-0.074722,-0.157309,1.053696,2.884299,3.596023,0.091830,-0.063381,-0.155825,-3.304743,5.041991,17.740720,0.980414,8.258015,1,0,,38.991410,-76.936630,-9.685000,,,
2026-09-11T17:39:02.436,2.740589,2.136183,4.983195,19.779477,0.000000,7.534173,-2.592032,2.133998,-0.016034,-0.033756,1.050503,2.921119,3.657468,0.092987,0.028519,-0.032273,0.787670,0.759329,8.410674,0.983798,8.185396,1,0,,38.991410,-76.936630,-9.685000,,,
2026-09-11T17:39:02.470,2.774009,2.136994,5.054058,19.786985,0.000000,5.383598,-1.852155,2.135878,-0.033538,-0.070605,1.048760,2.957362,3.718933,-0.108748,-0.038327,-0.069122,0.017358,6.748446,12.495732,0.938292,8.514129,1,0,,38.991410,-76.936630,-9.685000,,,
2026-09-11T17:39:02.503,2.807430,2.176075,5.126782,20.148842,0.000000,3.269417,-1.124799,2.175656,0.003212,0.006762,1.047693,2.993761,3.781113,-0.066070,-0.094621,0.008246,3.672590,8.295445,14.107945,1.129245,8.930991,1,0,,38.991410,-76.936630,-9.685000,,,
2026-09-11T17:39:02.536,2.840881,2.195612,5.199987,20.329737,0.000000,-0.237968,0.081870,2.195609,0.001475,0.003105,1.047858,3.030212,3.844489,-0.165361,-0.012030,0.004588,-0.179069,2.863836,4.193814,1.069265,8.984783,1,0,,38.991410,-76.936630,-9.685000,,,
2026-09-11T17:39:02.570,2.874303,2.215113,5.274322,20.510302,0.000000,-3.261955,1.122232,2.214688,-0.000933,-0.001965,1.047877,3.067012,3.908344,-0.262249,-0.054322,-0.000482,-1.940540,1.212004,4.566761,0.902733,8.929377,1,0,,38.991410,-76.936630,-9.685000,,,
2026-09-11T17:39:02.603,2.907721,2.215273,5.347634,20.511787,0.000000,-3.144539,1.081837,2.214878,0.015000,0.031579,1.048372,3.103755,3.972593,-0.076888,0.051549,0.033062,-0.667343,-2.473433,10.408877,0.827932,8.626055,1,0,,38.991410,-76.936630,-9.685000,,,
2026-09-11T17:39:02.636,2.941138,2.206001,5.421697,20.425939,0.000000,-3.756340,1.292319,2.205440,-0.008510,-0.017915,1.048600,3.140508,4.036658,-0.297794,0.060535,-0.016431,-1.082458,6.975666,14.487560,0.733747,8.958064,1,0,,38.991410,-76.936630,-9.685000,,,
2026-09-11T17:39:02.670,2.974562,2.215761,5.496578,20.516310,0.000000,-4.696358,1.615719,2.214881,0.036787,0.077447,1.049595,3.176912,4.100938,-0.094612,-0.044847,0.078931,-1.820212,0.190739,13.562989,0.595789,8.823769,1,0,,38.991410,-76.936630,-9.685000,,,
2026-09-11T17:39:02.703,3.007988,2.225939,5.570544,20.610549,0.000000,-8.205803,2.823097,2.223238,0.048760,0.102652,1.052605,3.212508,4.166029,0.031196,-0.012996,0.104136,1.122371,-1.658599,11.597933,0.651272,8.565039,1,0,,38.991410,-76.936630,-9.685000,,,
2026-09-11T17:39:02.736,3.041414,2.216779,5.643697,20.525733,0.000000,-12.396400,4.264817,2.210641,0.114219,0.240461,1.058339,3.246655,4.231847,0.146846,-0.047858,0.241944,-1.255643,-1.938579,4.355035,0.559813,8.270912,1,0,,38.991410,-76.936630,-9.685000,,,
2026-09-11T17:39:02.770,3.074838,2.227072,5.718241,20.621036,0.000000,-14.307335,4.922248,2.218859,0.082777,0.174267,1.065270,3.279853,4.298096,0.034178,-0.003265,0.175750,-3.135480,6.996653,2.986027,0.355285,8.579722,1,0,,38.991410,-76.936630,-9.685000,,,
2026-09-11T17:39:02.803,3.108265,2.198276,5.791761,20.354405,0.000000,-14.191292,4.882325,2.190300,0.093599,0.197051,1.071476,3.312758,4.364100,0.010049,-0.127728,0.198534,3.358876,6.784535,6.724518,0.577887,8.868472,1,0,,38.991410,-76.936630,-9.685000,,,
2026-09-11T17:39:02.836,3.141689,2.159703,5.863847,19.997254,0.000000,-11.022423,3.792118,2.154975,0.074606,0.157066,1.077394,3.344870,4.429293,0.041770,0.015594,0.158549,1.084419,2.087542,12.610568,0.652049,8.849608,1,0,,38.991410,-76.936630,-9.685000,,,
2026-09-11T17:39:02.870,3.175117,2.149801,5.935738,19.905563,0.000000,-3.681496,1.266570,2.149276,0.030310,0.063810,1.081086,3.377281,4.493544,-0.083875,0.034024,0.065294,0.292434,-1.874835,12.329019,0.672422,8.582287,1,0,,38.991410,-76.936630,-9.685000,,,
2026-09-11T17:39:02.904,3.208536,2.130589,6.007071,19.727678,0.000000,-3.816078,1.312871,2.130030,0.004592,0.009668,1.082314,3.410362,4.556940,-0.094355,0.134399,0.011152,-1.557296,1.633984,-0.979880,0.573546,8.557650,1,0,,38.991410,-76.936630,-9.685000,,,
2026-09-11T17:39:02.937,3.241960,2.121379,6.078388,19.642394,0.000000,-2.184608,0.751585,2.121196,-0.037298,-0.078522,1.081163,3.444221,4.619400,-0.183174,-0.008635,-0.077039,-4.812221,-0.940556,3.000639,0.268079,8.375602,1,0,,38.991410,-76.936630,-9.685000,,,
2026-09-11T17:39:02.970,3.275387,2.092745,6.148123,19.377268,0.000000,-1.440971,0.495747,2.092667,-0.014910,-0.031389,1.079326,3.478171,4.681114,-0.179350,-0.143969,-0.029905,-1.312620,5.105636,14.293291,0.192838,8.588301,1,0,,38.991410,-76.936630,-9.685000,,,
2026-09-11T17:39:03.004,3.308810,2.044585,6.216669,18.931340,0.000000,-2.131737,0.733396,2.044417,-0.023607,-0.049699,1.077971,3.511406,4.741742,-0.094964,-0.060718,-0.048215,-1.708220,7.895628,11.741502,0.089826,8.985721,1,0,,38.991410,-76.936630,-9.685000,,,
2026-09-11T17:39:03.037,3.342233,2.035135,6.284934,18.843845,0.000000,-4.112709,1.414923,2.034515,0.016607,0.034962,1.077725,3.543767,4.801736,-0.100165,0.011063,0.036446,-1.697923,6.913884,14.758224,-0.014156,9.302812,1,0,,38.991410,-76.936630,-9.685000,,,
2026-09-11T17:39:03.071,3.375652,2.016424,6.353036,18.670592,0.000000,-5.197609,1.788168,2.015442,0.039634,0.083441,1.079703,3.574911,4.861823,-0.045256,-0.059022,0.084924,0.939477,2.857266,8.082641,0.052637,9.341380,1,0,,38.991410,-76.936630,-9.685000,,,
2026-09-11T17:39:03.104,3.409076,2.036342,6.421486,18.855022,0.000000,-8.407677,2.892549,2.033748,0.056312,0.118551,1.083079,3.605307,4.922302,-0.063855,-0.063163,0.120035,0.426785,6.190644,16.456344,0.085310,9.595708,1,1,3.384636,38.991428,-76.936624,-9.748000,2.905616,5.960604,2.788564
2026-09-11T17:39:03.137,3.442501,2.036755,6.489317,18.858838,0.000000,-10.843895,3.730698,2.032438,0.087470,0.184146,1.088137,3.634874,4.983535,-0.011618,-0.004796,0.185630,-0.489450,-2.642304,5.736792,0.057235,9.252826,1,0,,38.991428,-76.936624,-9.748000,,,
2026-09-11T17:39:03.171,3.475923,2.027509,6.556739,18.773229,0.000000,-11.742714,4.039925,2.022471,0.094766,0.199507,1.094549,3.663430,5.045060,0.036360,0.085768,0.200991,-0.143471,-0.444339,11.080240,0.049933,9.057726,1,0,,38.991428,-76.936624,-9.748000,,,
2026-09-11T17:39:03.204,3.509345,2.007905,6.624023,18.591713,0.000000,-11.407631,3.924644,2.003196,0.062089,0.130714,1.100067,3.691774,5.106127,0.134012,0.072848,0.132198,-0.851904,4.039653,7.231522,-0.006273,9.171059,1,0,,38.991428,-76.936624,-9.748000,,,
2026-09-11T17:39:03.238,3.542766,2.017699,6.691660,18.682399,0.000000,-10.294579,3.541713,2.013845,0.072374,0.152367,1.104797,3.720071,5.167039,0.139177,0.005900,0.153851,1.108936,-0.081886,10.831935,0.060664,9.007311,1,0,,38.991428,-76.936624,-9.748000,,,
2026-09-11T17:39:03.271,3.576188,2.047132,6.759617,18.954928,0.000000,-6.737755,2.318035,2.045457,0.040517,0.085300,1.108769,3.748743,5.228547,0.010089,-0.188943,0.086783,0.313028,-0.232614,5.489370,0.074069,8.844257,1,0,,38.991428,-76.936624,-9.748000,,,
2026-09-11T17:39:03.305,3.609616,2.037780,6.827498,18.868331,0.000000,-5.512779,1.896598,2.036663,0.039541,0.083245,1.111586,3.777873,5.290260,0.097260,0.023110,0.084729,-0.455911,2.705263,12.436892,0.036300,8.877700,1,0,,38.991428,-76.936624,-9.748000,,,
2026-09-11T17:39:03.338,3.643040,1.999135,6.894087,18.510505,0.000000,-5.029381,1.730292,1.998223,0.033227,0.069953,1.114146,3.806593,5.351280,0.001049,0.040381,0.071436,1.064316,-4.227843,8.078915,0.096662,8.454445,1,0,,38.991428,-76.936624,-9.748000,,,
2026-09-11T17:39:03.371,3.676460,1.999593,6.960977,18.514754,0.000000,-4.730003,1.627295,1.998787,0.025717,0.054140,1.116220,3.835097,5.411692,0.040724,0.022381,0.055624,1.579949,-1.616038,13.029802,0.189543,8.210914,1,0,,38.991428,-76.936624,-9.748000,,,
2026-09-11T17:39:03.405,3.709882,1.990392,7.027551,18.429551,0.000000,-3.283928,1.129792,1.990005,0.015019,0.031619,1.117653,3.863710,5.471898,-0.106623,-0.183194,0.033103,-5.484173,-6.620666,10.670322,-0.177188,7.643479,1,0,,38.991428,-76.936624,-9.748000,,,
2026-09-11T17:39:03.438,3.743303,2.000835,7.094696,18.526246,0.000000,-2.053459,0.706465,2.000683,-0.003266,-0.006876,1.118067,3.892716,5.531946,-0.052340,0.064865,-0.005393,-2.226698,6.113073,7.460899,-0.328418,7.926691,1,0,,38.991428,-76.936624,-9.748000,,,
2026-09-11T17:39:03.472,3.776727,2.001199,7.161157,18.529620,0.000000,-0.811317,0.279123,2.001175,-0.011244,-0.023672,1.117556,3.922204,5.591974,0.019526,0.100319,-0.022189,-4.524886,-3.768892,2.451564,-0.625421,7.557873,1,0,,38.991428,-76.936624,-9.748000,,,
2026-09-11T17:39:03.505,3.810149,1.991935,7.227868,18.443847,0.000000,0.763847,-0.262792,1.991914,-0.020573,-0.043312,1.116437,3.951934,5.651715,-0.087198,-0.064336,-0.041828,-1.774317,-4.534497,8.375566,-0.736564,7.145819,1,0,,38.991428,-76.936624,-9.748000,,,
2026-09-11T17:39:03.538,3.843574,1.962833,7.293004,18.174378,0.000000,0.902550,-0.310510,1.962804,-0.031578,-0.066481,1.114602,3.981779,5.710693,-0.067125,0.100385,-0.064997,0.482291,1.790400,18.672548,-0.698427,7.157396,1,0,,38.991428,-76.936624,-9.748000,,,
2026-09-11T17:39:03.572,3.876997,1.982298,7.359212,18.354608,0.000000,0.703423,-0.242003,1.982280,-0.018777,-0.039530,1.112830,4.011630,5.769483,-0.079027,-0.024043,-0.038046,1.179936,-2.089307,13.969965,-0.619946,6.910382,1,0,,38.991428,-76.936624,-9.748000,,,
2026-09-11T17:39:03.605,3.910416,1.972815,7.425381,18.266802,0.000000,-0.496147,0.170693,1.972806,0.000764,0.001608,1.112197,4.041138,5.828617,-0.059857,0.023205,0.003092,0.708236,-6.235460,7.941131,-0.574123,6.388886,1,0,,38.991428,-76.936624,-9.748000,,,
2026-09-11T17:39:03.639,3.943839,2.002359,7.492571,18.540359,0.000000,-2.618568,0.900884,2.002111,0.008619,0.018144,1.112527,4.070394,5.888255,-0.061018,0.011000,0.019628,-0.623997,-2.686336,13.859444,-0.613072,6.104282,1,0,,38.991428,-76.936624,-9.748000,,,
2026-09-11T17:39:03.672,3.977259,1.983266,7.558075,18.363572,0.000000,-3.354652,1.154124,1.982863,-0.008390,-0.017663,1.112535,4.099849,5.947975,0.000174,0.022675,-0.016179,-2.863836,1.375088,2.908849,-0.796407,6.093862,1,0,,38.991428,-76.936624,-9.748000,,,
2026-09-11T17:39:03.706,4.010675,1.964186,7.623605,18.186911,0.000000,-3.801659,1.307910,1.963675,0.025786,0.054286,1.113147,4.128741,6.007247,0.010856,0.053904,0.055770,1.227400,2.900023,11.301870,-0.712928,6.174225,1,0,,38.991428,-76.936624,-9.748000,,,
2026-09-11T17:39:03.739,4.044095,1.954840,7.688552,18.100368,0.000000,-3.903969,1.343109,1.954303,0.013630,0.028695,1.114533,4.157036,6.066291,-0.053608,0.049067,0.030178,-1.415394,-6.444832,11.661676,-0.803227,5.644771,1,0,,38.991428,-76.936624,-9.748000,,,
2026-09-11T17:39:03.773,4.077516,1.936020,7.753631,17.926109,0.000000,-3.979500,1.369094,1.935467,0.025863,0.054449,1.115923,4.185042,6.124951,0.085151,0.051718,0.055933,1.614861,-1.663502,7.867483,-0.700846,5.431400,1,0,,38.991428,-76.936624,-9.748000,,,
2026-09-11T17:39:03.806,4.110932,1.946394,7.819104,18.022163,0.000000,-4.183434,1.439255,1.945780,0.030077,0.063320,1.117890,4.212636,6.183643,0.134016,-0.033513,0.064803,2.922970,7.539353,4.474382,-0.515634,5.821562,1,0,,38.991428,-76.936624,-9.748000,,,
2026-09-11T17:39:03.839,4.144357,1.956610,7.884118,18.116755,0.000000,-3.815392,1.312635,1.956096,-0.004105,-0.008643,1.118804,4.240753,6.242482,0.036759,-0.009052,-0.007159,0.155926,-1.738915,14.923956,-0.510281,5.609172,1,0,,38.991428,-76.936624,-9.748000,,,
2026-09-11T17:39:03.873,4.177775,1.927885,7.948534,17.850787,0.000000,-3.772820,1.297988,1.927390,0.011519,0.024250,1.119065,4.268975,6.300912,0.093456,0.014305,0.025734,-3.697990,-3.385060,14.053126,-0.753772,5.287469,1,0,,38.991428,-76.936624,-9.748000,,,
2026-09-11T17:39:03.906,4.211200,1.918164,8.012554,17.760781,0.000000,-3.336800,1.147982,1.917779,0.010188,0.021448,1.119829,4.296678,6.358897,0.158151,-0.023895,0.022932,2.261512,4.670907,19.509546,-0.610255,5.496770,1,0,,38.991428,-76.936624,-9.748000,,,
2026-09-11T17:39:03.940,4.244618,1.928055,8.076439,17.852363,0.000000,-3.639610,1.252160,1.927595,0.016271,0.034254,1.120759,4.324257,6.416931,0.147356,0.093727,0.035737,2.419595,2.191394,10.505080,-0.459405,5.539896,1,0,,38.991428,-76.936624,-9.748000,,,
2026-09-11T17:39:03.973,4.278035,1.928318,8.141038,17.854799,0.000000,-3.373878,1.160738,1.927923,0.034015,0.071612,1.122528,4.351471,6.475327,0.195547,0.030938,0.073095,3.240313,-1.374010,5.216255,-0.255270,5.344562,1,0,,38.991428,-76.936624,-9.748000,,,
2026-09-11T17:39:04.006,4.311456,1.948128,8.205960,18.038221,0.000000,-3.704842,1.274601,1.947646,0.002529,0.005323,1.123814,4.378952,6.533974,0.013946,0.207225,0.006807,-2.198063,-6.989494,12.036290,-0.404691,4.792825,1,0,,38.991428,-76.936624,-9.748000,,,
2026-09-11T17:39:04.040,4.344876,1.958100,8.271570,18.130558,0.000000,-3.511208,1.207984,1.957665,0.001612,0.003394,1.123959,4.407092,6.592852,0.117844,0.151541,0.004877,0.185248,9.502938,12.035800,-0.398169,5.325490,1,0,,38.991428,-76.936624,-9.748000,,,
2026-09-11T17:39:04.074,4.378292,1.948637,8.336624,18.042935,0.000000,-3.331993,1.146328,1.948247,-0.003765,-0.007927,1.123884,4.435326,6.651687,0.056707,0.116769,-0.006443,0.666950,9.495975,15.651414,-0.359837,5.853904,1,1,4.382796,38.991445,-76.936619,-9.823000,3.302740,7.895210,2.788092
2026-09-11T17:39:04.107,4.411728,1.949181,8.401913,18.047972,0.000000,-3.386238,1.164990,1.948778,0.000084,0.000177,1.123754,4.463543,6.710411,0.092252,0.266361,0.001661,1.311836,-0.679797,5.346390,-0.281899,5.709309,1,0,,38.991445,-76.936619,-9.823000,,,
2026-09-11T17:39:04.140,4.445145,1.959634,8.468273,18.144761,0.000000,-3.610085,1.242002,1.959174,-0.003500,-0.007369,1.123634,4.491826,6.769265,-0.076214,-0.135759,-0.005885,-3.476359,3.426149,-3.649251,-0.517048,5.836231,1,0,,38.991445,-76.936619,-9.823000,,,
2026-09-11T17:39:04.174,4.478568,1.979681,8.534027,18.330383,0.000000,-3.778313,1.299878,1.979172,0.021992,0.046298,1.124285,4.519987,6.828751,0.021276,-0.334053,0.047782,-1.291045,2.587877,9.013194,-0.607970,5.899937,1,0,,38.991445,-76.936619,-9.823000,,,
2026-09-11T17:39:04.207,4.511994,1.941141,8.598489,17.973529,0.000000,-3.982246,1.370039,1.940586,-0.002281,-0.004802,1.124978,4.547959,6.887992,0.078946,-0.124947,-0.003318,-4.188813,-2.198749,19.111200,-0.884815,5.656017,1,0,,38.991445,-76.936619,-9.823000,,,
2026-09-11T17:39:04.240,4.545414,1.922286,8.663114,17.798944,0.000000,-2.806023,0.965375,1.922013,0.021876,0.046055,1.125667,4.575474,6.946378,0.094507,-0.007356,0.047538,-1.527974,-1.035190,13.351656,-0.987010,5.484733,1,0,,38.991445,-76.936619,-9.823000,,,
2026-09-11T17:39:04.274,4.578829,1.902767,8.726509,17.618215,0.000000,-0.246208,0.084705,1.902765,0.003142,0.006614,1.126547,4.602586,7.004245,-0.051827,0.051375,0.008097,-1.719498,-6.407273,10.035047,-1.101780,4.969255,1,0,,38.991445,-76.936619,-9.823000,,,
2026-09-11T17:39:04.307,4.612254,1.912728,8.790630,17.710440,0.000000,1.562416,-0.537528,1.912643,-0.026563,-0.055923,1.125723,4.630368,7.061640,0.054909,-0.018436,-0.054439,1.392937,3.004267,9.408990,-1.013501,5.082620,1,0,,38.991445,-76.936619,-9.823000,,,
2026-09-11T17:39:04.341,4.645702,1.912985,8.854715,17.712824,0.000000,4.465553,-1.536314,1.912297,-0.038709,-0.081493,1.123425,4.658959,7.118874,0.063980,-0.066714,-0.080010,1.478549,2.473924,7.798248,-0.916634,5.163334,1,0,,38.991445,-76.936619,-9.823000,,,
2026-09-11T17:39:04.374,4.679122,1.923259,8.919197,17.807958,0.000000,7.615883,-2.620143,1.921249,-0.069586,-0.146497,1.119616,4.688410,7.175788,0.068010,-0.009965,-0.145013,-2.469020,4.663552,11.139864,-1.069744,5.394532,1,0,,38.991445,-76.936619,-9.823000,,,
2026-09-11T17:39:04.408,4.712551,1.914253,8.982982,17.724566,0.000000,10.409844,-3.581368,1.910515,-0.056505,-0.118958,1.115178,4.718358,7.232441,-0.001538,-0.011337,-0.117475,0.805420,-5.307163,6.577418,-1.004202,4.967521,1,0,,38.991445,-76.936619,-9.823000,,,
2026-09-11T17:39:04.441,4.745968,1.924330,9.047332,17.817871,0.000000,13.619225,-4.685513,1.917899,-0.099960,-0.210442,1.109675,4.749006,7.288646,0.127124,0.002462,-0.208958,-0.756975,0.365004,9.164413,-1.042864,4.927791,1,0,,38.991445,-76.936619,-9.823000,,,
2026-09-11T17:39:04.475,4.779385,1.924698,9.111646,17.821278,0.000000,19.794916,-6.810177,1.911118,-0.094638,-0.199238,1.102830,4.780575,7.344386,0.128003,-0.065299,-0.197755,-1.009300,3.117926,5.610777,-1.102731,5.066901,1,0,,38.991445,-76.936619,-9.823000,,,
2026-09-11T17:39:04.508,4.812804,1.964201,9.177840,18.187043,0.000000,21.450418,-7.379731,1.947931,-0.134283,-0.282702,1.094777,4.813302,7.400076,-0.056689,-0.175511,-0.281218,-0.548094,-2.936013,4.371020,-1.133650,4.819974,1,0,,38.991445,-76.936619,-9.823000,,,
2026-09-11T17:39:04.541,4.846224,1.984184,9.243905,18.372079,0.000000,25.180963,-8.663175,1.961547,-0.161775,-0.340579,1.084362,4.847924,7.455691,0.127367,-0.182139,-0.339095,0.366965,1.603780,6.546331,-1.102590,4.880090,1,0,,38.991445,-76.936619,-9.823000,,,
2026-09-11T17:39:04.575,4.879642,1.974976,9.309335,18.286814,0.000000,30.319819,-10.431130,1.942336,-0.173352,-0.364951,1.072573,4.883689,7.510526,0.210821,-0.208509,-0.363468,2.928462,0.521125,-2.641813,-0.900879,4.871476,1,0,,38.991445,-76.936619,-9.823000,,,
2026-09-11T17:39:04.608,4.913062,1.936681,9.374111,17.932233,0.000000,36.093821,-12.417599,1.891375,-0.191655,-0.403484,1.059732,4.919995,7.563653,0.084621,0.006232,-0.402000,-5.254011,-1.545822,3.459982,-1.229163,4.731482,1,0,,38.991445,-76.936619,-9.823000,,,
2026-09-11T17:39:04.642,4.946522,1.907262,9.438551,17.659831,0.000000,40.552897,-13.951685,1.850996,-0.251698,-0.529890,1.044117,4.957475,7.614338,-0.004074,-0.074799,-0.528406,-0.012258,5.853393,7.337336,-1.214306,5.091123,1,0,,38.991445,-76.936619,-9.823000,,,
2026-09-11T17:39:04.675,4.979938,1.917184,9.502556,17.751705,0.000000,46.422343,-15.970990,1.843183,-0.269304,-0.566956,1.025791,4.996468,7.662960,-0.040959,-0.080559,-0.565472,0.094340,0.914078,8.943567,-1.190543,5.127822,1,0,,38.991445,-76.936619,-9.823000,,,
2026-09-11T17:39:04.708,5.013351,1.946451,9.567711,18.022696,0.000000,47.078776,-16.196827,1.869195,-0.268120,-0.564464,1.006889,5.036756,7.710959,0.081343,-0.099970,-0.562980,-3.061342,-3.726429,7.644382,-1.370601,4.861547,1,0,,38.991445,-76.936619,-9.823000,,,
2026-09-11T17:39:04.742,5.046769,1.946754,9.632683,18.025498,0.000000,47.452311,-16.325336,1.868263,-0.301343,-0.634406,0.986857,5.078647,7.758229,0.092101,-0.006421,-0.632922,-0.148473,1.463937,9.755263,-1.357359,4.945861,1,0,,38.991445,-76.936619,-9.823000,,,
2026-09-11T17:39:04.775,5.080183,1.937192,9.697155,17.936960,0.000000,48.563304,-16.707559,1.855412,-0.279942,-0.589352,0.966412,5.121520,7.804344,-0.000929,-0.104880,-0.587869,-4.319045,-8.275832,10.421233,-1.609079,4.387278,1,0,,38.991445,-76.936619,-9.823000,,,
2026-09-11T17:39:04.808,5.113602,1.908758,9.761116,17.673682,0.000000,50.623240,-17.416252,1.821252,-0.303803,-0.639585,0.945877,5.164906,7.848907,0.089742,-0.048937,-0.638101,3.113709,5.507317,13.599961,-1.376881,4.739409,1,0,,38.991445,-76.936619,-9.823000,,,
2026-09-11T17:39:04.842,5.147019,1.880290,9.823916,17.410096,0.000000,53.725507,-18.483546,1.783295,-0.311217,-0.655194,0.924243,5.208928,7.891268,-0.024923,-0.066162,-0.653710,2.673489,0.530834,10.471541,-1.180161,4.763003,1,0,,38.991445,-76.936619,-9.823000,,,
2026-09-11T17:39:04.875,5.180438,1.910159,9.887971,17.686659,0.000000,55.808790,-19.200272,1.803906,-0.335351,-0.706003,0.901498,5.254125,7.932080,0.040591,-0.010531,-0.704519,0.276744,2.824315,12.271650,-1.147120,4.943039,1,0,,38.991445,-76.936619,-9.823000,,,
2026-09-11T17:39:04.909,5.213861,1.891185,9.950989,17.510969,0.000000,58.289640,-20.053775,1.776524,-0.333208,-0.701491,0.877977,5.300471,7.971533,0.120647,-0.123870,-0.700008,1.431869,0.598206,10.777705,-1.042565,4.973880,1,0,,38.991445,-76.936619,-9.823000,,,
2026-09-11T17:39:04.943,5.247290,1.891677,10.014952,17.515532,0.000000,60.873487,-20.942713,1.766710,-0.346656,-0.729803,0.854053,5.347490,8.009281,0.144701,-0.098557,-0.728319,4.513118,7.297128,10.195778,-0.738258,5.445386,1,0,,38.991445,-76.936619,-9.823000,,,
2026-09-11T17:39:04.976,5.280709,1.901377,10.078456,17.605341,0.000000,62.734296,-21.582900,1.768064,-0.365306,-0.769065,0.829008,5.395710,8.045390,-0.043484,-0.194317,-0.767581,-1.387543,-0.237811,13.426383,-0.818209,5.423424,1,0,,38.991445,-76.936619,-9.823000,,,
2026-09-11T17:39:05.009,5.314126,1.891411,10.141506,17.513063,0.000000,64.280622,-22.114893,1.752261,-0.360724,-0.759420,0.803469,5.444831,8.079935,0.023378,-0.107481,-0.757936,1.359398,-5.421803,8.945234,-0.719551,5.060845,1,0,,38.991445,-76.936619,-9.823000,,,
2026-09-11T17:39:05.043,5.347545,1.891573,10.205036,17.514566,0.000000,66.860349,-23.002414,1.741171,-0.372614,-0.784451,0.777672,5.494595,8.112802,-0.019477,-0.205141,-0.782968,-1.348022,-2.774007,6.938793,-0.799301,4.877832,1,0,,38.991445,-76.936619,-9.823000,,,
2026-09-11T17:39:05.076,5.381079,1.911539,10.269011,17.699435,0.000000,70.540769,-24.268613,1.742614,-0.409325,-0.861736,0.750070,5.545837,8.143730,0.106182,-0.047723,-0.860253,2.438129,0.902898,10.408582,-0.638737,4.946221,1,0,,38.991445,-76.936619,-9.823000,,,
2026-09-11T17:39:05.110,5.414501,1.911927,10.333263,17.703026,0.000000,71.283720,-24.524215,1.739444,-0.377831,-0.795434,0.722377,5.597789,8.173059,0.027763,-0.001399,-0.793950,3.566581,-2.683786,11.302753,-0.411120,4.771562,1,1,5.388063,38.991460,-76.936612,-9.887000,3.977721,9.517915,2.788092
2026-09-11T17:39:05.143,5.447928,1.931663,10.396995,17.885767,0.000000,72.604139,-24.978488,1.750987,-0.424456,-0.893592,0.694148,5.650806,8.200812,-0.010760,-0.124495,-0.892108,1.744995,10.283646,9.641604,-0.306590,5.458441,1,0,,38.991460,-76.936612,-9.887000,,,
2026-09-11T17:39:05.176,5.481347,1.922425,10.461632,17.800229,0.000000,74.007642,-25.461345,1.735710,-0.425210,-0.895178,0.664259,5.705047,8.226363,0.053428,-0.118948,-0.893695,-0.496020,0.707942,6.421591,-0.352378,5.510910,1,0,,38.991460,-76.936612,-9.887000,,,
2026-09-11T17:39:05.209,5.514764,1.942492,10.526475,17.986034,0.000000,75.452345,-25.958375,1.746518,-0.446874,-0.940787,0.633582,5.760200,8.249907,-0.022491,-0.193385,-0.939303,0.849256,2.950331,5.425921,-0.312251,5.715431,1,0,,38.991460,-76.936612,-9.887000,,,
2026-09-11T17:39:05.243,5.548182,1.962438,10.591808,18.170724,0.000000,79.062040,-27.200243,1.745421,-0.425693,-0.896195,0.602888,5.816196,8.271845,-0.177510,-0.258421,-0.894712,3.918737,-1.881406,5.589300,-0.073939,5.596256,1,0,,38.991460,-76.936612,-9.887000,,,
2026-09-11T17:39:05.277,5.581605,1.963000,10.657779,18.175929,0.000000,81.456373,-28.023981,1.732841,-0.475058,-1.000123,0.571198,5.872909,8.291501,-0.146914,0.006512,-0.998639,-0.856022,-2.933856,9.620422,-0.148376,5.420604,1,0,,38.991460,-76.936612,-9.887000,,,
2026-09-11T17:39:05.310,5.615032,1.973238,10.723273,18.270720,0.000000,83.328855,-28.668184,1.731344,-0.451708,-0.950964,0.538588,5.930279,8.308841,-0.073092,0.007548,-0.949481,4.589120,3.880590,6.514950,0.128063,5.687268,1,0,,38.991460,-76.936612,-9.887000,,,
2026-09-11T17:39:05.344,5.648451,2.002462,10.790573,18.541312,0.000000,83.670118,-28.785591,1.755013,-0.505511,-1.064233,0.504915,5.988736,8.323994,-0.263096,-0.041509,-1.062749,0.732557,0.943988,12.305188,0.150900,5.773250,1,0,,38.991460,-76.936612,-9.887000,,,
2026-09-11T17:39:05.377,5.681861,2.021909,10.858144,18.721381,0.000000,83.816373,-28.835908,1.771202,-0.498636,-1.049761,0.469601,6.048635,8.336746,-0.282512,-0.029883,-1.048277,4.715724,-2.476375,9.091745,0.433207,5.633821,1,0,,38.991460,-76.936612,-9.887000,,,
2026-09-11T17:39:05.410,5.715280,2.041489,10.926611,18.902679,0.000000,83.514936,-28.732203,1.790133,-0.513542,-1.081142,0.433995,6.109544,8.347502,-0.213931,-0.113118,-1.079658,0.206528,-0.204567,10.210978,0.423661,5.649617,1,0,,38.991460,-76.936612,-9.887000,,,
2026-09-11T17:39:05.444,5.748702,2.051693,10.995658,18.997156,0.000000,83.718870,-28.802363,1.797871,-0.558225,-1.175210,0.396289,6.171611,8.355286,-0.293647,-0.244667,-1.173726,1.190723,2.803721,9.328968,0.482918,5.873875,1,0,,38.991460,-76.936612,-9.887000,,,
2026-09-11T17:39:05.477,5.782118,2.061780,11.064431,19.090551,0.000000,83.652265,-28.779449,1.807107,-0.558679,-1.176167,0.357001,6.234475,8.360083,-0.402212,-0.155873,-1.174683,-3.118122,-0.027851,12.364617,0.268401,5.911046,1,0,,38.991460,-76.936612,-9.887000,,,
2026-09-11T17:39:05.511,5.815531,2.033255,11.132292,18.826431,0.000000,83.413999,-28.697477,1.783504,-0.546419,-1.150355,0.318133,6.297180,8.362538,-0.264675,-0.165091,-1.148872,0.142785,-1.991829,12.887802,0.270692,5.814346,1,0,,38.991460,-76.936612,-9.887000,,,
2026-09-11T17:39:05.544,5.848962,2.033670,11.200095,18.830281,0.000000,81.055372,-27.886022,1.797520,-0.555053,-1.168533,0.279373,6.359792,8.362554,-0.181046,-0.055173,-1.167049,0.425903,-2.656523,13.641247,0.294355,5.678356,1,0,,38.991460,-76.936612,-9.887000,,,
2026-09-11T17:39:05.577,5.882374,2.024767,11.267513,18.747844,0.000000,77.177885,-26.552025,1.811213,-0.484272,-1.019520,0.242819,6.422530,8.361344,-0.217022,-0.117669,-1.018037,0.292336,-0.712649,2.885116,0.316186,5.654588,1,0,,38.991460,-76.936612,-9.887000,,,
2026-09-11T17:39:05.611,5.915783,2.005844,11.334163,18.572632,0.000000,74.289854,-25.558436,1.809564,-0.437257,-0.920541,0.210411,6.484930,8.359937,-0.178021,-0.192914,-0.919057,1.536310,-0.849942,11.725027,0.425362,5.610272,1,0,,38.991460,-76.936612,-9.887000,,,
2026-09-11T17:39:05.644,5.949205,1.977422,11.399661,18.309467,0.000000,73.320997,-25.225114,1.788856,-0.405994,-0.854724,0.180745,6.546655,8.357807,-0.125872,-0.185791,-0.853241,0.527107,1.267902,13.828455,0.474022,5.696125,1,0,,38.991460,-76.936612,-9.887000,,,
2026-09-11T17:39:05.678,5.982619,1.938813,11.464652,17.951969,0.000000,72.402265,-24.909036,1.758460,-0.400782,-0.843752,0.152368,6.607328,8.354348,-0.264324,-0.206868,-0.842269,-1.720871,6.037856,10.424861,0.382572,6.090507,1,0,,38.991460,-76.936612,-9.887000,,,
2026-09-11T17:39:05.711,6.016036,1.880447,11.527436,17.411543,0.000000,72.050703,-24.788086,1.707191,-0.406692,-0.856195,0.123965,6.666531,8.348972,-0.127328,-0.052208,-0.854711,-3.024763,7.569949,13.800997,0.211758,6.580087,1,0,,38.991460,-76.936612,-9.887000,,,
2026-09-11T17:39:05.745,6.049475,1.851181,11.589367,17.140569,0.000000,72.467496,-24.931478,1.678675,-0.400080,-0.842273,0.095567,6.724274,8.341773,-0.100891,0.057168,-0.840790,-2.235524,-6.765412,8.867369,0.097858,6.120608,1,0,,38.991460,-76.936612,-9.887000,,,
2026-09-11T17:39:05.778,6.082897,1.812570,11.649636,16.783054,0.000000,73.002393,-25.115502,1.641199,-0.395071,-0.831728,0.067593,6.780645,8.333061,-0.123009,-0.004782,-0.830244,-3.195595,2.116373,18.060221,-0.075483,6.245807,1,0,,38.991460,-76.936612,-9.887000,,,
2026-09-11T17:39:05.811,6.116307,1.793649,11.709365,16.607860,0.000000,74.498594,-25.630250,1.617162,-0.403063,-0.848554,0.039524,6.835704,8.322667,-0.045694,-0.010688,-0.847071,-2.063613,1.957211,12.480531,-0.171819,6.359657,1,0,,38.991460,-76.936612,-9.887000,,,
2026-09-11T17:39:05.845,6.149738,1.735661,11.767677,16.070938,0.000000,76.947172,-26.472651,1.553672,-0.394661,-0.830865,0.011452,6.889025,8.310704,-0.063118,-0.048500,-0.829382,2.727327,-1.997517,9.896871,0.046371,6.207537,1,0,,38.991460,-76.936612,-9.887000,,,
2026-09-11T17:39:05.878,6.183153,1.735958,11.825744,16.073686,0.000000,78.407667,-26.975115,1.547092,-0.411373,-0.866048,-0.016899,6.940785,8.297099,-0.080079,0.002505,-0.864564,-0.782571,-2.651718,10.469776,0.035538,6.017582,1,0,,38.991460,-76.936612,-9.887000,,,
2026-09-11T17:39:05.912,6.216566,1.687786,11.882182,15.627649,0.000000,80.126340,-27.566402,1.496180,-0.402811,-0.848023,-0.045536,6.991176,8.281930,-0.096033,-0.084474,-0.846539,2.326334,1.131491,12.669898,0.224276,6.073005,1,0,,38.991460,-76.936612,-9.887000,,,
2026-09-11T17:39:05.945,6.250001,1.678669,11.938614,15.543234,0.000000,81.436460,-28.017131,1.481941,-0.415750,-0.875264,-0.074345,7.040045,8.265294,-0.127755,0.087226,-0.873780,0.702843,-0.568393,11.037679,0.301333,6.018252,1,0,,38.991460,-76.936612,-9.887000,,,
2026-09-11T17:39:05.979,6.283424,1.659758,11.993588,15.368132,0.000000,84.495466,-29.069541,1.450680,-0.402847,-0.848098,-0.103145,7.087647,8.247333,-0.105804,0.065461,-0.846614,-0.323718,1.501790,5.977447,0.304406,6.095434,1,0,,38.991460,-76.936612,-9.887000,,,
2026-09-11T17:39:06.012,6.316840,1.611814,12.047729,14.924200,0.000000,85.206144,-29.314040,1.405420,-0.419478,-0.883111,-0.132069,7.133417,8.228103,-0.137320,0.133524,-0.881628,-1.072161,-2.941112,9.281308,0.254511,5.881353,1,0,,38.991460,-76.936612,-9.887000,,,
2026-09-11T17:39:06.045,6.350261,1.631845,12.102465,15.109674,0.000000,85.760954,-29.504915,1.420216,-0.399445,-0.840936,-0.160879,7.178132,8.207671,-0.170213,-0.099730,-0.839453,0.208587,-2.655935,9.615715,0.286102,5.685340,1,0,,38.991460,-76.936612,-9.887000,,,
2026-09-11T17:39:06.079,6.383674,1.612835,12.156120,14.933657,0.000000,85.397718,-29.379949,1.405401,-0.406102,-0.854952,-0.189212,7.222268,8.186203,-0.210910,-0.035074,-0.853468,1.958780,-2.800093,5.815147,0.427332,5.482684,1,1,6.386656,38.991464,-76.936595,-9.817000,5.450551,9.989752,2.788092
2026-09-11T17:39:06.112,6.417092,1.583687,12.209529,14.663766,0.000000,85.366132,-29.369082,1.380149,-0.380757,-0.801594,-0.216891,7.265207,8.163947,-0.143728,-0.078381,-0.800111,-1.983493,-6.730304,11.001787,0.310067,5.019196,1,0,,38.991464,-76.936595,-9.817000,,,
2026-09-11T17:39:06.146,6.450513,1.573873,12.261923,14.572897,0.000000,84.906767,-29.211044,1.373720,-0.383777,-0.807952,-0.243788,7.307089,8.141005,-0.144229,0.016906,-0.806468,-2.031448,1.829038,13.052063,0.189907,5.120748,1,0,,38.991464,-76.936595,-9.817000,,,
2026-09-11T17:39:06.179,6.483949,1.544966,12.312856,14.305240,0.000000,83.328168,-28.667948,1.355576,-0.360325,-0.758580,-0.269976,7.348062,8.117386,-0.138832,0.050073,-0.757096,-1.017930,-3.676219,10.452712,0.134634,4.855914,1,0,,38.991464,-76.936595,-9.817000,,,
2026-09-11T17:39:06.213,6.517369,1.535605,12.363997,14.218568,0.000000,79.727399,-27.429151,1.362974,-0.339458,-0.714649,-0.294594,7.388434,8.093501,-0.158836,-0.201331,-0.713166,0.790122,-2.789796,5.631959,0.195741,4.648635,1,0,,38.991464,-76.936595,-9.817000,,,
2026-09-11T17:39:06.246,6.550879,1.526227,12.414794,14.131733,0.000000,73.737104,-25.368270,1.379057,-0.320947,-0.675677,-0.317889,7.428904,8.069097,-0.100618,-0.150106,-0.674194,-1.732933,4.433979,10.714452,0.089392,4.913443,1,0,,38.991464,-76.936595,-9.817000,,,
2026-09-11T17:39:06.279,6.584299,1.507169,12.465017,13.955272,0.000000,72.485349,-24.937620,1.366652,-0.310236,-0.653128,-0.340094,7.468916,8.044295,-0.028793,-0.045641,-0.651644,2.119904,1.310070,11.641278,0.233034,4.968017,1,0,,38.991464,-76.936595,-9.817000,,,
2026-09-11T17:39:06.313,6.617715,1.478203,12.514338,13.687066,0.000000,70.449445,-24.237195,1.347905,-0.279773,-0.588996,-0.360847,7.508134,8.019467,-0.058738,-0.154019,-0.587512,-0.157593,1.416865,12.625670,0.228238,5.022518,1,0,,38.991464,-76.936595,-9.817000,,,
2026-09-11T17:39:06.346,6.651130,1.449737,12.562788,13.423492,0.000000,68.199308,-23.463065,1.329868,-0.263746,-0.555254,-0.379965,7.546553,7.994810,-0.039782,0.057905,-0.553771,0.134449,-1.201707,5.958226,0.239857,4.901689,1,0,,38.991464,-76.936595,-9.817000,,,
2026-09-11T17:39:06.379,6.684547,1.421190,12.610317,13.159167,0.000000,67.687070,-23.286836,1.305416,-0.266450,-0.560948,-0.398615,7.583927,7.969907,-0.114772,-0.075877,-0.559465,-5.250677,-3.979244,7.389703,-0.099778,4.600449,1,0,,38.991464,-76.936595,-9.817000,,,
2026-09-11T17:39:06.413,6.717961,1.402463,12.657380,12.985764,0.000000,67.436445,-23.200612,1.289047,-0.264725,-0.557316,-0.417298,7.620195,7.944568,-0.090713,-0.097110,-0.555833,-2.774203,2.692318,11.257152,-0.277520,4.737317,1,0,,38.991464,-76.936595,-9.817000,,,
2026-09-11T17:39:06.447,6.751375,1.383717,12.704508,12.812199,0.000000,67.483137,-23.216675,1.271665,-0.265442,-0.558825,-0.435945,7.655476,7.918805,-0.071791,-0.160439,-0.557341,-0.437867,2.117648,12.805230,-0.306304,4.834670,1,0,,38.991464,-76.936595,-9.817000,,,
2026-09-11T17:39:06.480,6.784799,1.374717,12.750693,12.728859,0.000000,67.601926,-23.257543,1.263006,-0.265272,-0.558467,-0.454617,7.689884,7.892558,-0.093155,-0.035905,-0.556983,-0.602913,0.753935,7.327137,-0.347444,4.841539,1,0,,38.991464,-76.936595,-9.817000,,,
2026-09-11T17:39:06.514,6.818212,1.355853,12.796974,12.554194,0.000000,67.945249,-23.375659,1.244569,-0.247358,-0.520754,-0.472647,7.723527,7.866166,-0.089986,-0.035226,-0.519271,-1.322427,-7.270356,7.760591,-0.436175,4.320803,1,0,,38.991464,-76.936595,-9.817000,,,
2026-09-11T17:39:06.547,6.851628,1.356310,12.842799,12.558425,0.000000,67.603986,-23.258252,1.246088,-0.247071,-0.520148,-0.490038,7.756586,7.839578,0.046135,-0.112148,-0.518665,2.424498,2.759395,5.899288,-0.288078,4.460481,1,0,,38.991464,-76.936595,-9.817000,,,
2026-09-11T17:39:06.581,6.885048,1.346659,12.887642,12.469063,0.000000,68.012540,-23.398810,1.235913,-0.266046,-0.560098,-0.508089,7.788895,7.812204,0.046471,-0.092373,-0.558614,0.401190,2.629261,14.547969,-0.279388,4.593053,1,0,,38.991464,-76.936595,-9.817000,,,
2026-09-11T17:39:06.614,6.918462,1.356194,12.932354,12.557351,0.000000,67.807233,-23.328177,1.245327,-0.255115,-0.537083,-0.526420,7.820620,7.784137,0.077707,-0.123249,-0.535600,0.532305,-0.518674,12.451013,-0.267627,4.517143,1,0,,38.991464,-76.936595,-9.817000,,,
2026-09-11T17:39:06.647,6.951875,1.356457,12.977984,12.559785,0.000000,68.030393,-23.404952,1.244848,-0.259033,-0.545332,-0.544503,7.852015,7.755523,0.178648,0.043161,-0.543848,1.112466,0.341958,10.894306,-0.224448,4.498904,1,0,,38.991464,-76.936595,-9.817000,,,
2026-09-11T17:39:06.681,6.985292,1.366438,13.023942,12.652207,0.000000,67.898557,-23.359595,1.254437,-0.251690,-0.529873,-0.562468,7.883052,7.726313,0.184864,-0.027451,-0.528390,-0.348528,3.118417,13.528764,-0.281953,4.661189,1,0,,38.991464,-76.936595,-9.817000,,,
2026-09-11T17:39:06.714,7.018706,1.415408,13.071213,13.105627,0.000000,68.066785,-23.417472,1.298826,-0.267172,-0.562468,-0.580718,7.914232,7.695943,0.116772,-0.076337,-0.560984,7.369501,5.825150,11.535072,0.158053,5.002853,1,0,,38.991464,-76.936595,-9.817000,,,
2026-09-11T17:39:06.747,7.052118,1.425690,13.118646,13.200834,0.000000,67.953489,-23.378494,1.308646,-0.287281,-0.604803,-0.600218,7.945255,7.663998,0.142663,0.036122,-0.603319,0.980861,-2.989950,7.937699,0.178510,4.768932,1,0,,38.991464,-76.936595,-9.817000,,,
2026-09-11T17:39:06.781,7.085538,1.445244,13.167539,13.381889,0.000000,68.143690,-23.443930,1.325939,-0.277541,-0.584296,-0.620089,7.975926,7.631035,0.106842,0.000867,-0.582813,-0.970760,-3.223152,10.355725,0.072706,4.521353,1,0,,38.991464,-76.936595,-9.817000,,,
2026-09-11T17:39:06.814,7.118951,1.503699,13.218296,13.923135,0.000000,68.162229,-23.450308,1.379501,-0.283043,-0.595879,-0.639805,8.006925,7.596836,0.063620,0.050908,-0.594395,1.794421,-3.916776,10.428098,0.147697,4.234556,1,0,,38.991464,-76.936595,-9.817000,,,
2026-09-11T17:39:06.848,7.152368,1.523603,13.269399,14.107437,0.000000,68.827589,-23.679216,1.395328,-0.287855,-0.606011,-0.659887,8.038062,7.561189,0.073481,-0.081504,-0.604528,-0.533776,2.650738,10.696604,0.071062,4.380958,1,0,,38.991464,-76.936595,-9.817000,,,
2026-09-11T17:39:06.881,7.185791,1.553309,13.321909,14.382495,0.000000,69.676283,-23.971198,1.419336,-0.336988,-0.709448,-0.681870,8.068402,7.523773,-0.065649,-0.027881,-0.707965,-1.491101,1.439518,5.434551,-0.067480,4.457278,1,0,,38.991464,-76.936595,-9.817000,,,
2026-09-11T17:39:06.915,7.219212,1.592384,13.375402,14.744300,0.000000,71.635282,-24.645166,1.447330,-0.323736,-0.681549,-0.705114,8.098179,7.484658,-0.068873,-0.051619,-0.680065,-0.620859,-1.428927,7.624671,-0.149258,4.344203,1,0,,38.991464,-76.936595,-9.817000,,,
2026-09-11T17:39:06.949,7.252632,1.621996,13.429233,15.018479,0.000000,71.830976,-24.712492,1.473449,-0.351068,-0.739091,-0.728853,8.127550,7.444089,-0.048987,0.034069,-0.737608,0.315382,1.128255,14.668885,-0.165791,4.405959,1,0,,38.991464,-76.936595,-9.817000,,,
2026-09-11T17:39:06.981,7.286054,1.612748,13.483452,14.932852,0.000000,72.973554,-25.105581,1.460388,-0.360282,-0.758487,-0.753879,8.155681,7.402220,-0.062003,-0.031452,-0.757004,1.288888,-4.003565,6.902705,-0.114983,4.133407,1,0,,38.991464,-76.936595,-9.817000,,,
2026-09-11T17:39:07.014,7.319468,1.622649,13.537450,15.024528,0.000000,73.658140,-25.341103,1.466511,-0.359193,-0.756195,-0.779185,8.182564,7.359645,-0.036967,0.096226,-0.754712,3.436741,-1.525719,5.980389,0.077075,4.025701,1,0,,38.991464,-76.936595,-9.817000,,,
2026-09-11T17:39:07.048,7.352891,1.593598,13.590953,14.755534,0.000000,73.924558,-25.432761,1.439162,-0.356883,-0.751332,-0.804378,8.208166,7.316691,-0.053001,0.088216,-0.749848,-3.594922,-8.008601,6.806502,-0.181535,3.494913,1,0,,38.991464,-76.936595,-9.817000,,,
2026-09-11T17:39:07.082,7.386307,1.603043,13.645477,14.842994,0.000000,73.970564,-25.448588,1.447502,-0.337198,-0.709891,-0.828792,8.232738,7.273598,0.012616,0.050631,-0.708407,0.842293,2.784108,3.472241,-0.142996,3.669814,1,1,7.386349,38.991459,-76.936582,-9.847000,6.563419,9.397269,2.788092
2026-09-11T17:39:07.115,7.419723,1.593727,13.697852,14.756729,0.000000,73.621748,-25.328583,1.440521,-0.358879,-0.755535,-0.853276,8.256236,7.229888,-0.038281,-0.096713,-0.754051,-3.615025,1.760490,7.902983,-0.389385,3.780092,1,0,,38.991459,-76.936582,-9.847000,,,
2026-09-11T17:39:07.148,7.453144,1.623178,13.752300,15.029422,0.000000,73.272932,-25.208577,1.468592,-0.357653,-0.752954,-0.878484,8.278610,7.185101,0.014253,-0.058392,-0.751470,1.134139,5.557036,15.628662,-0.321117,4.137893,1,0,,38.991459,-76.936582,-9.847000,,,
2026-09-11T17:39:07.182,7.486564,1.614173,13.806017,14.946048,0.000000,71.736906,-24.680128,1.466723,-0.330007,-0.694751,-0.902675,8.300528,7.139742,-0.003877,-0.068717,-0.693267,-0.776687,1.408823,14.958770,-0.374898,4.215639,1,0,,38.991459,-76.936582,-9.847000,,,
2026-09-11T17:39:07.215,7.520083,1.604636,13.860183,14.857745,0.000000,70.110242,-24.120496,1.464532,-0.307974,-0.648367,-0.925185,8.322061,7.094308,0.075466,0.021987,-0.646883,-0.036775,3.072914,13.371662,-0.383391,4.397128,1,0,,38.991459,-76.936582,-9.847000,,,
2026-09-11T17:39:07.251,7.553510,1.595214,13.913608,14.770504,0.000000,69.946134,-24.064037,1.456575,-0.316269,-0.665830,-0.947150,8.342604,7.048812,0.048598,0.035824,-0.664347,0.383636,-0.426687,8.184434,-0.368965,4.349040,1,0,,38.991459,-76.936582,-9.847000,,,
2026-09-11T17:39:07.282,7.586929,1.586009,13.965960,14.685264,0.000000,70.098569,-24.116480,1.447576,-0.307173,-0.646679,-0.969081,8.361988,7.003124,-0.006437,-0.112196,-0.645196,1.731070,1.774317,9.810279,-0.273387,4.442927,1,0,,38.991459,-76.936582,-9.847000,,,
2026-09-11T17:39:07.316,7.620343,1.567104,14.018131,14.510218,0.000000,71.091459,-24.458071,1.426479,-0.323134,-0.680281,-0.991251,8.379982,6.957383,-0.043034,-0.061627,-0.678798,-0.305085,-3.758203,4.991389,-0.316376,4.177054,1,0,,38.991459,-76.936582,-9.847000,,,
2026-09-11T17:39:07.349,7.653760,1.548102,14.070045,14.334274,0.000000,71.688154,-24.663356,1.406876,-0.302051,-0.635896,-1.013242,8.396673,6.911867,0.067094,-0.096432,-0.634413,1.506203,3.312588,5.642943,-0.249084,4.370459,1,0,,38.991459,-76.936582,-9.847000,,,
2026-09-11T17:39:07.382,7.687182,1.548470,14.120809,14.337685,0.000000,72.069929,-24.794700,1.405726,-0.332830,-0.700695,-1.035578,8.412026,6.866204,0.068322,-0.022713,-0.699211,-0.073060,6.287141,8.190808,-0.291419,4.761985,1,0,,38.991459,-76.936582,-9.847000,,,
2026-09-11T17:39:07.415,7.720595,1.529498,14.172042,14.162015,0.000000,72.400892,-24.908564,1.387225,-0.327282,-0.689015,-1.058795,8.425809,6.820286,-0.037252,-0.086659,-0.687531,1.875914,1.867775,7.775791,-0.211901,4.858760,1,0,,38.991459,-76.936582,-9.847000,,,
2026-09-11T17:39:07.449,7.754006,1.568992,14.224625,14.527704,0.000000,72.378919,-24.901004,1.423133,-0.337215,-0.709927,-1.082165,8.438582,6.773767,-0.076724,-0.015203,-0.708443,2.305543,-6.523874,7.401765,-0.106501,4.410166,1,0,,38.991459,-76.936582,-9.847000,,,
2026-09-11T17:39:07.483,7.787430,1.598338,14.277564,14.799430,0.000000,72.512815,-24.947069,1.449210,-0.336864,-0.709187,-1.105882,8.450597,6.725949,0.014274,-0.040839,-0.707704,3.223446,3.439192,5.054740,0.058765,4.618092,1,0,,38.991459,-76.936582,-9.847000,,,
2026-09-11T17:39:07.516,7.820870,1.637126,14.332180,15.158577,0.000000,72.440717,-24.922265,1.484678,-0.344543,-0.725353,-1.129867,8.461811,6.676858,-0.081797,-0.139542,-0.723870,0.377948,-4.134484,6.640769,0.034683,4.332365,1,0,,38.991459,-76.936582,-9.847000,,,
2026-09-11T17:39:07.549,7.854283,1.676172,14.388443,15.520108,0.000000,72.688596,-25.007545,1.519034,-0.360729,-0.759429,-1.154673,8.471937,6.626321,-0.049670,0.006673,-0.757945,0.646258,1.686548,10.614032,0.025338,4.434881,1,0,,38.991459,-76.936582,-9.847000,,,
2026-09-11T17:39:07.583,7.887707,1.715345,14.445315,15.882826,0.000000,72.620618,-24.984158,1.554831,-0.352504,-0.742114,-1.179766,8.481142,6.574397,-0.019331,0.038173,-0.740630,3.550694,-4.471734,5.395227,0.205660,4.134453,1,0,,38.991459,-76.936582,-9.847000,,,
2026-09-11T17:39:07.616,7.921118,1.803089,14.505771,16.695267,0.000000,72.484663,-24.937384,1.634985,-0.390340,-0.821768,-1.205892,8.489253,6.520296,-0.114182,0.073693,-0.820285,-0.976448,-1.681546,7.570047,0.092396,4.031879,1,0,,38.991459,-76.936582,-9.847000,,,
2026-09-11T17:39:07.649,7.954531,1.851894,14.567963,17.147169,0.000000,72.435224,-24.920375,1.679472,-0.413350,-0.870211,-1.234159,8.495659,6.463688,-0.306014,-0.164617,-0.868728,0.126015,2.602097,7.776281,0.049879,4.217440,1,0,,38.991459,-76.936582,-9.847000,,,
2026-09-11T17:39:07.683,7.987955,1.910593,14.631840,17.690674,0.000000,72.099455,-24.804858,1.734325,-0.390935,-0.823020,-1.262456,8.500980,6.405315,-0.067256,-0.246743,-0.821537,-1.586912,9.016724,-1.386856,-0.102112,4.817729,1,0,,38.991459,-76.936582,-9.847000,,,
2026-09-11T17:39:07.716,8.021370,1.862704,14.693315,17.247255,0.000000,71.962812,-24.757848,1.691495,-0.377174,-0.794050,-1.289473,8.505342,6.346824,-0.129625,0.040502,-0.792567,3.850581,-9.539223,14.436272,0.105521,4.194605,1,0,,38.991459,-76.936582,-9.847000,,,
2026-09-11T17:39:07.750,8.054783,1.862967,14.756335,17.249694,0.000000,70.180967,-24.144828,1.699984,-0.350489,-0.737871,-1.315066,8.508653,6.288968,-0.150309,-0.104775,-0.736387,1.063629,2.554927,0.442574,0.137357,4.361839,1,0,,38.991459,-76.936582,-9.847000,,,
2026-09-11T17:39:07.784,8.088205,1.873147,14.819344,17.343953,0.000000,66.460035,-22.864691,1.725964,-0.316987,-0.667341,-1.338549,8.511656,6.230714,-0.101127,-0.216949,-0.665858,0.743246,0.955070,4.929313,0.153687,4.416202,1,0,,38.991459,-76.936582,-9.847000,,,
2026-09-11T17:39:07.816,8.121625,1.844478,14.880507,17.078500,0.000000,62.799528,-21.605342,1.714889,-0.335076,-0.705422,-1.361487,8.513617,6.172236,-0.428745,-0.343623,-0.703939,1.277022,-3.866076,4.825460,0.210771,4.159178,1,0,,38.991459,-76.936582,-9.847000,,,
2026-09-11T17:39:07.850,8.155038,1.776985,14.939822,16.453565,0.000000,60.503385,-20.815385,1.661002,-0.291087,-0.612814,-1.383511,8.514483,6.114878,-0.102155,-0.054010,-0.611330,2.114804,8.143442,2.216107,0.332777,4.676084,1,0,,38.991459,-76.936582,-9.847000,,,
2026-09-11T17:39:07.883,8.188457,1.777003,14.999250,16.453732,0.000000,57.481458,-19.775731,1.672203,-0.260134,-0.547652,-1.402902,8.515255,6.058428,-0.050822,-0.050935,-0.546168,-0.357354,-0.162006,8.612102,0.308837,4.638638,1,0,,38.991459,-76.936582,-9.847000,,,
2026-09-11T17:39:07.916,8.221865,1.757641,15.057977,16.274453,0.000000,52.803342,-18.166288,1.670032,-0.258650,-0.544527,-1.421145,8.515526,6.001933,-0.085962,-0.010964,-0.543043,-0.717553,-10.045834,6.603896,0.278762,3.956580,1,0,,38.991459,-76.936582,-9.847000,,,
2026-09-11T17:39:07.951,8.255279,1.747994,15.116856,16.185125,0.000000,48.267362,-16.605744,1.675092,-0.273180,-0.575115,-1.439851,8.514542,5.945358,-0.086892,0.018218,-0.573632,2.586210,10.322088,4.790058,0.472299,4.614145,1,0,,38.991459,-76.936582,-9.847000,,,
2026-09-11T17:39:07.984,8.288703,1.709492,15.173537,15.828633,0.000000,48.257749,-16.602437,1.638224,-0.258716,-0.544664,-1.458565,8.512441,5.889317,-0.049409,0.004618,-0.543181,2.422243,10.683070,10.885186,0.654232,5.284592,1,0,,38.991459,-76.936582,-9.847000,,,
2026-09-11T17:39:08.017,8.322117,1.700209,15.230530,15.742678,0.000000,47.790830,-16.441799,1.630684,-0.226497,-0.476835,-1.475631,8.510033,5.834155,-0.028199,0.080778,-0.475352,-2.139027,-5.820835,11.503299,0.543946,4.861503,1,0,,38.991459,-76.936582,-9.847000,,,
2026-09-11T17:39:08.050,8.355531,1.690868,15.286740,15.656189,0.000000,47.788770,-16.441091,1.621731,-0.221276,-0.465844,-1.491381,8.507319,5.779372,-0.108678,0.039261,-0.464361,3.460767,0.690388,12.986555,0.800834,4.867198,1,0,,38.991459,-76.936582,-9.847000,,,
2026-09-11T17:39:08.084,8.388961,1.671777,15.342295,15.479420,0.000000,48.337400,-16.629839,1.601853,-0.251327,-0.529111,-1.508011,8.503270,5.725073,-0.265062,-0.055781,-0.527627,-0.529167,3.720839,4.735239,0.793248,5.076947,1,1,8.387863,38.991447,-76.936574,-9.889000,7.207143,8.101477,3.717715
2026-09-11T17:39:08.117,8.422378,1.633506,15.396386,15.125056,0.000000,49.501264,-17.030251,1.561877,-0.254253,-0.535269,-1.525795,8.497688,5.671836,-0.213986,-0.092386,-0.533786,1.732443,0.783355,4.228137,0.931471,5.091599,1,0,,38.991447,-76.936574,-9.889000,,,
2026-09-11T17:39:08.151,8.455791,1.556269,15.448328,14.409896,0.000000,49.460065,-17.016078,1.488140,-0.219844,-0.462829,-1.542470,8.491651,5.620622,-0.117130,0.106647,-0.461345,2.371444,3.992189,13.953588,1.111307,5.306238,1,0,,38.991447,-76.936574,-9.889000,,,
2026-09-11T17:39:08.184,8.489214,1.460200,15.496917,13.520367,0.000000,48.227537,-16.592042,1.399400,-0.196525,-0.413736,-1.557119,8.485719,5.572229,-0.204939,0.119868,-0.412253,0.299299,-1.839826,10.468109,1.153928,5.129998,1,0,,38.991447,-76.936574,-9.889000,,,
2026-09-11T17:39:08.217,8.522631,1.402688,15.543497,12.987855,0.000000,44.317777,-15.246942,1.353316,-0.147260,-0.310022,-1.569212,8.480331,5.526190,0.108884,0.021155,-0.308538,0.265956,-3.761341,2.794307,1.189346,4.819882,1,0,,38.991447,-76.936574,-9.889000,,,
2026-09-11T17:39:08.252,8.556043,1.383824,15.590363,12.813189,0.000000,37.779539,-12.997548,1.348370,-0.164213,-0.345712,-1.580167,8.474952,5.481077,-0.056687,-0.009465,-0.344228,-0.841018,11.419942,9.689265,1.144818,5.508500,1,0,,38.991447,-76.936574,-9.889000,,,
2026-09-11T17:39:08.285,8.589467,1.335915,15.634145,12.369585,0.000000,33.366468,-11.479289,1.309192,-0.104572,-0.220152,-1.589623,8.469838,5.436728,0.106964,0.000147,-0.218668,0.438161,10.038676,1.447462,1.176905,6.088725,1,0,,38.991447,-76.936574,-9.889000,,,
2026-09-11T17:39:08.318,8.622886,1.326345,15.678122,12.280973,0.000000,26.873548,-9.245487,1.309115,-0.082997,-0.174730,-1.596222,8.465736,5.393056,0.160558,0.152697,-0.173247,-0.199173,7.606430,6.366085,1.161720,6.499831,1,0,,38.991447,-76.936574,-9.889000,,,
2026-09-11T17:39:08.351,8.656305,1.307102,15.721884,12.102793,0.000000,21.520460,-7.403828,1.296204,-0.072918,-0.153511,-1.601706,8.461907,5.349613,0.047659,-0.042749,-0.152027,0.599775,-0.077669,5.887128,1.189574,6.400461,1,0,,38.991447,-76.936574,-9.889000,,,
2026-09-11T17:39:08.385,8.689728,1.288022,15.764415,11.926130,0.000000,21.322706,-7.335793,1.277479,-0.067011,-0.141076,-1.606629,8.458135,5.306704,0.021115,0.077153,-0.139593,0.139451,-6.314012,3.982284,1.172421,5.892168,1,0,,38.991447,-76.936574,-9.889000,,,
2026-09-11T17:39:08.418,8.723140,1.288200,15.807294,11.927777,0.000000,21.333692,-7.339573,1.277645,-0.086758,-0.182649,-1.612037,8.453924,5.264151,0.101896,-0.058484,-0.181166,1.778338,2.224148,7.899747,1.243508,5.952706,1,0,,38.991447,-76.936574,-9.889000,,,
2026-09-11T17:39:08.451,8.756554,1.307924,15.851214,12.110408,0.000000,21.403043,-7.363432,1.297138,-0.084813,-0.178553,-1.618072,8.449156,5.221303,-0.009677,-0.114478,-0.177069,2.119217,-1.272511,8.151778,1.322101,5.783453,1,0,,38.991447,-76.936574,-9.889000,,,
2026-09-11T17:39:08.485,8.789978,1.327567,15.895837,12.292290,0.000000,21.417463,-7.368393,1.316604,-0.054865,-0.115505,-1.622986,8.444652,5.177791,-0.149602,0.075914,-0.114022,1.035680,-7.983005,4.436332,1.321837,5.171835,1,0,,38.991447,-76.936574,-9.889000,,,
2026-09-11T17:39:08.518,8.823390,1.386060,15.942101,12.833885,0.000000,21.404417,-7.363905,1.374627,-0.100883,-0.212384,-1.628464,8.439583,5.133044,0.058017,0.004006,-0.210901,-0.535051,3.489893,11.941754,1.211890,5.326821,1,0,,38.991447,-76.936574,-9.889000,,,
2026-09-11T17:39:08.552,8.856805,1.415245,15.989976,13.104124,0.000000,21.031568,-7.235631,1.403975,-0.069022,-0.145309,-1.634440,8.433934,5.086877,0.069071,0.092925,-0.143825,0.824543,-2.208948,11.188898,1.184864,5.101752,1,0,,38.991447,-76.936574,-9.889000,,,
2026-09-11T17:39:08.585,8.890223,1.444683,16.037925,13.376690,0.000000,21.067274,-7.247915,1.433139,-0.042658,-0.089806,-1.638369,8.428963,5.039695,-0.129217,-0.152423,-0.088322,2.288676,-7.354105,7.188765,1.250273,4.538351,1,0,,38.991447,-76.936574,-9.889000,,,
2026-09-11T17:39:08.618,8.923639,1.493626,16.088305,13.829875,0.000000,21.318586,-7.334376,1.481406,-0.123966,-0.260981,-1.644230,8.422754,4.991320,-0.000742,-0.006801,-0.259498,2.967002,6.040308,4.916270,1.354348,4.872884,1,0,,38.991447,-76.936574,-9.889000,,,
2026-09-11T17:39:08.652,8.957054,1.562465,16.140648,14.467270,0.000000,21.189497,-7.289964,1.549835,-0.072246,-0.152096,-1.651131,8.415591,4.941075,-0.047212,-0.141377,-0.150613,4.777113,-0.807185,9.853232,1.573796,4.746692,1,0,,38.991447,-76.936574,-9.889000,,,
2026-09-11T17:39:08.685,8.990475,1.611433,16.194679,14.920676,0.000000,20.921705,-7.197834,1.598734,-0.079566,-0.167508,-1.656472,8.408699,4.888854,0.066496,-0.112909,-0.166024,3.621302,-0.252619,12.373345,1.719969,4.660221,1,0,,38.991447,-76.936574,-9.889000,,,
2026-09-11T17:39:08.719,9.023884,1.641062,16.249376,15.195019,0.000000,20.564649,-7.074994,1.628567,-0.067187,-0.141446,-1.661633,8.401504,4.835368,-0.023767,0.047213,-0.139963,3.310333,-3.068109,6.998614,1.850026,4.388590,1,0,,38.991447,-76.936574,-9.889000,,,
2026-09-11T17:39:08.752,9.057297,1.680525,16.305925,15.560415,0.000000,19.743421,-6.792461,1.668729,-0.081073,-0.170679,-1.666847,8.393896,4.780755,-0.013064,-0.014663,-0.169196,4.179300,2.341730,5.679325,2.042825,4.476555,1,0,,38.991447,-76.936574,-9.889000,,,
2026-09-11T17:39:08.786,9.090718,1.719574,16.363988,15.921982,0.000000,19.387052,-6.669857,1.707936,-0.088343,-0.185985,-1.672807,8.385498,4.724886,-0.047379,0.040032,-0.184501,0.398052,-2.551200,-1.922496,1.996477,4.246397,1,0,,38.991447,-76.936574,-9.889000,,,
2026-09-11T17:39:08.819,9.124131,1.738960,16.422337,16.101486,0.000000,19.100034,-6.571113,1.727537,-0.095294,-0.200619,-1.679266,8.376417,4.668131,0.081548,0.192659,-0.199136,1.846690,5.570962,9.830873,2.053719,4.550666,1,0,,38.991447,-76.936574,-9.889000,,,
2026-09-11T17:39:08.852,9.157549,1.748616,16.480706,16.190888,0.000000,19.652097,-6.761043,1.736456,-0.074575,-0.156999,-1.685241,8.367158,4.610927,-0.140463,-0.174214,-0.155516,-4.016902,-4.273836,7.192295,1.739013,4.204363,1,0,,38.991447,-76.936574,-9.889000,,,
2026-09-11T17:39:08.886,9.190950,1.778417,16.540114,16.466828,0.000000,19.632871,-6.754428,1.766074,-0.093162,-0.196130,-1.691139,8.357524,4.553164,0.046247,0.038448,-0.194646,-2.119609,-12.922713,10.377888,1.559580,3.304001,1,0,,38.991447,-76.936574,-9.889000,,,
2026-09-11T17:39:08.919,9.224394,1.739997,16.598145,16.111087,0.000000,18.638609,-6.412365,1.729112,-0.056480,-0.118906,-1.696407,8.347873,4.495465,0.048753,0.182936,-0.117422,2.296325,-4.413679,3.666706,1.678259,2.958649,1,0,,38.991447,-76.936574,-9.889000,,,
2026-09-11T17:39:08.953,9.257801,1.730967,16.656620,16.027476,0.000000,14.601133,-5.023326,1.724319,-0.040179,-0.084587,-1.699806,8.338947,4.438452,-0.016544,-0.062160,-0.083103,0.303025,-0.221434,12.967235,1.673943,2.886399,1,0,,38.991447,-76.936574,-9.889000,,,
2026-09-11T17:39:08.986,9.291208,1.682484,16.712054,15.578560,0.000000,8.849790,-3.044653,1.680110,-0.028603,-0.060217,-1.702225,8.330425,4.382215,0.055928,0.161936,-0.058733,-3.641601,12.884369,10.484584,1.421278,3.664940,1,0,,38.991447,-76.936574,-9.889000,,,
2026-09-11T17:39:09.019,9.324613,1.682823,16.768048,15.581696,0.000000,8.827131,-3.036857,1.680460,-0.010016,-0.021087,-1.703583,8.322392,4.326659,-0.201796,-0.167789,-0.019603,1.523169,-4.014156,6.791203,1.513006,3.330676,1,0,,38.991447,-76.936574,-9.889000,,,
2026-09-11T17:39:09.053,9.358014,1.644916,16.822785,15.230705,0.000000,6.053078,-2.082481,1.643830,-0.013324,-0.028050,-1.704403,8.314633,4.271686,-0.062346,-0.107720,-0.026567,0.292042,-2.279360,9.117537,1.527939,3.113897,1,0,,38.991447,-76.936574,-9.889000,,,
2026-09-11T17:39:09.086,9.391422,1.596736,16.876207,14.784597,0.000000,1.903679,-0.654935,1.596632,-0.007278,-0.015323,-1.705128,8.307062,4.218089,0.248581,0.093158,-0.013840,-2.621023,-2.749589,7.501499,1.356067,2.867576,1,0,,38.991447,-76.936574,-9.889000,,,
2026-09-11T17:39:09.120,9.424835,1.587997,16.929374,14.703679,0.000000,-3.016823,1.037898,1.587737,0.021634,0.045545,-1.704623,8.300188,4.165334,0.086826,-0.049840,0.047028,-1.178759,-8.531786,2.038508,1.281721,2.241961,1,1,9.398681,38.991434,-76.936572,-9.955000,7.434586,6.648159,2.928944
2026-09-11T17:39:09.153,9.458240,1.578558,16.982598,14.616275,0.000000,-2.760704,0.949784,1.578341,-0.005644,-0.011881,-1.704061,8.293412,4.112888,0.213409,0.034352,-0.010398,1.130020,2.171290,13.777853,1.356486,2.324902,1,0,,38.991434,-76.936572,-9.955000,,,
2026-09-11T17:39:09.186,9.491638,1.549936,17.033650,14.351257,0.000000,-2.453774,0.844188,1.549767,-0.005225,-0.011000,-1.704443,8.286281,4.061140,0.184612,-0.045400,-0.009517,2.749098,7.341160,7.471981,1.531042,2.742745,1,0,,38.991434,-76.936572,-9.955000,,,
2026-09-11T17:39:09.220,9.525041,1.540376,17.084657,14.262737,0.000000,-0.627296,0.215813,1.540365,0.008703,0.018322,-1.704320,8.279465,4.009982,0.187121,-0.042179,0.019805,1.100404,-3.902851,5.466227,1.591411,2.422370,1,0,,38.991434,-76.936572,-9.955000,,,
2026-09-11T17:39:09.253,9.558462,1.510792,17.134675,13.988814,0.000000,2.001869,-0.688716,1.510683,-0.033007,-0.069488,-1.705175,8.272254,3.959508,0.099936,0.005145,-0.068004,-4.906463,0.322247,9.888438,1.256607,2.388777,1,0,,38.991434,-76.936572,-9.955000,,,
2026-09-11T17:39:09.286,9.591868,1.510590,17.184740,13.986945,0.000000,7.309639,-2.514784,1.509135,-0.053409,-0.112440,-1.708214,8.263990,3.909731,0.012246,0.085964,-0.110957,-0.375006,-7.037154,0.642630,1.214717,1.881832,1,0,,38.991434,-76.936572,-9.955000,,,
2026-09-11T17:39:09.320,9.625273,1.510954,17.234814,13.990314,0.000000,9.376442,-3.225840,1.508560,-0.061252,-0.128952,-1.712246,8.255088,3.860082,0.032417,-0.046794,-0.127468,2.121178,0.695586,3.642386,1.325581,1.884318,1,0,,38.991434,-76.936572,-9.955000,,,
2026-09-11T17:39:09.353,9.658680,1.511156,17.285295,13.992182,0.000000,12.552178,-4.318410,1.506865,-0.055919,-0.117724,-1.716366,8.245948,3.810513,-0.053040,-0.008547,-0.116241,2.650836,0.140529,6.645771,1.462602,1.849629,1,0,,38.991434,-76.936572,-9.955000,,,
2026-09-11T17:39:09.387,9.692079,1.521167,17.336038,14.084880,0.000000,17.821496,-6.131249,1.512466,-0.075738,-0.159449,-1.720995,8.236344,3.760966,-0.098475,0.025041,-0.157966,0.801792,-2.497754,6.912708,1.477669,1.648263,1,0,,38.991434,-76.936572,-9.955000,,,
2026-09-11T17:39:09.420,9.725495,1.531279,17.387287,14.178513,0.000000,21.769021,-7.489342,1.518216,-0.102996,-0.216833,-1.727282,8.225658,3.711382,-0.122749,0.086757,-0.215350,-0.077473,-0.035108,9.156862,1.431228,1.614644,1,0,,38.991434,-76.936572,-9.955000,,,
2026-09-11T17:39:09.454,9.758912,1.550719,17.440077,14.358509,0.000000,23.359292,-8.036454,1.535490,-0.109414,-0.230346,-1.734754,8.214014,3.661579,-0.094066,0.122934,-0.228862,1.342236,-2.253666,17.124274,1.469818,1.438985,1,0,,38.991434,-76.936572,-9.955000,,,
2026-09-11T17:39:09.487,9.792313,1.570859,17.491428,14.544992,0.000000,23.741067,-8.167798,1.554925,-0.089806,-0.189065,-1.741758,8.202129,3.611243,-0.126708,0.058639,-0.187581,2.195023,-6.676858,9.749870,1.555029,0.974722,1,0,,38.991434,-76.936572,-9.955000,,,
2026-09-11T17:39:09.520,9.825714,1.590760,17.544821,14.729256,0.000000,23.121026,-7.954482,1.575454,-0.106183,-0.223543,-1.748649,8.189834,3.560328,-0.030230,0.026022,-0.222059,1.648890,-2.502657,2.968669,1.596892,0.790145,1,0,,38.991434,-76.936572,-9.955000,,,
2026-09-11T17:39:09.554,9.859117,1.600870,17.598886,14.822872,0.000000,22.612222,-7.779434,1.586137,-0.096060,-0.202231,-1.755760,8.176984,3.509000,-0.016668,-0.085947,-0.200748,0.312342,7.724012,8.856484,1.545901,1.268614,1,0,,38.991434,-76.936572,-9.955000,,,
2026-09-11T17:39:09.587,9.892522,1.649957,17.653353,15.277376,0.000000,21.887811,-7.530210,1.635727,-0.102277,-0.215319,-1.762734,8.163646,3.456761,0.096124,0.042000,-0.213836,1.439322,3.650035,9.897362,1.563075,1.479775,1,0,,38.991434,-76.936572,-9.955000,,,
2026-09-11T17:39:09.620,9.925937,1.650058,17.708696,15.278312,0.000000,20.809091,-7.159091,1.637194,-0.074430,-0.156695,-1.768949,8.150151,3.403687,-0.028906,-0.086595,-0.155212,3.401142,-3.687987,11.670992,1.705128,1.206294,1,0,,38.991434,-76.936572,-9.955000,,,
2026-09-11T17:39:09.654,9.959343,1.640587,17.764190,15.190617,0.000000,20.232309,-6.960657,1.628495,-0.083298,-0.175364,-1.774496,8.136684,3.350764,-0.009083,0.093197,-0.173881,-1.469036,3.609828,9.545695,1.529085,1.411201,1,0,,38.991434,-76.936572,-9.955000,,,
2026-09-11T17:39:09.687,9.992741,1.679475,17.819669,15.550699,0.000000,20.011896,-6.884826,1.667365,-0.087865,-0.184978,-1.780513,8.122589,3.297485,-0.027835,-0.041107,-0.183495,0.277430,-1.546116,8.929838,1.467899,1.280891,1,0,,38.991434,-76.936572,-9.955000,,,
2026-09-11T17:39:09.721,10.026148,1.718360,17.877368,15.910744,0.000000,20.353845,-7.002470,1.705543,-0.097788,-0.205869,-1.787042,8.107647,3.243076,0.097827,-0.011242,-0.204385,1.083243,3.481557,8.482556,1.462347,1.480929,1,0,,38.991434,-76.936572,-9.955000,,,
2026-09-11T17:39:09.754,10.059566,1.767247,17.936801,16.363397,0.000000,20.170511,-6.939396,1.754301,-0.077250,-0.162633,-1.793199,8.092212,3.187285,-0.068502,-0.231293,-0.161149,3.326514,-4.867237,7.768240,1.604681,1.132762,1,0,,38.991434,-76.936572,-9.955000,,,
2026-09-11T17:39:09.787,10.092973,1.796597,17.997180,16.635159,0.000000,20.171884,-6.939868,1.783434,-0.088489,-0.186292,-1.799027,8.076311,3.130307,0.019503,-0.077392,-0.184809,-2.555319,3.799489,2.518152,1.365934,1.353797,1,0,,38.991434,-76.936572,-9.955000,,,
2026-09-11T17:39:09.821,10.126375,1.855094,18.059249,17.176794,0.000000,19.214700,-6.610562,1.842760,-0.080739,-0.169977,-1.804977,8.059679,3.072006,-0.023071,0.066613,-0.168493,-0.624586,-2.268867,10.268445,1.260131,1.177561,1,0,,38.991434,-76.936572,-9.955000,,,
2026-09-11T17:39:09.854,10.159778,1.874941,18.121971,17.360561,0.000000,17.623056,-6.062978,1.864453,-0.067441,-0.141982,-1.810187,8.042748,3.012397,-0.100261,0.045462,-0.140498,-0.794829,-0.228887,8.262887,1.151069,1.132438,1,0,,38.991434,-76.936572,-9.955000,,,
2026-09-11T17:39:09.888,10.193182,1.884832,18.185271,17.452147,0.000000,14.321664,-4.927178,1.877867,-0.057728,-0.121533,-1.814589,8.025763,2.952208,0.042095,-0.077861,-0.120049,-0.724319,0.658320,13.072461,1.050472,1.142983,1,0,,38.991434,-76.936572,-9.955000,,,
2026-09-11T17:39:09.921,10.226597,1.895077,18.248491,17.547011,0.000000,8.448785,-2.906692,1.892639,-0.049023,-0.103207,-1.818343,8.008712,2.891539,-0.121372,-0.074060,-0.101724,1.038132,-0.452773,5.913214,1.070070,1.079208,1,0,,38.991434,-76.936572,-9.955000,,,
2026-09-11T17:39:09.955,10.260004,1.905461,18.312819,17.643156,0.000000,6.160194,-2.119333,1.904157,-0.003184,-0.006704,-1.820179,7.992270,2.830280,-0.126841,-0.023850,-0.005220,-0.273606,-4.249908,4.677674,1.014398,0.758133,1,0,,38.991434,-76.936572,-9.955000,,,
2026-09-11T17:39:09.988,10.293403,1.886467,18.374954,17.467286,0.000000,2.026588,-0.697221,1.886327,0.007297,0.015362,-1.820035,7.976719,2.768920,-0.149399,0.049992,0.016846,1.697727,3.935311,11.036600,1.095494,0.968552,1,0,,38.991434,-76.936572,-9.955000,,,
2026-09-11T17:39:10.021,10.326802,1.906275,18.438869,17.650690,0.000000,-5.476387,1.884078,1.905244,0.008752,0.018424,-1.819471,7.961378,2.707490,-0.149601,0.006282,0.019908,-1.657814,2.963472,6.580949,0.967171,1.113281,1,0,,38.991434,-76.936572,-9.955000,,,
2026-09-11T17:39:10.055,10.360208,1.896709,18.502143,17.562116,0.000000,-5.870522,2.019675,1.895530,0.055502,0.116847,-1.817211,7.946863,2.645678,-0.135040,0.037852,0.118331,-0.859259,-1.442460,13.245254,0.901348,0.958650,1,0,,38.991434,-76.936572,-9.955000,,,
2026-09-11T17:39:10.089,10.393619,1.886911,18.565117,17.471394,0.000000,-8.939827,3.075629,1.884193,0.077629,0.163430,-1.812529,7.933762,2.583870,0.137138,-0.085208,0.164914,-1.288300,2.830690,10.904799,0.813020,1.077235,1,1,10.385225,38.991419,-76.936571,-9.932000,7.502429,4.992096,3.476365
2026-09-11T17:39:10.122,10.427029,1.848471,18.626631,17.115471,0.000000,-10.700386,3.681325,1.844657,0.102822,0.216468,-1.806183,7.921970,2.522634,0.197694,-0.073995,0.217951,-1.498652,-2.840888,0.797085,0.715512,0.820793,1,0,,38.991419,-76.936571,-9.932000,,,
2026-09-11T17:39:10.156,10.460466,1.839231,18.689942,17.029916,0.000000,-10.714119,3.686050,1.835426,0.034141,0.071876,-1.801362,7.909992,2.462239,0.164949,-0.072539,0.073360,0.286354,3.044082,15.960323,0.739494,0.966249,1,0,,38.991419,-76.936571,-9.932000,,,
2026-09-11T17:39:10.189,10.493899,1.800787,18.749325,16.673957,0.000000,-10.050133,3.457614,1.797509,0.061432,0.129332,-1.797999,7.897769,2.402732,-0.088891,-0.094771,0.130815,-0.894955,-3.221387,0.343527,0.690836,0.697036,1,0,,38.991419,-76.936571,-9.932000,,,
2026-09-11T17:39:10.222,10.527301,1.762298,18.807756,16.317573,0.000000,-9.013298,3.100905,1.759718,0.043322,0.091205,-1.794315,7.886197,2.344434,0.097268,-0.062856,0.092689,0.308811,-2.614257,9.717606,0.721481,0.475134,1,0,,38.991419,-76.936571,-9.932000,,,
2026-09-11T17:39:10.256,10.560704,1.753032,18.866519,16.231782,0.000000,-6.058662,2.084402,1.751872,0.020839,0.043871,-1.792059,7.874306,2.286993,0.086952,-0.095312,0.045354,0.225063,7.524741,11.086026,0.743856,0.918206,1,0,,38.991419,-76.936571,-9.932000,,,
2026-09-11T17:39:10.289,10.594110,1.705075,18.923341,15.787728,0.000000,-6.141747,2.112986,1.703915,0.039347,0.082836,-1.789943,7.862678,2.230445,0.156312,0.024535,0.084319,-1.212298,6.321367,0.518380,0.671585,1.274422,1,0,,38.991419,-76.936571,-9.932000,,,
2026-09-11T17:39:10.322,10.627530,1.695764,18.980568,15.701519,0.000000,-6.319588,2.174170,1.694543,0.052887,0.111342,-1.786698,7.851928,2.174664,0.106525,0.018031,0.112825,1.135316,-0.425020,13.314391,0.749413,1.186056,1,0,,38.991419,-76.936571,-9.932000,,,
2026-09-11T17:39:10.355,10.660985,1.716118,19.038308,15.889978,0.000000,-7.081078,2.436151,1.714567,0.063441,0.133560,-1.782602,7.841727,2.118524,0.021820,-0.050809,0.135044,-2.941603,8.847854,-2.829807,0.554531,1.698440,1,0,,38.991419,-76.936571,-9.932000,,,
2026-09-11T17:39:10.389,10.694390,1.677522,19.093922,15.532609,0.000000,-6.919716,2.380636,1.676074,0.050944,0.107250,-1.778580,7.831801,2.062736,0.018925,-0.060140,0.108734,0.262720,-5.680502,13.694006,0.560023,1.264989,1,0,,38.991419,-76.936571,-9.932000,,,
2026-09-11T17:39:10.423,10.727805,1.668434,19.149708,15.448465,0.000000,-5.817650,2.001485,1.667416,0.028198,0.059365,-1.775796,7.821647,2.007789,-0.043300,-0.067428,0.060848,3.556872,1.268098,8.774991,0.770605,1.292405,1,0,,38.991419,-76.936571,-9.932000,,,
2026-09-11T17:39:10.456,10.761212,1.639336,19.204030,15.179034,0.000000,-5.137184,1.767380,1.638556,0.034272,0.072151,-1.773599,7.811486,1.953500,-0.086370,0.049839,0.073634,0.739814,-0.946440,14.632895,0.789097,1.174620,1,0,,38.991419,-76.936571,-9.932000,,,
2026-09-11T17:39:10.489,10.794633,1.648963,19.259061,15.268179,0.000000,-4.135368,1.422718,1.648455,0.015464,0.032556,-1.771849,7.801284,1.899521,-0.021064,-0.119606,0.034040,0.799144,4.269129,14.213857,0.805880,1.400736,1,0,,38.991419,-76.936571,-9.932000,,,
2026-09-11T17:39:10.523,10.828034,1.678670,19.315202,15.543242,0.000000,-2.111824,0.726545,1.678535,0.018877,0.039741,-1.770642,7.790784,1.844957,0.003973,0.179517,0.041225,8.549928,-2.337415,17.073574,1.317600,1.194891,1,0,,38.991419,-76.936571,-9.932000,,,
2026-09-11T17:39:10.557,10.861439,1.678979,19.372740,15.546098,0.000000,-1.268623,0.436453,1.678930,-0.012027,-0.025320,-1.770401,7.779770,1.789972,0.147053,0.112982,-0.023837,-1.026266,4.267560,1.631925,1.196741,1.426816,1,0,,38.991419,-76.936571,-9.932000,,,
2026-09-11T17:39:10.590,10.894858,1.698401,19.429186,15.725932,0.000000,0.228264,-0.078531,1.698399,0.001931,0.004066,-1.770756,7.768405,1.734694,0.097567,-0.127154,0.005549,3.447234,-4.881162,-1.805208,1.367579,1.059412,1,0,,38.991419,-76.936571,-9.932000,,,
2026-09-11T17:39:10.623,10.928260,1.747297,19.487356,16.178675,0.000000,1.021339,-0.351378,1.747264,-0.030574,-0.064366,-1.771763,7.756477,1.678396,0.108984,-0.060414,-0.062882,2.138536,4.689932,10.460558,1.450936,1.324710,1,0,,38.991419,-76.936571,-9.932000,,,
2026-09-11T17:39:10.656,10.961661,1.796108,19.547591,16.630631,0.000000,1.155922,-0.397680,1.796065,-0.002940,-0.006190,-1.772942,7.744082,1.620531,0.062504,-0.049123,-0.004706,1.521992,4.147134,4.626876,1.490348,1.545360,1,0,,38.991419,-76.936571,-9.932000,,,
2026-09-11T17:39:10.690,10.995065,1.825561,19.609634,16.903344,0.000000,3.022911,-1.039992,1.825260,-0.015864,-0.033398,-1.773603,7.731611,1.561345,0.062337,0.093462,-0.031914,-1.432654,0.338133,17.841141,1.335992,1.519710,1,0,,38.991419,-76.936571,-9.932000,,,
2026-09-11T17:39:10.723,11.028476,1.836026,19.670922,17.000240,0.000000,5.465309,-1.880267,1.835037,-0.041545,-0.087464,-1.775622,7.718295,1.501660,-0.076211,0.117022,-0.085981,2.170702,3.744081,4.074761,1.416767,1.721856,1,0,,38.991419,-76.936571,-9.932000,,,
2026-09-11T17:39:10.757,11.061887,1.865691,19.733908,17.274918,0.000000,9.811089,-3.375375,1.862455,-0.052802,-0.111162,-1.778940,7.704088,1.441526,-0.082014,0.019785,-0.109679,1.272903,-2.263669,2.955528,1.443530,1.534848,1,0,,38.991419,-76.936571,-9.932000,,,
2026-09-11T17:39:10.790,11.095294,1.885323,19.796308,17.456691,0.000000,12.651741,-4.352663,1.879885,-0.063372,-0.133415,-1.783025,7.689147,1.380798,-0.125583,0.113826,-0.131932,3.863526,3.171863,11.208609,1.639964,1.705531,1,0,,38.991419,-76.936571,-9.932000,,,
2026-09-11T17:39:10.823,11.128697,1.924568,19.861122,17.820073,0.000000,16.345208,-5.623351,1.915306,-0.105378,-0.221849,-1.788959,7.672857,1.319478,-0.187385,0.061041,-0.220366,-3.624538,-0.663616,13.618005,1.353046,1.636712,1,0,,38.991419,-76.936571,-9.932000,,,
2026-09-11T17:39:10.857,11.162107,1.895325,19.924578,17.549302,0.000000,21.219018,-7.300121,1.879961,-0.115744,-0.243672,-1.796735,7.655294,1.258449,-0.223828,0.155916,-0.242189,-2.814999,-8.766655,7.381760,1.131671,1.045119,1,0,,38.991419,-76.936571,-9.932000,,,
2026-09-11T17:39:10.890,11.195526,1.924406,19.989071,17.818571,0.000000,21.063150,-7.246496,1.909035,-0.105724,-0.222577,-1.804526,7.637266,1.197646,-0.112207,-0.108622,-0.221094,0.211529,0.531717,9.968362,1.118687,1.061181,1,0,,38.991419,-76.936571,-9.932000,,,
2026-09-11T17:39:10.923,11.228925,1.895565,20.052049,17.551524,0.000000,20.694421,-7.119640,1.880949,-0.098128,-0.206586,-1.811693,7.619079,1.136927,0.029514,0.016128,-0.205102,-3.175393,-9.409481,-5.617053,0.892904,0.430409,1,0,,38.991419,-76.936571,-9.932000,,,
2026-09-11T17:39:10.957,11.262326,1.915277,20.116151,17.734047,0.000000,18.786233,-6.463154,1.903104,-0.071366,-0.150244,-1.817652,7.601071,1.076285,0.193912,-0.007050,-0.148761,0.200154,-3.838421,15.578550,0.893697,0.161153,1,0,,38.991419,-76.936571,-9.932000,,,
2026-09-11T17:39:10.990,11.295732,1.867228,20.178314,17.289144,0.000000,14.370416,-4.943950,1.860281,-0.032713,-0.068870,-1.821312,7.583916,1.015785,-0.068813,0.046547,-0.067386,-1.293693,-2.592780,12.936050,0.805851,-0.034637,1,0,,38.991419,-76.936571,-9.932000,,,
2026-09-11T17:39:11.024,11.329142,1.867756,20.240887,17.294038,0.000000,8.334115,-2.867242,1.865418,-0.065159,-0.137176,-1.824754,7.566800,0.955926,-0.103172,-0.029413,-0.135692,3.349069,-0.386872,9.171081,1.026780,-0.077097,1,0,,38.991419,-76.936571,-9.932000,,,
2026-09-11T17:39:11.057,11.362557,1.858738,20.303341,17.210536,0.000000,8.132928,-2.798026,1.856522,-0.030256,-0.063697,-1.828110,7.549534,0.896164,-0.149621,-0.046854,-0.062213,-1.336058,2.061260,9.762128,0.947792,0.030595,1,0,,38.991419,-76.936571,-9.932000,,,
2026-09-11T17:39:11.091,11.395963,1.830163,20.364259,16.945956,0.000000,7.436668,-2.558487,1.828339,-0.023110,-0.048653,-1.829987,7.532954,0.836886,-0.086069,-0.067672,-0.047169,-1.067356,1.608977,8.116082,0.890705,0.105878,1,1,11.383026,38.991404,-76.936570,-9.945000,7.553276,3.248374,4.473107
2026-09-11T17:39:11.124,11.429362,1.772603,20.423192,16.412993,0.000000,7.319252,-2.518091,1.770892,-0.018009,-0.037914,-1.831432,7.516844,0.778976,0.001158,-0.015554,-0.036431,-0.567413,3.705443,8.905419,0.869904,0.314700,1,0,,38.991404,-76.936570,-9.945000,,,
2026-09-11T17:39:11.158,11.462766,1.773231,20.483438,16.418801,0.000000,7.481987,-2.574078,1.771441,-0.038317,-0.080667,-1.833413,7.500632,0.722067,0.026939,0.085055,-0.079183,-0.732361,-0.333622,10.249028,0.840562,0.264493,1,0,,38.991404,-76.936570,-9.945000,,,
2026-09-11T17:39:11.191,11.496188,1.754181,20.541263,16.242415,0.000000,7.659828,-2.635262,1.752326,-0.044557,-0.093804,-1.836329,7.483926,0.665586,-0.034996,0.023996,-0.092321,0.272527,5.178990,7.719010,0.876781,0.573572,1,0,,38.991404,-76.936570,-9.945000,,,
2026-09-11T17:39:11.224,11.529588,1.725158,20.598453,15.973681,0.000000,7.781364,-2.677075,1.723275,-0.035138,-0.073974,-1.839130,7.467333,0.609950,-0.050716,-0.014660,-0.072490,-1.857968,-1.136787,13.049415,0.774573,0.467455,1,0,,38.991404,-76.936570,-9.945000,,,
2026-09-11T17:39:11.258,11.562994,1.666647,20.654267,15.431920,0.000000,7.861702,-2.704714,1.664791,-0.035748,-0.075259,-1.841623,7.451121,0.555717,-0.026686,0.060718,-0.073775,-0.785120,-1.630650,10.483603,0.742275,0.330363,1,0,,38.991404,-76.936570,-9.945000,,,
2026-09-11T17:39:11.291,11.596416,1.657172,20.709546,15.344184,0.000000,7.964699,-2.740149,1.655277,-0.034988,-0.073658,-1.844112,7.435073,0.502594,0.012261,0.106517,-0.072174,-0.879853,0.102578,8.711149,0.705130,0.306871,1,0,,38.991404,-76.936570,-9.945000,,,
2026-09-11T17:39:11.324,11.629824,1.628403,20.763546,15.077809,0.000000,5.249016,-1.805854,1.627595,-0.025726,-0.054159,-1.846247,7.419239,0.450083,-0.040968,0.010426,-0.052675,-3.594628,8.005953,8.297799,0.489655,0.793677,1,0,,38.991404,-76.936570,-9.945000,,,
2026-09-11T17:39:11.358,11.663224,1.599625,20.817420,14.811344,0.000000,1.350243,-0.464533,1.599573,0.007270,0.015306,-1.846896,7.404267,0.398309,-0.037277,0.032756,0.016789,-0.113561,-2.748804,7.104232,0.496868,0.570784,1,0,,38.991404,-76.936570,-9.945000,,,
2026-09-11T17:39:11.391,11.696631,1.570821,20.869244,14.544641,0.000000,-4.032372,1.387284,1.570361,0.009940,0.020926,-1.846290,7.390125,0.347282,-0.013259,0.051234,0.022410,0.679209,-1.850319,8.891788,0.553471,0.408048,1,0,,38.991404,-76.936570,-9.945000,,,
2026-09-11T17:39:11.425,11.730038,1.571193,20.921632,14.548086,0.000000,-3.546913,1.220268,1.570837,0.011782,0.024805,-1.845526,7.376221,0.296688,-0.010289,-0.020568,0.026288,3.020546,2.731839,12.874268,0.761671,0.543660,1,0,,38.991404,-76.936570,-9.945000,,,
2026-09-11T17:39:11.458,11.763448,1.561928,20.973806,14.462294,0.000000,-3.202217,1.101680,1.561639,0.005471,0.011517,-1.844920,7.362318,0.246241,-0.038517,0.065060,0.013000,0.090613,1.970058,14.269461,0.776120,0.629783,1,0,,38.991404,-76.936570,-9.945000,,,
2026-09-11T17:39:11.491,11.796858,1.552747,21.024963,14.377290,0.000000,-2.893227,0.995376,1.552513,0.002642,0.005562,-1.844634,7.348373,0.196122,-0.038077,0.077473,0.007046,1.785693,-3.560108,13.645561,0.895702,0.357129,1,0,,38.991404,-76.936570,-9.945000,,,
2026-09-11T17:39:11.525,11.830260,1.533757,21.076363,14.201455,0.000000,-2.276619,0.783240,1.533614,0.016056,0.033803,-1.843977,7.334752,0.146413,-0.121117,-0.051547,0.035286,2.432049,-1.765883,4.698464,1.051961,0.201064,1,0,,38.991404,-76.936570,-9.945000,,,
2026-09-11T17:39:11.558,11.863667,1.534224,21.127773,14.205780,0.000000,-1.842659,0.633942,1.534130,0.012537,0.026394,-1.842971,7.321411,0.096935,0.000697,-0.160627,0.027878,1.854634,2.029977,6.403154,1.166724,0.293367,1,0,,38.991404,-76.936570,-9.945000,,,
2026-09-11T17:39:11.592,11.897074,1.544489,21.179401,14.300826,0.000000,-1.821373,0.626619,1.544397,0.008373,0.017628,-1.842236,7.307942,0.047307,-0.024450,-0.028298,0.019111,0.445810,3.456844,5.135154,1.185385,0.477974,1,0,,38.991404,-76.936570,-9.945000,,,
2026-09-11T17:39:11.625,11.930487,1.525606,21.230863,14.125978,0.000000,-2.304771,0.792926,1.525460,-0.004767,-0.010036,-1.842109,7.294253,-0.002119,0.032564,0.112506,-0.008552,0.222415,-4.211368,5.428765,1.185038,0.166377,1,0,,38.991404,-76.936570,-9.945000,,,
2026-09-11T17:39:11.659,11.963895,1.516061,21.280664,14.037605,0.000000,-3.015450,1.037425,1.515813,0.000749,0.001578,-1.842251,7.280570,-0.051043,0.017302,0.072106,0.003061,0.473171,2.863150,12.610960,1.199733,0.315513,1,0,,38.991404,-76.936570,-9.945000,,,
2026-09-11T17:39:11.692,11.997302,1.496280,21.330338,13.854441,0.000000,-3.237236,1.113728,1.495997,0.006948,0.014628,-1.841980,7.267211,-0.099544,-0.061338,0.053579,0.016111,-0.168086,-0.899760,12.416494,1.171696,0.217939,1,0,,38.991404,-76.936570,-9.945000,,,
2026-09-11T17:39:11.725,12.030701,1.496477,21.380367,13.856272,0.000000,-3.669823,1.262554,1.496114,0.036458,0.076753,-1.840454,7.254562,-0.147890,0.056280,0.041915,0.078236,1.170228,-0.078845,7.703320,1.229760,0.168624,1,0,,38.991404,-76.936570,-9.945000,,,
2026-09-11T17:39:11.759,12.064111,1.477475,21.430191,13.680322,0.000000,-3.825005,1.315942,1.477085,0.017523,0.036890,-1.838555,7.242245,-0.196014,0.121511,-0.006311,0.038374,-0.347253,5.243518,8.797644,1.187642,0.468627,1,0,,38.991404,-76.936570,-9.945000,,,
2026-09-11T17:39:11.793,12.097534,1.487496,21.479494,13.773112,0.000000,-4.018639,1.382559,1.487063,0.035095,0.073885,-1.836704,7.230032,-0.244027,-0.061151,0.163354,0.075369,0.442084,2.483338,8.841480,1.192544,0.582930,1,0,,38.991404,-76.936570,-9.945000,,,
2026-09-11T17:39:11.825,12.130972,1.478015,21.528746,13.685324,0.000000,-4.282311,1.473272,1.477526,0.031748,0.066839,-1.834351,7.218142,-0.292159,-0.080907,-0.005004,0.068322,-1.683213,-4.547932,7.066280,1.056426,0.240679,1,0,,38.991404,-76.936570,-9.945000,,,
2026-09-11T17:39:11.859,12.164373,1.488117,21.578494,13.778864,0.000000,-4.681938,1.610759,1.487529,0.032636,0.068708,-1.832088,7.206334,-0.340260,0.064443,0.109403,0.070192,-0.366867,-3.692596,16.934025,1.004064,-0.042121,1,0,,38.991404,-76.936570,-9.945000,,,
2026-09-11T17:39:11.892,12.197782,1.488394,21.628016,13.781427,0.000000,-5.846489,2.011407,1.487477,0.052622,0.110783,-1.829089,7.194945,-0.388654,-0.143459,0.065622,0.112267,3.114592,-6.405017,1.900038,1.171949,-0.501468,1,0,,38.991404,-76.936570,-9.945000,,,
2026-09-11T17:39:11.926,12.231192,1.479006,21.677490,13.694499,0.000000,-7.905739,2.719864,1.477340,0.060414,0.127188,-1.825114,7.184216,-0.437041,0.040072,0.034433,0.128671,0.218688,1.290555,12.539175,1.144708,-0.458864,1,0,,38.991404,-76.936570,-9.945000,,,
2026-09-11T17:39:11.959,12.264592,1.498815,21.727827,13.877917,0.000000,-11.742714,4.039925,1.495091,0.060743,0.127880,-1.820855,7.173789,-0.485616,-0.010735,0.033794,0.129363,0.476407,-2.691337,11.059842,1.130105,-0.674698,1,0,,38.991404,-76.936570,-9.945000,,,
2026-09-11T17:39:11.993,12.297997,1.479726,21.777073,13.701168,0.000000,-17.061470,5.869772,1.471968,0.097174,0.204576,-1.815302,7.164216,-0.534309,0.007799,-0.092376,0.206060,1.762451,-1.781966,4.519199,1.193805,-0.836398,1,0,,38.991404,-76.936570,-9.945000,,,
2026-09-11T17:39:12.026,12.331399,1.499731,21.827729,13.886400,0.000000,-21.464241,7.384487,1.487292,0.133012,0.280026,-1.807208,7.156181,-0.583223,-0.030171,-0.147897,0.281509,4.640507,3.868331,5.503492,1.440541,-0.638055,1,0,,38.991404,-76.936570,-9.945000,,,
2026-09-11T17:39:12.060,12.364807,1.549045,21.880322,14.343012,0.000000,-29.937447,10.299580,1.524085,0.138897,0.292414,-1.797646,7.149058,-0.633223,0.076159,-0.061402,0.293898,1.741465,2.442444,7.269081,1.496559,-0.536059,1,0,,38.991404,-76.936570,-9.945000,,,
2026-09-11T17:39:12.093,12.398229,1.578496,21.932431,14.615708,0.000000,-32.539146,11.194660,1.548463,0.173098,0.364417,-1.786670,7.142874,-0.684457,0.038985,0.027759,0.365900,-0.403936,-2.813430,7.865914,1.412113,-0.783234,1,1,12.384598,38.991389,-76.936570,-9.919000,7.607004,1.661994,3.657022
2026-09-11T17:39:12.126,12.431636,1.607762,21.985388,14.886682,0.000000,-39.167336,13.475001,1.563503,0.184227,0.387847,-1.774105,7.137899,-0.736540,-0.039980,0.072142,0.389330,2.016541,6.528581,7.249468,1.487398,-0.425506,1,0,,38.991389,-76.936570,-9.919000,,,
2026-09-11T17:39:12.160,12.465036,1.666284,22.041496,15.428555,0.000000,-44.145515,15.187677,1.608085,0.244418,0.514565,-1.759034,7.134624,-0.789879,0.054463,0.027473,0.516049,1.380090,2.377818,5.975682,1.520664,-0.354770,1,0,,38.991389,-76.936570,-9.919000,,,
2026-09-11T17:39:12.193,12.498444,1.695622,22.097925,15.700207,0.000000,-48.686302,16.749875,1.623680,0.266651,0.561371,-1.741062,7.133402,-0.844515,0.083348,-0.038960,0.562855,3.349461,5.126917,10.474875,1.681600,-0.112199,1,0,,38.991389,-76.936570,-9.919000,,,
2026-09-11T17:39:12.227,12.531846,1.754237,22.156157,16.242939,0.000000,-56.060875,19.286998,1.655782,0.271645,0.571885,-1.722135,7.133512,-0.900015,-0.005882,-0.083256,0.573368,3.068893,8.125790,6.926143,1.826202,0.319660,1,0,,38.991389,-76.936570,-9.919000,,,
2026-09-11T17:39:12.260,12.565256,1.783595,22.216033,16.514771,0.000000,-55.973671,19.256997,1.683801,0.286728,0.603639,-1.702498,7.134883,-0.956556,0.028928,-0.087766,0.605122,0.430806,6.849945,16.425845,1.801861,0.659811,1,0,,38.991389,-76.936570,-9.919000,,,
2026-09-11T17:39:12.293,12.598663,1.793819,22.275992,16.609431,0.000000,-57.883232,19.913956,1.686558,0.311961,0.656760,-1.681445,7.138005,-1.013642,0.084265,0.146339,0.658243,-0.726084,3.908637,9.678771,1.707605,0.799685,1,0,,38.991389,-76.936570,-9.919000,,,
2026-09-11T17:39:12.327,12.632068,1.803571,22.336577,16.699731,0.000000,-59.544228,20.485399,1.689516,0.322474,0.678893,-1.659136,7.142949,-1.070799,0.101072,-0.115137,0.680376,-3.066441,2.662800,5.589594,1.467384,0.854702,1,0,,38.991389,-76.936570,-9.919000,,,
2026-09-11T17:39:12.360,12.665479,1.823616,22.397523,16.885333,0.000000,-61.481941,21.152044,1.700752,0.335376,0.706055,-1.636000,7.149564,-1.128105,0.210592,-0.101019,0.707539,2.314173,2.726935,7.983692,1.581580,0.909793,1,0,,38.991389,-76.936570,-9.919000,,,
2026-09-11T17:39:12.394,12.698899,1.785194,22.457166,16.529576,0.000000,-60.702599,20.883922,1.667915,0.325372,0.684993,-1.612756,7.157568,-1.184903,-0.013473,-0.081082,0.686476,1.642908,-2.599449,12.098170,1.656413,0.622648,1,0,,38.991389,-76.936570,-9.919000,,,
2026-09-11T17:39:12.427,12.732306,1.795760,22.517207,16.627406,0.000000,-57.410820,19.751429,1.690111,0.300703,0.633059,-1.590740,7.166288,-1.241292,0.031048,0.021440,0.634543,0.470523,-0.683524,11.698353,1.660781,0.467733,1,0,,38.991389,-76.936570,-9.919000,,,
2026-09-11T17:39:12.460,12.765706,1.767107,22.575766,16.362099,0.000000,-56.052635,19.284163,1.667958,0.290630,0.611852,-1.569950,7.175623,-1.297463,-0.127599,0.084671,0.613336,-1.154047,2.155502,9.219428,1.561135,0.501720,1,0,,38.991389,-76.936570,-9.919000,,,
2026-09-11T17:39:12.494,12.799115,1.709263,22.633235,15.826510,0.000000,-51.342247,17.663617,1.628679,0.248542,0.523247,-1.550989,7.185191,-1.352439,-0.044449,0.172446,0.524731,2.631320,3.430464,14.345266,1.707616,0.628887,1,0,,38.991389,-76.936570,-9.919000,,,
2026-09-11T17:39:12.527,12.832524,1.680547,22.689958,15.560616,0.000000,-49.810341,17.136585,1.605939,0.237074,0.499103,-1.533911,7.194828,-1.406220,-0.122332,0.112980,0.500586,-0.803655,3.483126,-2.617297,1.628585,0.761366,1,0,,38.991389,-76.936570,-9.919000,,,
2026-09-11T17:39:12.561,12.865943,1.680369,22.746336,15.558968,0.000000,-49.262398,16.948073,1.607389,0.236083,0.497017,-1.517266,7.205152,-1.459498,-0.043471,-0.115674,0.498501,-1.867284,-0.988510,13.445212,1.478401,0.602637,1,0,,38.991389,-76.936570,-9.919000,,,
2026-09-11T17:39:12.594,12.899363,1.670923,22.801834,15.471508,0.000000,-49.677818,17.090993,1.597134,0.225262,0.474237,-1.501036,7.216144,-1.512470,-0.024852,-0.211421,0.475720,1.459818,6.882405,15.148136,1.542794,0.958778,1,0,,38.991389,-76.936570,-9.919000,,,
2026-09-11T17:39:12.627,12.932764,1.671206,22.857142,15.474127,0.000000,-50.339745,17.318719,1.595439,0.238263,0.501606,-1.484739,7.228011,-1.565020,0.088316,0.048366,0.503090,-1.610938,-4.845564,14.957691,1.402900,0.547860,1,0,,38.991389,-76.936570,-9.919000,,,
2026-09-11T17:39:12.661,12.966166,1.652587,22.912019,15.301734,0.000000,-51.577080,17.744408,1.573966,0.259778,0.546901,-1.467228,7.241298,-1.616921,0.185970,-0.009472,0.548384,-2.925618,-7.409218,12.934972,1.177203,-0.028290,1,0,,38.991389,-76.936570,-9.919000,,,
2026-09-11T17:39:12.694,12.999574,1.643055,22.966753,15.213469,0.000000,-53.862923,18.530822,1.557867,0.253350,0.533368,-1.449184,7.255690,-1.667941,0.068409,0.004696,0.534851,2.918753,-1.529641,12.650971,1.334217,-0.215218,1,0,,38.991389,-76.936570,-9.919000,,,
2026-09-11T17:39:12.728,13.032982,1.692153,23.023750,15.668082,0.000000,-54.378593,18.708232,1.602747,0.252450,0.531473,-1.431397,7.270943,-1.719184,0.291507,0.051776,0.532956,1.271040,9.994153,12.691276,1.383626,0.345030,1,0,,38.991389,-76.936570,-9.919000,,,
2026-09-11T17:39:12.761,13.066390,1.711875,23.081481,15.850697,0.000000,-54.925850,18.896508,1.619614,0.257353,0.541795,-1.413468,7.287324,-1.771158,0.184111,-0.045029,0.543279,3.078994,5.164378,4.925488,1.552622,0.584648,1,0,,38.991389,-76.936570,-9.919000,,,
2026-09-11T17:39:12.795,13.099811,1.751372,23.139234,16.216405,0.000000,-55.348137,19.041790,1.655538,0.267497,0.563151,-1.395004,7.305051,-1.823671,0.212637,-0.039328,0.564635,-1.264469,5.241753,11.997456,1.444267,0.823226,1,0,,38.991389,-76.936570,-9.919000,,,
2026-09-11T17:39:12.828,13.133218,1.771164,23.198128,16.399663,0.000000,-55.571297,19.118565,1.673471,0.292556,0.615907,-1.375310,7.324510,-1.876587,0.086273,-0.064045,0.617390,-3.911775,3.658959,7.564556,1.167781,0.950114,1,0,,38.991389,-76.936570,-9.919000,,,
2026-09-11T17:39:12.861,13.166617,1.810547,23.258274,16.764326,0.000000,-55.703133,19.163922,1.710213,0.285091,0.600192,-1.355002,7.345497,-1.929930,0.070994,0.075348,0.601676,-2.268965,4.164198,4.828500,1.007268,1.108621,1,0,,38.991389,-76.936570,-9.919000,,,
2026-09-11T17:39:12.895,13.200021,1.830351,23.319825,16.947693,0.000000,-56.745461,19.522521,1.725124,0.326242,0.686826,-1.333506,7.368334,-1.983538,-0.059837,0.082922,0.688310,-0.270762,-0.042463,18.813372,0.984203,0.982361,1,0,,38.991389,-76.936570,-9.919000,,,
2026-09-11T17:39:12.928,13.233422,1.850192,23.381808,17.131411,0.000000,-59.164513,20.354764,1.734661,0.344937,0.726182,-1.309908,7.393440,-2.036764,-0.158258,0.081062,0.727666,-0.576435,-8.370662,5.816422,0.941315,0.313011,1,0,,38.991389,-76.936570,-9.919000,,,
2026-09-11T17:39:12.962,13.266831,1.840499,23.443415,17.041660,0.000000,-66.362618,22.831176,1.696300,0.364538,0.767447,-1.284958,7.420313,-2.088742,0.113111,0.077444,0.768931,-0.552605,0.350490,5.400522,0.905709,0.213537,1,0,,38.991389,-76.936570,-9.919000,,,
2026-09-11T17:39:12.995,13.300252,1.830974,23.504562,16.953467,0.000000,-72.392052,24.905522,1.660700,0.385834,0.812283,-1.258559,7.448811,-2.138650,-0.118053,-0.115261,0.813767,-1.232696,10.090062,2.339573,0.833057,0.743483,1,0,,38.991389,-76.936570,-9.919000,,,
2026-09-11T17:39:13.028,13.333660,1.812190,23.565041,16.779534,0.000000,-83.907784,28.867357,1.587007,0.422240,0.888926,-1.230142,7.478970,-2.185698,-0.023154,-0.115018,0.890410,-2.756845,-2.202868,12.207710,0.665195,0.466654,1,0,,38.991389,-76.936570,-9.919000,,,
2026-09-11T17:39:13.062,13.367068,1.773731,23.624763,16.423431,0.000000,-84.690559,29.136660,1.549284,0.446768,0.940565,-1.199583,7.510816,-2.229737,-0.147228,-0.125396,0.942048,-0.375006,4.027591,8.912088,0.655078,0.593691,1,0,,38.991389,-76.936570,-9.919000,,,
2026-09-11T17:39:13.096,13.400485,1.783994,23.684081,16.518460,0.000000,-86.781395,29.855985,1.547221,0.478721,1.007835,-1.167028,7.544676,-2.271783,-0.005647,0.121738,1.009318,-6.879659,4.979719,16.539700,0.226402,0.774492,1,1,13.386719,38.991377,-76.936560,-9.805000,8.444320,0.240922,4.244114
2026-09-11T17:39:13.129,13.433893,1.687116,23.740100,15.621440,0.000000,-91.859139,31.602915,1.436917,0.438230,0.922590,-1.134782,7.578955,-2.311072,-0.066128,0.281404,0.924073,1.826587,4.618834,6.321857,0.367379,0.945028,1,0,,38.991377,-76.936560,-9.805000,,,
2026-09-11T17:39:13.162,13.467300,1.697242,23.796957,15.715206,0.000000,-95.514153,32.860374,1.425676,0.465313,0.979607,-1.103008,7.613403,-2.347488,-0.209248,-0.071754,0.981091,0.041384,-0.150336,5.508297,0.390406,0.799874,1,0,,38.991377,-76.936560,-9.805000,,,
2026-09-11T17:39:13.195,13.500707,1.687692,23.853397,15.626777,0.000000,-97.977150,33.707735,1.403956,0.493874,1.039734,-1.069278,7.649586,-2.381836,0.117888,0.044423,1.041218,2.672803,7.048039,16.526363,0.577134,1.118963,1,0,,38.991377,-76.936560,-9.805000,,,
2026-09-11T17:39:13.228,13.534108,1.698133,23.909770,15.723456,0.000000,-104.831245,36.065795,1.372672,0.497666,1.047717,-1.034417,7.686949,-2.413887,0.067984,0.050915,1.049201,-3.584036,8.109413,10.496548,0.349095,1.504842,1,0,,38.991377,-76.936560,-9.805000,,,
2026-09-11T17:39:13.263,13.567515,1.698670,23.966276,15.728424,0.000000,-106.429756,36.615742,1.363443,0.496063,1.044344,-0.999473,7.725096,-2.444025,0.166337,0.022164,1.045828,0.884560,6.096598,-0.042463,0.404403,1.756985,1,0,,38.991377,-76.936560,-9.805000,,,
2026-09-11T17:39:13.296,13.600993,1.728428,24.023757,16.003963,0.000000,-106.740120,36.722518,1.385405,0.513188,1.080396,-0.963906,7.764704,-2.472883,0.143663,0.095480,1.081880,2.036253,-1.008614,9.666415,0.522921,1.540025,1,0,,38.991377,-76.936560,-9.805000,,,
2026-09-11T17:39:13.329,13.634398,1.728430,24.081154,16.003983,0.000000,-105.938118,36.446600,1.390368,0.495366,1.042875,-0.928442,7.805480,-2.500639,0.115978,0.058217,1.044359,1.149536,7.268689,6.953013,0.575986,1.866173,1,0,,38.991377,-76.936560,-9.805000,,,
2026-09-11T17:39:13.362,13.667798,1.728355,24.138752,16.003286,0.000000,-103.765572,35.699165,1.403583,0.485391,1.021876,-0.893961,7.847013,-2.527470,0.098674,0.014352,1.023360,0.345194,2.148343,10.825953,0.564703,1.857404,1,0,,38.991377,-76.936560,-9.805000,,,
2026-09-11T17:39:13.396,13.701205,1.728436,24.196525,16.004036,0.000000,-101.029976,34.758019,1.420026,0.493844,1.039672,-0.859526,7.889751,-2.553252,0.113318,0.016416,1.041155,-1.272805,1.885917,10.862336,0.436369,1.828963,1,0,,38.991377,-76.936560,-9.805000,,,
2026-09-11T17:39:13.429,13.734615,1.738355,24.254963,16.095875,0.000000,-98.741386,33.970660,1.441659,0.467992,0.985246,-0.825700,7.933561,-2.578237,0.120072,0.062766,0.986729,2.720855,9.386337,7.272906,0.563189,2.291577,1,0,,38.991377,-76.936560,-9.805000,,,
2026-09-11T17:39:13.465,13.768016,1.767764,24.314884,16.368189,0.000000,-94.782188,32.608551,1.489115,0.467647,0.984519,-0.792804,7.978648,-2.602868,0.071346,-0.005297,0.986003,2.225423,1.076280,11.598325,0.651720,2.206396,1,0,,38.991377,-76.936560,-9.805000,,,
2026-09-11T17:39:13.496,13.801425,1.768055,24.372686,16.370882,0.000000,-94.724510,32.588708,1.489690,0.468910,0.987179,-0.759868,8.025106,-2.626567,0.197960,0.051424,0.988662,3.841167,6.671562,8.893651,0.840663,2.485383,1,0,,38.991377,-76.936560,-9.805000,,,
2026-09-11T17:39:13.529,13.834826,1.787592,24.432445,16.551776,0.000000,-94.401100,32.477443,1.508018,0.470482,0.990489,-0.726839,8.072577,-2.648891,0.115133,0.088753,0.991973,1.559454,2.197866,7.029995,0.882914,2.469104,1,0,,38.991377,-76.936560,-9.805000,,,
2026-09-11T17:39:13.563,13.868248,1.836648,24.493996,17.006004,0.000000,-94.677818,32.572644,1.547761,0.491421,1.034571,-0.692999,8.121777,-2.669967,0.136853,-0.007966,1.036055,1.649184,6.246836,12.673919,0.937011,2.709282,1,0,,38.991377,-76.936560,-9.805000,,,
2026-09-11T17:39:13.596,13.901670,1.866159,24.556515,17.279251,0.000000,-95.222328,32.759975,1.569337,0.506629,1.066588,-0.657886,8.172851,-2.689509,0.024477,-0.061908,1.068072,-0.225357,-2.456076,6.286161,0.871890,2.376188,1,0,,38.991377,-76.936560,-9.805000,,,
2026-09-11T17:39:13.629,13.935070,1.925172,24.620842,17.825666,0.000000,-95.555351,32.874547,1.616877,0.521724,1.098367,-0.621732,8.225785,-2.707483,0.122316,0.103685,1.099851,1.578773,0.878970,16.151357,0.925846,2.257123,1,0,,38.991377,-76.936560,-9.805000,,,
2026-09-11T17:39:13.664,13.968473,1.954880,24.686415,18.100742,0.000000,-95.688561,32.920376,1.640978,0.525164,1.105609,-0.584922,8.280505,-2.723948,0.008213,0.121523,1.107093,-1.669092,1.916416,10.368963,0.772040,2.204273,1,0,,38.991377,-76.936560,-9.805000,,,
2026-09-11T17:39:13.697,14.001892,1.974581,24.753525,18.283158,0.000000,-95.815590,32.964079,1.656697,0.530910,1.117706,-0.547771,8.336465,-2.738615,-0.034279,0.040721,1.119189,-1.874639,9.690736,7.104624,0.612263,2.654896,1,0,,38.991377,-76.936560,-9.805000,,,
2026-09-11T17:39:13.730,14.035301,1.984207,24.819436,18.372286,0.000000,-96.173332,33.087156,1.662450,0.544508,1.146332,-0.509952,8.393385,-2.751073,-0.093765,0.029170,1.147816,2.626221,10.991588,6.717457,0.750177,3.181861,1,0,,38.991377,-76.936560,-9.805000,,,
2026-09-11T17:39:13.764,14.068701,1.993991,24.887133,18.462879,0.000000,-96.905983,33.339214,1.665843,0.545018,1.147407,-0.471646,8.450973,-2.761221,-0.151101,0.197976,1.148890,1.240934,-0.418646,8.934643,0.798763,2.960499,1,0,,38.991377,-76.936560,-9.805000,,,
2026-09-11T17:39:13.797,14.102107,1.984470,24.952327,18.374722,0.000000,-101.450890,34.902829,1.627511,0.560150,1.179263,-0.432784,8.508497,-2.768661,0.049617,0.225768,1.180746,-2.635047,-0.669696,7.439423,0.600131,2.724810,1,0,,38.991377,-76.936560,-9.805000,,,
2026-09-11T17:39:13.830,14.135521,1.994432,25.019352,18.466967,0.000000,-107.567528,37.007177,1.592674,0.576326,1.213319,-0.392811,8.565374,-2.772860,0.054608,0.092628,1.214802,-0.742658,7.647226,6.420316,0.529365,3.031778,1,0,,38.991377,-76.936560,-9.805000,,,
2026-09-11T17:39:13.865,14.168929,2.004454,25.086738,18.559758,0.000000,-107.277763,36.907487,1.602774,0.598926,1.260898,-0.351482,8.622217,-2.773974,0.039681,-0.201483,1.262381,1.327624,-1.115703,13.635461,0.595995,2.759644,1,0,,38.991377,-76.936560,-9.805000,,,
2026-09-11T17:39:13.897,14.202351,1.995178,25.152712,18.473874,0.000000,-106.915901,36.782994,1.597957,0.584996,1.231570,-0.309830,8.679222,-2.772630,0.207092,0.051096,1.233053,0.370103,5.731104,16.133705,0.602755,2.939308,1,0,,38.991377,-76.936560,-9.805000,,,
2026-09-11T17:39:13.930,14.235749,1.976333,25.217823,18.299379,0.000000,-105.309151,36.230212,1.594207,0.578018,1.216881,-0.268944,8.735844,-2.769231,0.186272,-0.074345,1.218364,2.669174,7.820313,11.409547,0.759423,3.254644,1,0,,38.991377,-76.936560,-9.805000,,,
2026-09-11T17:39:13.965,14.269148,1.928418,25.282259,17.855726,0.000000,-101.836098,35.035355,1.578985,0.524371,1.103939,-0.230186,8.791745,-2.764489,0.080612,0.047684,1.105423,-0.588203,1.107171,11.962250,0.703293,3.142640,1,0,,38.991377,-76.936560,-9.805000,,,
2026-09-11T17:39:13.997,14.302572,1.880448,25.344598,17.411556,0.000000,-96.865471,33.325277,1.571237,0.502984,1.058914,-0.194041,8.846823,-2.758793,0.003430,0.023077,1.060397,-5.276272,-2.410867,6.986650,0.341669,2.808068,1,0,,38.991377,-76.936560,-9.805000,,,
2026-09-11T17:39:14.031,14.335981,1.842125,25.405591,17.056717,0.000000,-91.841972,31.597009,1.569038,0.458702,0.965689,-0.160221,8.901295,-2.752227,-0.022370,0.048579,0.967173,-0.876126,1.487277,10.836250,0.262165,2.740598,1,0,,38.991377,-76.936560,-9.805000,,,
2026-09-11T17:39:14.065,14.369403,1.793748,25.466176,16.608777,0.000000,-84.998863,29.242728,1.565149,0.416290,0.876399,-0.129438,8.955235,-2.745321,-0.063131,0.068278,0.877883,-2.777341,1.591914,12.825333,0.050791,2.689998,1,0,,38.991377,-76.936560,-9.805000,,,
2026-09-11T17:39:14.097,14.402819,1.793932,25.525664,16.610481,0.000000,-82.048347,28.227642,1.580589,0.420227,0.884689,-0.100014,9.009042,-2.737450,-0.028456,0.020703,0.886173,-1.090990,-0.853669,10.849293,-0.055953,2.479245,1,1,14.389374,38.991376,-76.936541,-9.792000,10.077901,0.133434,3.475768
2026-09-11T17:39:14.131,14.436217,1.803769,25.585756,16.701567,0.000000,-81.203087,27.936842,1.593566,0.423622,0.891835,-0.070347,9.063049,-2.727916,-0.020861,0.064547,0.893319,0.914568,-1.622118,9.519315,-0.034771,2.219621,1,0,,38.991376,-76.936541,-9.792000,,,
2026-09-11T17:39:14.165,14.469620,1.823757,25.647016,16.886637,0.000000,-81.743477,28.122756,1.608444,0.421655,0.887694,-0.040627,9.117221,-2.716784,0.080332,0.063581,0.889178,1.893566,7.359695,14.613184,0.048441,2.545908,1,0,,38.991376,-76.936541,-9.792000,,,
2026-09-11T17:39:14.198,14.503037,1.833915,25.708077,16.980695,0.000000,-82.362144,28.335600,1.614180,0.438710,0.923601,-0.010363,9.171406,-2.703786,0.105972,0.069375,0.925084,0.784826,7.579658,9.741142,0.058250,2.879120,1,0,,38.991376,-76.936541,-9.792000,,,
2026-09-11T17:39:14.231,14.536445,1.863149,25.770143,17.251377,0.000000,-83.328941,28.668214,1.634750,0.455203,0.958322,0.021073,9.225584,-2.688560,0.112045,0.133533,0.959805,-0.852100,0.358041,14.431368,-0.041240,2.734092,1,0,,38.991376,-76.936541,-9.792000,,,
2026-09-11T17:39:14.265,14.569855,1.902433,25.834633,17.615121,0.000000,-84.444740,29.052090,1.663066,0.472106,0.993907,0.053685,9.280045,-2.671016,0.169729,0.132000,0.995390,3.292485,4.982072,8.203067,0.125514,2.885743,1,0,,38.991376,-76.936541,-9.792000,,,
2026-09-11T17:39:14.298,14.603260,1.951265,25.898975,18.067265,0.000000,-84.547737,29.087524,1.705167,0.489165,1.029821,0.087486,9.335016,-2.651025,0.030445,0.164029,1.031305,3.055262,-7.625553,7.330373,0.276408,2.209569,1,0,,38.991376,-76.936541,-9.792000,,,
2026-09-11T17:39:14.331,14.636665,1.990692,25.965253,18.432333,0.000000,-84.538124,29.084217,1.739678,0.501720,1.056252,0.122328,9.390491,-2.628534,0.091866,0.049651,1.057736,3.640327,7.901218,13.993403,0.467918,2.544552,1,0,,38.991376,-76.936541,-9.792000,,,
2026-09-11T17:39:14.365,14.670066,2.049363,26.034064,18.975581,0.000000,-85.206917,29.314306,1.786936,0.517553,1.089584,0.158165,9.446414,-2.603437,0.180701,0.301628,1.091068,-3.277677,0.115424,12.196629,0.212398,2.362866,1,0,,38.991376,-76.936541,-9.792000,,,
2026-09-11T17:39:14.398,14.703488,2.059479,26.102903,19.069252,0.000000,-85.861290,29.539435,1.791781,0.516165,1.086663,0.194532,9.502250,-2.575942,0.034803,0.245278,1.088147,-5.968425,-1.698120,6.944972,-0.216798,2.065297,1,0,,38.991376,-76.936541,-9.792000,,,
2026-09-11T17:39:14.432,14.736895,2.059790,26.171281,19.072133,0.000000,-85.378578,29.373364,1.794988,0.503720,1.060464,0.230397,9.557217,-2.546658,-0.207334,-0.014083,1.061948,-2.630634,-0.302829,0.759133,-0.429737,1.864694,1,0,,38.991376,-76.936541,-9.792000,,,
2026-09-11T17:39:14.466,14.770298,2.049874,26.240704,18.980314,0.000000,-85.646370,29.465494,1.784727,0.516242,1.086826,0.266260,9.610972,-2.515460,-0.132945,-0.077553,1.088309,2.681432,0.313322,13.771871,-0.298166,1.704033,1,0,,38.991376,-76.936541,-9.792000,,,
2026-09-11T17:39:14.498,14.803706,2.088990,26.309575,19.342502,0.000000,-84.978951,29.235877,1.822887,0.536227,1.128898,0.303271,9.663849,-2.481655,-0.123768,0.098570,1.130382,-0.366671,-3.289347,5.220668,-0.361278,1.303755,1,0,,38.991376,-76.936541,-9.792000,,,
2026-09-11T17:39:14.532,14.837115,2.089174,26.379228,19.344208,0.000000,-85.254982,29.330842,1.821354,0.511836,1.077550,0.340129,9.716064,-2.445802,-0.019551,-0.099563,1.079033,-1.612704,6.645280,8.523646,-0.495869,1.558716,1,0,,38.991376,-76.936541,-9.792000,,,
2026-09-11T17:39:14.567,14.870533,2.060450,26.449785,19.078239,0.000000,-85.333260,29.357773,1.795837,0.520217,1.095194,0.376433,9.766610,-2.408473,0.086050,-0.140808,1.096677,-0.961542,-1.430790,18.257531,-0.577408,1.286503,1,0,,38.991376,-76.936541,-9.792000,,,
2026-09-11T17:39:14.599,14.903954,2.012305,26.515893,18.632455,0.000000,-83.533562,28.738611,1.764434,0.496568,1.045407,0.412204,9.815014,-2.369942,0.151978,0.214858,1.046891,1.355671,-0.170832,5.391206,-0.501045,1.107051,1,0,,38.991376,-76.936541,-9.792000,,,
2026-09-11T17:39:14.632,14.937354,2.022422,26.583111,18.726126,0.000000,-81.821068,28.149450,1.783210,0.487023,1.025311,0.446785,9.862032,-2.330336,0.230891,0.038848,1.026794,-0.896916,1.691549,3.926092,-0.565104,1.051524,1,0,,38.991376,-76.936541,-9.792000,,,
2026-09-11T17:39:14.666,14.970754,2.042198,26.652617,18.909238,0.000000,-77.151192,26.542841,1.826951,0.441599,0.929681,0.479433,9.909043,-2.289518,0.267431,-0.018376,0.931165,0.639394,3.412518,11.622744,-0.527228,1.116615,1,0,,38.991376,-76.936541,-9.792000,,,
2026-09-11T17:39:14.699,15.004172,2.042948,26.720813,18.916182,0.000000,-67.871178,23.350176,1.875630,0.365220,0.768884,0.507814,9.957142,-2.248318,0.233444,0.012195,0.770368,0.221630,7.202396,16.326602,-0.518308,1.443588,1,0,,38.991376,-76.936541,-9.792000,,,
2026-09-11T17:39:14.732,15.037581,2.004481,26.787242,18.560007,0.000000,-60.006340,20.644383,1.875766,0.320424,0.674578,0.531927,10.005843,-2.207246,0.165972,-0.122081,0.676061,0.118464,3.805274,12.980867,-0.513512,1.557983,1,0,,38.991376,-76.936541,-9.792000,,,
2026-09-11T17:39:14.766,15.071043,1.956417,26.852533,18.114975,0.000000,-51.491936,17.715116,1.863646,0.311248,0.655260,0.554177,10.053945,-2.165871,0.124229,0.098689,0.656743,-1.192783,0.067077,11.189976,-0.591561,1.431204,1,0,,38.991376,-76.936541,-9.792000,,,
2026-09-11T17:39:14.799,15.104446,1.878976,26.914337,17.397930,0.000000,-43.353813,14.915303,1.815669,0.204918,0.431406,0.572325,10.101314,-2.125771,-0.019789,-0.126153,0.432890,2.116177,2.804506,0.432669,-0.462051,1.512057,1,0,,38.991376,-76.936541,-9.792000,,,
2026-09-11T17:39:14.833,15.137845,1.849929,26.976220,17.128972,0.000000,-41.156548,14.159363,1.793726,0.199879,0.420797,0.586557,10.148050,-2.087114,-0.055879,0.026673,0.422281,-3.540495,-7.580835,2.443817,-0.708956,0.920376,1,0,,38.991376,-76.936541,-9.792000,,,
