timestamp,time_s,speed_mps,distance_m,wheel_omega_rad_s,motor_current_A,steer_motor_deg,steer_column_deg,vx_mps,vy_mps,yaw_rate_rad_s,heading_rad,x_m,y_m,gyro_x_rad_s,gyro_y_rad_s,gyro_z_rad_s,accel_x_mps2,accel_y_mps2,accel_z_mps2,grade_deg,bank_deg,moving,gps_new_fix,gps_time_s,gps_latitude_deg,gps_longitude_deg,gps_altitude_m,gps_east_m,gps_north_m,gps_sigma_m
2026-09-11T17:39:59.764,0.000008,-0.000000,-0.000000,-0.000000,0.000000,-129.488945,44.548949,-0.000000,-0.001663,-0.003502,0.000000,0.000000,0.000000,-0.006445,0.000666,-0.002018,0.615760,0.425805,9.683086,1.700131,0.895277,0,1,-0.692390,38.991384,-76.936694,-10.235000,0.000000,0.000000,3.467472
2026-09-11T17:39:59.797,0.033428,-0.000000,-0.000000,-0.000000,0.000000,-129.488945,44.548949,-0.000000,-0.000133,-0.000280,-0.000063,-0.000000,-0.000030,-0.011717,-0.000222,0.001203,0.630470,0.434729,9.673182,1.701084,0.895855,0,0,,38.991384,-76.936694,-10.235000,,,
2026-09-11T17:39:59.831,0.066849,-0.000000,-0.000000,-0.000000,0.000000,-129.488945,44.548949,-0.000000,0.001250,0.002631,-0.000024,0.000000,-0.000011,-0.013555,-0.001587,0.004114,0.667244,0.418646,9.688578,1.704412,0.895385,0,0,,38.991384,-76.936694,-10.235000,,,
2026-09-11T17:39:59.865,0.100263,-0.000000,-0.000000,-0.000000,0.000000,-129.488945,44.548949,-0.000000,-0.000741,-0.001560,-0.000006,0.000000,-0.000003,-0.009426,-0.000579,-0.000076,0.612916,0.431787,9.697306,1.704180,0.895771,0,0,,38.991384,-76.936694,-10.235000,,,
2026-09-11T17:39:59.898,0.133687,-0.000000,-0.000000,-0.000000,0.000000,-129.488945,44.548949,-0.000000,0.000898,0.001891,-0.000000,0.000000,-0.000000,-0.012008,0.000029,0.003374,0.626547,0.390501,9.680733,1.704834,0.893479,0,0,,38.991384,-76.936694,-10.235000,,,
2026-09-11T17:39:59.931,0.167109,-0.000000,-0.000000,-0.000000,0.000000,-129.488945,44.548949,-0.000000,-0.000444,-0.000934,0.000015,0.000000,0.000007,-0.011868,0.000242,0.000550,0.613308,0.404917,9.669553,1.692563,0.892146,0,0,,38.991384,-76.936694,-10.235000,,,
2026-09-11T17:39:59.965,0.200527,-0.000000,-0.000000,-0.000000,0.000000,-129.488945,44.548949,-0.000000,0.000162,0.000341,0.000006,0.000000,0.000003,-0.009127,-0.000451,0.001824,0.634098,0.419627,9.682106,1.679650,0.891781,0,0,,38.991384,-76.936694,-10.235000,,,
2026-09-11T17:39:59.999,0.233943,-0.000000,-0.000000,-0.000000,0.000000,-129.488945,44.548949,-0.000000,0.001391,0.002929,0.000060,-0.000000,0.000029,-0.011187,-0.000559,0.004413,0.647043,0.379812,9.683479,1.679452,0.888841,0,0,,38.991384,-76.936694,-10.235000,,,
2026-09-11T17:40:00.032,0.267361,-0.000000,-0.000000,-0.000000,0.000000,-129.532890,44.564068,-0.000000,-0.001122,-0.002362,0.000070,-0.000000,0.000033,-0.003508,-0.000089,-0.000878,0.637040,0.427864,9.673868,1.680737,0.889046,0,0,,38.991384,-76.936694,-10.235000,,,
2026-09-11T17:40:00.065,0.300780,-0.000000,-0.000000,-0.000000,0.000000,-129.620781,44.594305,-0.000000,-0.000326,-0.000687,0.000019,0.000000,0.000009,-0.001164,-0.000127,0.000797,0.679503,0.394620,9.669749,1.685084,0.887095,0,0,,38.991384,-76.936694,-10.235000,,,
2026-09-11T17:40:00.098,0.334211,-0.000000,-0.000000,-0.000000,0.000000,-129.664726,44.609424,-0.000000,0.001895,0.003990,0.000074,-0.000000,0.000035,-0.002017,0.001362,0.005473,0.659203,0.423941,9.683381,1.688068,0.887065,0,1,0.313497,38.991384,-76.936694,-10.225000,0.008498,-0.007413,4.266990
2026-09-11T17:40:00.132,0.367632,-0.000000,-0.000000,-0.000000,0.000000,-129.664726,44.609424,-0.000000,0.000667,0.001405,0.000164,-0.000000,0.000078,0.004110,-0.001447,0.002889,0.649396,0.386578,9.690245,1.690383,0.884616,0,0,,38.991384,-76.936694,-10.225000,,,
2026-09-11T17:40:00.165,0.401049,-0.000000,-0.000000,-0.000000,0.000000,-129.664726,44.609424,-0.000000,0.001601,0.003371,0.000244,-0.000000,0.000116,0.004595,-0.000322,0.004854,0.636354,0.417371,9.688088,1.691826,0.884187,0,0,,38.991384,-76.936694,-10.225000,,,
2026-09-11T17:40:00.199,0.434466,0.261929,0.015238,2.425270,0.000000,-129.664726,44.609424,0.186470,0.000401,0.000843,0.000314,0.003116,0.000150,0.002472,0.001643,0.002327,0.644493,0.427080,9.682008,1.693780,0.884383,0,0,,38.991384,-76.936694,-10.225000,,,
2026-09-11T17:40:00.232,0.467886,0.046246,0.015170,0.428205,0.000000,-129.664726,44.609424,0.032923,0.003154,0.006640,0.000439,0.006782,0.000211,-0.004296,-0.001994,0.008124,0.620761,0.423549,9.662787,1.694175,0.884343,0,0,,38.991384,-76.936694,-10.225000,,,
2026-09-11T17:40:00.265,0.501306,0.007031,0.015204,0.065102,0.000000,-129.664726,44.609424,0.005005,0.001298,0.002733,0.000596,0.007415,0.000286,-0.011013,0.000901,0.004216,0.625272,0.418254,9.677693,1.694857,0.883974,0,0,,38.991384,-76.936694,-10.225000,,,
2026-09-11T17:40:00.299,0.534722,-0.000000,0.015170,-0.000000,0.000000,-129.664726,44.609424,-0.000000,0.001730,0.003643,0.000703,0.007499,0.000336,-0.010032,0.002898,0.005126,0.674403,0.385597,9.688480,1.698262,0.881496,0,0,,38.991384,-76.936694,-10.225000,,,
2026-09-11T17:40:00.333,0.568138,-0.000000,0.015170,-0.000000,0.000000,-129.664726,44.609424,-0.000000,0.002097,0.004416,0.000837,0.007499,0.000400,-0.014018,0.001046,0.005899,0.703627,0.464835,9.670338,1.703065,0.884176,0,0,,38.991384,-76.936694,-10.225000,,,
2026-09-11T17:40:00.366,0.601552,-0.000000,0.015170,-0.000000,0.000000,-129.664726,44.609424,-0.000000,0.005044,0.010619,0.001088,0.007499,0.000519,-0.016338,0.000918,0.012102,0.750601,0.442770,9.674358,1.710856,0.885397,0,0,,38.991384,-76.936694,-10.225000,,,
2026-09-11T17:40:00.399,0.634970,-0.000000,0.015170,-0.000000,0.000000,-129.664726,44.609424,-0.000000,0.006280,0.013220,0.001487,0.007499,0.000709,-0.009262,0.003728,0.014704,0.770705,0.464247,9.684754,1.705401,0.887996,0,0,,38.991384,-76.936694,-10.225000,,,
2026-09-11T17:40:00.433,0.668388,-0.000000,0.015170,-0.000000,0.000000,-129.664726,44.609424,-0.000000,0.007749,0.016313,0.001980,0.007498,0.000943,-0.010035,0.001916,0.017797,0.823759,0.460814,9.703778,1.712446,0.890344,0,0,,38.991384,-76.936694,-10.225000,,,
2026-09-11T17:40:00.466,0.701802,-0.000000,0.015170,-0.000000,0.000000,-129.664726,44.609424,-0.000000,0.010846,0.022833,0.002634,0.007497,0.001254,-0.011491,0.001799,0.024317,0.841901,0.449537,9.663865,1.736860,0.891936,0,0,,38.991384,-76.936694,-10.225000,,,
2026-09-11T17:40:00.500,0.735232,-0.000000,0.015170,-0.000000,0.000000,-129.664726,44.609424,-0.000000,0.013512,0.028446,0.003491,0.007496,0.001661,-0.003763,0.004672,0.029930,0.844255,0.453263,9.686323,1.752167,0.893751,0,0,,38.991384,-76.936694,-10.225000,,,
2026-09-11T17:40:00.533,0.768658,-0.000000,0.015170,-0.000000,0.000000,-129.035759,44.393036,-0.000000,0.014565,0.030663,0.004479,0.007494,0.002130,-0.003027,0.002291,0.032147,0.846118,0.430806,9.652588,1.765288,0.894092,0,0,,38.991384,-76.936694,-10.225000,,,
2026-09-11T17:40:00.566,0.802078,0.009804,0.015648,0.090776,0.000000,-128.099861,44.071053,0.007044,0.019620,0.041306,0.005682,0.007609,0.002702,0.010915,0.001992,0.042790,0.826112,0.500629,9.668474,1.776635,0.898932,0,0,,38.991384,-76.936694,-10.225000,,,
2026-09-11T17:40:00.599,0.835496,0.009804,0.015979,0.090776,0.000000,-127.269020,43.785213,0.007078,0.022590,0.047558,0.007167,0.007840,0.003409,0.029000,0.001444,0.049042,0.840038,0.469739,9.705053,1.775585,0.901715,0,0,,38.991384,-76.936694,-10.225000,,,
2026-09-11T17:40:00.634,0.868911,0.009804,0.016303,0.090776,0.000000,-126.655159,43.574022,0.007103,0.024899,0.052418,0.008837,0.008071,0.004204,0.038172,-0.001086,0.053902,0.892209,0.489646,9.657393,1.773074,0.905754,0,0,,38.991384,-76.936694,-10.225000,,,
2026-09-11T17:40:00.667,0.902346,0.317704,0.028927,2.941701,0.000000,-126.207466,43.420000,0.230759,0.027853,0.058638,0.010694,0.012038,0.005128,0.049480,0.001507,0.060122,0.518674,0.409232,9.740063,1.759304,0.903687,0,0,,38.991384,-76.936694,-10.225000,,,
2026-09-11T17:40:00.700,0.935771,0.074735,0.030590,0.691989,0.000000,-125.745353,43.261016,0.054425,0.027560,0.058021,0.012643,0.016794,0.006107,0.046384,0.000205,0.059505,0.444634,0.186621,9.683675,1.746529,0.887897,0,0,,38.991384,-76.936694,-10.225000,,,
2026-09-11T17:40:00.733,0.969208,0.016422,0.030693,0.152058,0.000000,-125.029869,43.014863,0.012008,0.020546,0.043255,0.014336,0.017893,0.006926,0.021925,0.000958,0.044738,0.401288,0.423843,9.648959,1.732103,0.887818,0,0,,38.991384,-76.936694,-10.225000,,,
2026-09-11T17:40:00.767,1.002623,0.016422,0.031228,0.152058,0.000000,-124.156456,42.714377,0.012066,0.020230,0.042589,0.015771,0.018285,0.007613,0.008303,0.001748,0.044073,0.496216,0.395306,9.677300,1.724000,0.885892,0,0,,38.991384,-76.936694,-10.225000,,,
2026-09-11T17:40:00.801,1.036048,0.016422,0.031781,0.152058,0.000000,-123.360634,42.440585,0.012119,0.020881,0.043960,0.017217,0.018678,0.008306,-0.001200,-0.001315,0.045443,0.564961,0.349117,9.659452,1.720897,0.880994,0,0,,38.991384,-76.936694,-10.225000,,,
2026-09-11T17:40:00.834,1.069474,0.016422,0.032328,0.152058,0.000000,-122.836723,42.260340,0.012154,0.018960,0.039915,0.018619,0.019072,0.008979,0.002117,0.001335,0.041398,0.734028,0.505827,9.661021,1.729249,0.886305,0,0,,38.991384,-76.936694,-10.225000,,,
2026-09-11T17:40:00.867,1.102892,0.291371,0.041658,2.697877,0.000000,-122.698707,42.212858,0.215805,0.019288,0.040607,0.019964,0.022868,0.009694,0.014065,0.002307,0.042091,0.168674,0.452283,9.768600,1.700861,0.887551,0,0,,38.991384,-76.936694,-10.225000,,,
2026-09-11T17:40:00.900,1.136316,0.117788,0.046461,1.090628,0.000000,-122.698707,42.212858,0.087240,0.012784,0.026914,0.021093,0.027920,0.010333,0.012010,0.002733,0.028397,0.137882,0.041874,9.813711,1.685253,0.862617,0,0,,38.991384,-76.936694,-10.225000,,,
2026-09-11T17:40:00.934,1.169734,0.021353,0.046335,0.197712,0.000000,-122.698707,42.212858,0.015815,0.001966,0.004139,0.021612,0.029636,0.010616,0.011423,0.003485,0.005623,0.073256,0.326561,9.717704,1.668690,0.856548,0,0,,38.991384,-76.936694,-10.225000,,,
2026-09-11T17:40:00.968,1.203150,-0.000000,0.046278,-0.000000,0.000000,-122.698707,42.212858,-0.000000,-0.001797,-0.003784,0.021618,0.029901,0.010624,0.014818,0.004564,-0.002301,0.361767,0.320579,9.712212,1.656870,0.850163,0,0,,38.991384,-76.936694,-10.225000,,,
2026-09-11T17:40:01.001,1.236573,-0.000000,0.046278,-0.000000,0.000000,-122.698707,42.212858,-0.000000,-0.004508,-0.009490,0.021396,0.029903,0.010519,0.008951,0.000660,-0.008007,0.582711,0.442574,9.680341,1.656763,0.851749,0,0,,38.991384,-76.936694,-10.225000,,,
2026-09-11T17:40:01.034,1.269993,-0.000000,0.046278,-0.000000,0.000000,-122.985038,42.311366,-0.000000,-0.001323,-0.002786,0.021191,0.029905,0.010421,0.004090,0.003669,-0.001302,0.926728,0.581534,9.654941,1.678967,0.862317,0,0,,38.991384,-76.936694,-10.225000,,,
2026-09-11T17:40:01.067,1.303410,-0.000000,0.046278,-0.000000,0.000000,-123.294716,42.417907,-0.000000,0.002798,0.005891,0.021242,0.029904,0.010446,-0.001721,0.001756,0.007374,0.798163,0.530148,9.637289,1.692595,0.869439,0,0,,38.991384,-76.936694,-10.225000,,,
2026-09-11T17:40:01.101,1.336830,-0.000000,0.046278,-0.000000,0.000000,-123.336601,42.432317,-0.000000,0.001432,0.003016,0.021391,0.029903,0.010517,-0.017644,-0.001319,0.004499,0.630666,0.338722,9.704661,1.708386,0.864085,0,1,1.311875,38.991384,-76.936694,-10.214000,0.012244,-0.031505,3.466876
2026-09-11T17:40:01.136,1.370250,-0.000000,0.046278,-0.000000,0.000000,-123.336601,42.432317,-0.000000,-0.004227,-0.008898,0.021293,0.029904,0.010470,-0.024831,0.000411,-0.007415,0.402465,0.213785,9.753792,1.714062,0.850700,0,0,,38.991384,-76.936694,-10.214000,,,
2026-09-11T17:40:01.168,1.403671,-0.000000,0.046278,-0.000000,0.000000,-122.630729,42.189471,-0.000000,-0.009311,-0.019603,0.020817,0.029909,0.010244,-0.015255,-0.000788,-0.018119,0.483272,0.323423,9.710349,1.711982,0.844563,0,0,,38.991384,-76.936694,-10.214000,,,
2026-09-11T17:40:01.201,1.437090,-0.000000,0.046278,-0.000000,0.000000,-121.351509,41.749372,-0.000000,-0.008635,-0.018179,0.020185,0.029915,0.009944,0.000559,-0.001481,-0.016695,0.696959,0.429629,9.711526,1.718137,0.845373,0,0,,38.991384,-76.936694,-10.214000,,,
2026-09-11T17:40:01.235,1.470510,-0.000000,0.046278,-0.000000,0.000000,-120.826225,41.568655,-0.000000,-0.007029,-0.014797,0.019634,0.029920,0.009682,0.046728,0.001388,-0.013314,0.848864,0.569276,9.693776,1.733051,0.855217,0,0,,38.991384,-76.936694,-10.214000,,,
2026-09-11T17:40:01.268,1.503945,-0.000000,0.046278,-0.000000,0.000000,-120.721168,41.532512,-0.000000,-0.000991,-0.002086,0.019352,0.029923,0.009548,0.072904,0.002457,-0.000603,0.888384,0.679209,9.638074,1.750369,0.872079,0,0,,38.991384,-76.936694,-10.214000,,,
2026-09-11T17:40:01.302,1.537369,-0.000000,0.046278,-0.000000,0.000000,-120.721168,41.532512,-0.000000,0.002687,0.005658,0.019412,0.029922,0.009577,0.068551,0.003549,0.007141,0.689309,0.542210,9.637485,1.754581,0.879876,0,0,,38.991384,-76.936694,-10.214000,,,
2026-09-11T17:40:01.335,1.570788,-0.000000,0.046278,-0.000000,0.000000,-120.721168,41.532512,-0.000000,0.003365,0.007084,0.019625,0.029920,0.009678,0.050320,0.001678,0.008568,0.555841,0.506513,9.664160,1.749627,0.885273,0,0,,38.991384,-76.936694,-10.214000,,,
2026-09-11T17:40:01.368,1.604203,-0.000000,0.046278,-0.000000,0.000000,-120.721168,41.532512,-0.000000,0.002665,0.005611,0.019837,0.029918,0.009779,0.013862,0.001000,0.007094,0.422667,0.436396,9.639055,1.719634,0.886070,0,0,,38.991384,-76.936694,-10.214000,,,
2026-09-11T17:40:01.402,1.637619,-0.000000,0.046278,-0.000000,0.000000,-120.721168,41.532512,-0.000000,0.000992,0.002089,0.019965,0.029917,0.009840,-0.026101,0.002727,0.003573,0.424530,0.502395,9.615813,1.673632,0.891131,0,0,,38.991384,-76.936694,-10.214000,,,
2026-09-11T17:40:01.436,1.671038,-0.000000,0.046278,-0.000000,0.000000,-120.721168,41.532512,-0.000000,0.001018,0.002143,0.020036,0.029916,0.009873,-0.044636,0.001785,0.003627,0.655967,0.509455,9.642977,1.636506,0.896595,0,0,,38.991384,-76.936694,-10.214000,,,
2026-09-11T17:40:01.469,1.704453,-0.000000,0.046278,-0.000000,0.000000,-120.721168,41.532512,-0.000000,0.001455,0.003063,0.020123,0.029915,0.009915,-0.040591,-0.003057,0.004546,0.736970,0.602030,9.518727,1.595148,0.907992,0,0,,38.991384,-76.936694,-10.214000,,,
2026-09-11T17:40:01.502,1.737877,-0.000000,0.046278,-0.000000,0.000000,-120.721168,41.532512,-0.000000,0.009344,0.019672,0.020503,0.029912,0.010095,-0.001373,0.000774,0.021156,1.452757,0.878087,9.564230,1.595107,0.937146,0,0,,38.991384,-76.936694,-10.214000,,,
2026-09-11T17:40:01.535,1.771296,-0.000000,0.046278,-0.000000,0.000000,-120.831718,41.570545,-0.000000,0.023687,0.049868,0.021665,0.029900,0.010647,0.007579,-0.007364,0.051351,1.888270,0.842882,9.394869,1.620220,0.963694,0,0,,38.991384,-76.936694,-10.214000,,,
2026-09-11T17:40:01.569,1.804713,-0.000000,0.046278,-0.000000,0.000000,-120.831718,41.570545,-0.000000,0.039259,0.082650,0.023879,0.029876,0.011698,-0.025302,0.006229,0.084133,2.140988,1.373716,9.638662,1.660635,1.024325,0,0,,38.991384,-76.936694,-10.214000,,,
2026-09-11T17:40:01.603,1.838136,0.009643,0.046780,0.089292,0.000000,-120.831718,41.570545,0.007215,0.065560,0.138021,0.027567,0.029950,0.013453,-0.067004,0.026145,0.139505,2.326235,1.599170,9.682106,1.710698,1.098839,0,0,,38.991384,-76.936694,-10.214000,,,
2026-09-11T17:40:01.636,1.871555,0.340278,0.061300,3.150724,0.000000,-120.848198,41.576215,0.254553,0.089981,0.189434,0.033039,0.034242,0.016194,-0.102367,0.016052,0.190918,3.279442,1.261724,9.831853,1.818538,1.147606,0,0,,38.991384,-76.936694,-10.214000,,,
2026-09-11T17:40:01.669,1.904967,0.349900,0.072892,3.239815,0.000000,-120.772667,41.550229,0.261856,0.124886,0.262919,0.040596,0.042729,0.020099,-0.075180,0.010649,0.264402,2.851480,1.053430,10.665811,1.893859,1.180999,1,0,,38.991384,-76.936694,-10.214000,,,
2026-09-11T17:40:01.702,1.938394,0.476950,0.089122,4.416201,0.000000,-120.677223,41.517393,0.357118,0.170573,0.359100,0.050992,0.052833,0.025514,-0.002240,0.041987,0.360584,3.260025,1.211906,10.705037,1.992738,1.220457,1,0,,38.991384,-76.936694,-10.214000,,,
2026-09-11T17:40:01.736,1.971814,0.554661,0.107310,5.135754,0.000000,-120.787773,41.555426,0.415061,0.179695,0.378305,0.063314,0.065379,0.032100,0.074787,0.026519,0.379788,2.280242,4.016608,7.943190,2.026869,1.439314,1,0,,38.991384,-76.936694,-10.214000,,,
2026-09-11T17:40:01.770,2.005227,0.593695,0.128199,5.497173,0.000000,-121.423607,41.774177,0.442763,0.207896,0.437675,0.076946,0.079218,0.039566,0.193275,-0.009284,0.439159,1.759019,1.527092,8.745767,2.022571,1.492076,1,0,,38.991384,-76.936694,-10.214000,,,
2026-09-11T17:40:01.803,2.038651,0.623153,0.149510,5.769939,0.000000,-122.292900,42.073245,0.462560,0.222584,0.468599,0.092092,0.093684,0.048014,0.140766,0.085517,0.470082,1.423926,-0.054525,9.611400,1.991821,1.440289,1,0,,38.991384,-76.936694,-10.214000,,,
2026-09-11T17:40:01.836,2.072069,0.613884,0.170604,5.684107,0.000000,-122.478981,42.137264,0.455219,0.205945,0.433569,0.107166,0.108232,0.056663,0.109822,0.087451,0.435052,0.396483,-3.166763,7.956920,1.893328,1.188735,1,0,,38.991384,-76.936694,-10.214000,,,
2026-09-11T17:40:01.869,2.105484,0.662982,0.193077,6.138718,0.000000,-122.215309,42.046551,0.492331,0.210479,0.443113,0.121813,0.123163,0.065388,0.060694,0.029731,0.444596,1.873070,4.033279,8.914245,1.906700,1.405027,1,0,,38.991384,-76.936694,-10.214000,,,
2026-09-11T17:40:01.904,2.138907,0.682941,0.217110,6.323529,0.000000,-121.656379,41.854259,0.508685,0.227161,0.478233,0.137210,0.138805,0.074802,0.084185,0.022586,0.479717,-0.065705,1.544057,11.127508,1.809774,1.456077,1,0,,38.991384,-76.936694,-10.214000,,,
2026-09-11T17:40:01.937,2.172324,0.731857,0.241810,6.776455,0.000000,-120.785713,41.554718,0.547665,0.242188,0.509869,0.153720,0.155128,0.085125,0.075405,0.053365,0.511353,-0.319501,-1.366949,12.147890,1.703281,1.315632,1,0,,38.991384,-76.936694,-10.214000,,,
2026-09-11T17:40:01.970,2.205740,0.722490,0.266522,6.689725,0.000000,-120.332527,41.398805,0.541958,0.243515,0.512663,0.170804,0.171782,0.096073,0.041671,0.101104,0.514147,-0.858572,-3.951884,9.910110,1.574862,1.009442,1,0,,38.991384,-76.936694,-10.214000,,,
2026-09-11T17:40:02.003,2.239162,0.732419,0.291597,6.781657,0.000000,-120.484276,41.451012,0.548964,0.229228,0.482585,0.187436,0.188315,0.107096,-0.010958,0.069058,0.484068,-1.386562,-1.221909,8.766851,1.422395,0.884292,1,0,,38.991384,-76.936694,-10.214000,,,
2026-09-11T17:40:02.036,2.272586,0.810816,0.318878,7.507551,0.000000,-120.482902,41.450540,0.607728,0.265435,0.558810,0.204840,0.205657,0.118978,-0.018769,0.078075,0.560294,1.259958,0.401877,9.417424,1.445691,0.860868,1,0,,38.991384,-76.936694,-10.214000,,,
2026-09-11T17:40:02.070,2.306000,0.830421,0.346432,7.689085,0.000000,-120.413551,41.426680,0.622652,0.270214,0.568872,0.223680,0.223838,0.132095,-0.025807,0.071305,0.570356,1.273786,1.971921,8.509525,1.466593,0.938428,1,0,,38.991384,-76.936694,-10.214000,,,
2026-09-11T17:40:02.104,2.339427,0.849964,0.375165,7.870033,0.000000,-120.355873,41.406837,0.637500,0.275955,0.580959,0.242898,0.242216,0.145847,-0.061048,0.063767,0.582442,-0.481703,-0.414037,11.131136,1.371111,0.859557,1,1,2.308721,38.991382,-76.936692,-10.193000,0.112641,-0.245741,3.564712
2026-09-11T17:40:02.137,2.372845,0.859670,0.403961,7.959912,0.000000,-120.325660,41.396443,0.644884,0.277783,0.584807,0.262376,0.260649,0.160161,-0.043473,0.164844,0.586290,0.010591,1.906413,7.391076,1.308791,0.931411,1,0,,38.991382,-76.936692,-10.193000,,,
2026-09-11T17:40:02.170,2.406261,0.869314,0.432905,8.049203,0.000000,-120.524101,41.464714,0.651432,0.271858,0.572332,0.281710,0.279043,0.174827,-0.079628,-0.130121,0.573816,0.221140,3.880590,16.654438,1.260472,1.130608,1,0,,38.991382,-76.936692,-10.193000,,,
2026-09-11T17:40:02.204,2.439684,0.879219,0.462435,8.140913,0.000000,-120.782966,41.553773,0.657949,0.281252,0.592110,0.301169,0.297344,0.189968,-0.122456,0.003604,0.593593,0.027851,2.163053,11.666579,1.198307,1.215309,1,0,,38.991382,-76.936692,-10.193000,,,
2026-09-11T17:40:02.238,2.473108,0.831147,0.490262,7.695804,0.000000,-120.806999,41.562041,0.621895,0.285389,0.600819,0.321106,0.314807,0.205524,-0.110126,0.041290,0.602303,0.421490,-1.685861,10.230297,1.158538,1.050756,1,0,,38.991382,-76.936692,-10.193000,,,
2026-09-11T17:40:02.271,2.506528,0.811759,0.517589,7.516286,0.000000,-120.589332,41.487156,0.608092,0.269403,0.567163,0.340623,0.331236,0.220967,-0.104895,0.025825,0.568647,0.306556,1.380188,9.445569,1.112234,1.088512,1,0,,38.991382,-76.936692,-10.193000,,,
2026-09-11T17:40:02.304,2.539957,0.841188,0.545872,7.788775,0.000000,-120.524101,41.464714,0.630356,0.278084,0.585441,0.359888,0.347536,0.236668,0.014703,-0.029180,0.586924,1.179936,-0.421294,11.247835,1.124275,1.007578,1,0,,38.991382,-76.936692,-10.193000,,,
2026-09-11T17:40:02.337,2.573378,0.890414,0.575556,8.244576,0.000000,-120.480156,41.449595,0.667400,0.294468,0.619933,0.380030,0.364290,0.253433,0.043077,-0.022611,0.621416,1.677722,2.339082,9.066738,1.164310,1.103463,1,0,,38.991382,-76.936692,-10.193000,,,
2026-09-11T17:40:02.371,2.606794,0.929420,0.606192,8.605738,0.000000,-120.480156,41.449595,0.696636,0.303178,0.638268,0.401052,0.381558,0.271346,0.096281,0.018234,0.639752,2.070282,0.343723,10.141743,1.225471,1.067043,1,0,,38.991382,-76.936692,-10.193000,,,
2026-09-11T17:40:02.405,2.640224,0.958655,0.638770,8.876434,0.000000,-120.575599,41.482431,0.718185,0.322961,0.679917,0.423085,0.399030,0.290408,0.274846,0.062927,0.681401,2.160111,2.079696,12.039134,1.287317,1.140661,1,0,,38.991382,-76.936692,-10.193000,,,
2026-09-11T17:40:02.438,2.673640,1.007642,0.672693,9.330017,0.000000,-119.985084,41.279272,0.757246,0.333139,0.701345,0.446164,0.416767,0.310736,0.255744,-0.049736,0.702829,4.356604,4.578431,8.099214,1.483525,1.372528,1,0,,38.991382,-76.936692,-10.193000,,,
2026-09-11T17:40:02.471,2.707056,1.017481,0.706854,9.421123,0.000000,-116.106910,39.945038,0.780063,0.318693,0.670933,0.469092,0.434998,0.331858,0.301893,0.056160,0.672416,1.047154,5.316479,8.521783,1.454707,1.650203,1,0,,38.991382,-76.936692,-10.193000,,,
2026-09-11T17:40:02.504,2.740483,1.017780,0.740532,9.423887,0.000000,-106.300926,36.571419,0.817394,0.282085,0.593864,0.490231,0.454051,0.353094,0.181929,0.034553,0.595348,0.624978,5.208214,8.187376,1.390448,1.920396,1,0,,38.991382,-76.936692,-10.193000,,,
2026-09-11T17:40:02.538,2.773902,1.018019,0.774284,9.426104,0.000000,-100.372429,34.531799,0.838656,0.269054,0.566429,0.509619,0.473922,0.374445,0.159614,0.019770,0.567913,1.380874,-0.785807,5.599793,1.370399,1.799708,1,0,,38.991382,-76.936692,-10.193000,,,
2026-09-11T17:40:02.572,2.807318,1.018360,0.807591,9.429255,0.000000,-90.417442,31.106918,0.871924,0.225740,0.475242,0.527023,0.494655,0.395792,0.020351,0.028054,0.476726,2.211792,-2.618179,11.795635,1.402665,1.565581,1,0,,38.991382,-76.936692,-10.193000,,,
2026-09-11T17:40:02.606,2.840738,1.047743,0.842961,9.701325,0.000000,-78.975868,27.170597,0.932126,0.239553,0.504323,0.543392,0.516613,0.417860,0.042804,0.107712,0.505806,2.432540,-4.070250,7.584463,1.449463,1.236398,1,0,,38.991382,-76.936692,-10.193000,,,
2026-09-11T17:40:02.639,2.874151,1.057984,0.877082,9.796152,0.000000,-74.457054,25.615959,0.953997,0.202699,0.426734,0.558946,0.539590,0.440660,-0.038065,-0.031937,0.428217,-0.723633,-5.449850,9.278072,1.293264,0.825760,1,0,,38.991382,-76.936692,-10.193000,,,
2026-09-11T17:40:02.672,2.907568,1.097296,0.914474,10.160150,0.000000,-64.730720,22.269743,1.015449,0.182017,0.383193,0.572479,0.563922,0.463731,0.005547,0.028296,0.384677,0.006276,-0.997925,11.529188,1.192069,0.709146,1,0,,38.991382,-76.936692,-10.193000,,,
2026-09-11T17:40:02.705,2.940992,1.156170,0.953034,10.705280,0.000000,-61.007042,20.988661,1.079460,0.186115,0.391821,0.585431,0.589855,0.488042,-0.003242,0.046133,0.393304,2.619749,-1.200236,9.574331,1.268560,0.578517,1,0,,38.991382,-76.936692,-10.193000,,,
2026-09-11T17:40:02.738,2.974406,1.175924,0.992340,10.888188,0.000000,-53.440208,18.385393,1.115901,0.181487,0.382078,0.598361,0.616865,0.513606,0.011818,0.007343,0.383562,1.281337,1.525326,9.503036,1.262032,0.625605,1,0,,38.991382,-76.936692,-10.193000,,,
2026-09-11T17:40:02.772,3.007821,1.215373,1.033491,11.253450,0.000000,-50.773964,17.468107,1.159325,0.154335,0.324916,0.610173,0.644958,0.539825,-0.110099,-0.021662,0.326399,-0.331563,0.542112,7.296148,1.155512,0.611735,1,0,,38.991382,-76.936692,-10.193000,,,
2026-09-11T17:40:02.806,3.041268,1.254619,1.075485,11.616845,0.000000,-44.862632,15.434392,1.209373,0.155049,0.326420,0.621065,0.674308,0.566928,-0.148484,0.007079,0.327903,1.971921,-1.219163,11.491727,1.205391,0.482703,1,0,,38.991382,-76.936692,-10.193000,,,
2026-09-11T17:40:02.839,3.074686,1.283965,1.118329,11.888568,0.000000,-40.720787,14.009445,1.245775,0.146342,0.308089,0.631667,0.704590,0.595058,-0.137641,0.071539,0.309573,1.712731,2.479219,10.219118,1.246884,0.595369,1,0,,38.991382,-76.936692,-10.193000,,,
2026-09-11T17:40:02.872,3.108104,1.303332,1.161964,12.067886,0.000000,-39.597435,13.622971,1.266665,0.143520,0.302148,0.641864,0.735462,0.623915,-0.143275,-0.041727,0.303632,1.016165,4.088098,11.735128,1.250456,0.811048,1,0,,38.991382,-76.936692,-10.193000,,,
2026-09-11T17:40:02.906,3.141533,1.303152,1.205895,12.066219,0.000000,-40.408363,13.901960,1.264980,0.133114,0.280239,0.651598,0.766446,0.653103,-0.184514,0.012692,0.281723,-1.095305,5.561744,12.350593,1.123585,1.121741,1,0,,38.991382,-76.936692,-10.193000,,,
2026-09-11T17:40:02.940,3.174950,1.274511,1.248368,11.801030,0.000000,-41.598320,14.311349,1.234959,0.155891,0.328193,0.661764,0.796581,0.682425,-0.014742,-0.092195,0.329676,3.741727,8.706638,7.476590,1.320583,1.629449,1,0,,38.991382,-76.936692,-10.193000,,,
2026-09-11T17:40:02.973,3.208366,1.255608,1.290716,11.625998,0.000000,-42.346077,14.568604,1.215236,0.171623,0.361311,0.673284,0.825344,0.712062,-0.147745,-0.006832,0.362795,1.036465,-2.935327,0.347842,1.352166,1.375104,1,0,,38.991382,-76.936692,-10.193000,,,
2026-09-11T17:40:03.006,3.241792,1.265783,1.333217,11.720217,0.000000,-42.718239,14.696642,1.224370,0.163808,0.344859,0.685087,0.853547,0.742037,-0.157004,-0.053243,0.346342,1.295655,6.268313,5.910468,1.412468,1.721084,1,0,,38.991382,-76.936692,-10.193000,,,
2026-09-11T17:40:03.039,3.275207,1.246500,1.374551,11.541670,0.000000,-42.790336,14.721446,1.205581,0.161052,0.339058,0.696513,0.881380,0.772086,-0.109033,-0.065004,0.340541,2.149520,4.306002,14.738709,1.532266,1.936912,1,0,,38.991382,-76.936692,-10.193000,,,
2026-09-11T17:40:03.073,3.308623,1.227360,1.414899,11.364441,0.000000,-42.738838,14.703729,1.187165,0.150244,0.316303,0.707463,0.908549,0.801871,-0.061531,-0.085967,0.317787,1.435890,2.744881,11.264801,1.604407,2.051353,1,0,,38.991382,-76.936692,-10.193000,,,
2026-09-11T17:40:03.107,3.342050,1.198368,1.455612,11.095999,0.000000,-42.581596,14.649632,1.159410,0.172361,0.362865,0.718814,0.934683,0.831603,-0.047073,-0.019482,0.364348,4.666004,-1.775788,8.272596,1.885741,1.868506,1,1,3.310885,38.991375,-76.936685,-10.066000,0.775954,-1.019843,3.466876
2026-09-11T17:40:03.140,3.375465,1.189247,1.495641,11.011542,0.000000,-42.571983,14.646324,1.150602,0.143171,0.301412,0.729913,0.960096,0.861127,-0.062415,-0.023155,0.302896,-1.856987,-0.378537,6.549175,1.737858,1.783117,1,0,,38.991375,-76.936685,-10.066000,,,
2026-09-11T17:40:03.173,3.408878,1.180082,1.534679,10.926681,0.000000,-41.844825,14.396156,1.143027,0.130647,0.275047,0.739543,0.985463,0.890209,0.023150,0.015461,0.276531,0.044816,2.056945,9.235217,1.706077,1.858609,1,0,,38.991375,-76.936685,-10.066000,,,
2026-09-11T17:40:03.207,3.442300,1.170671,1.573945,10.839550,0.000000,-40.337639,13.877628,1.136500,0.122020,0.256885,0.748432,1.010632,0.919113,0.056825,0.027437,0.258368,-3.210599,4.631289,14.603377,1.451745,2.101658,1,0,,38.991375,-76.936685,-10.066000,,,
2026-09-11T17:40:03.240,3.475716,1.084214,1.610306,10.039017,0.000000,-37.407036,12.869393,1.056979,0.126240,0.265768,0.757165,1.034545,0.947192,-0.006835,-0.001503,0.267252,-0.551820,0.239380,4.851840,1.362712,2.057991,1,0,,38.991375,-76.936685,-10.066000,,,
2026-09-11T17:40:03.273,3.509126,1.045543,1.645191,9.680955,0.000000,-31.532783,10.848435,1.026858,0.122802,0.258531,0.765923,1.056870,0.974222,-0.033530,0.067505,0.260014,0.589085,-1.216907,8.055673,1.340640,1.921439,1,0,,38.991375,-76.936685,-10.066000,,,
2026-09-11T17:40:03.306,3.542550,1.094619,1.681951,10.135362,0.000000,-31.152382,10.717562,1.075524,0.092742,0.195247,0.773507,1.079594,1.001264,0.023531,0.037859,0.196731,1.935244,1.629963,11.927044,1.397486,1.974520,1,0,,38.991375,-76.936685,-10.066000,,,
2026-09-11T17:40:03.340,3.575966,1.133864,1.719502,10.498741,0.000000,-30.677223,10.554090,1.114682,0.094495,0.198937,0.780093,1.103496,1.029148,0.048790,0.020616,0.200420,3.490089,2.040077,8.832752,1.546556,2.052825,1,0,,38.991375,-76.936685,-10.066000,,,
2026-09-11T17:40:03.374,3.609383,1.143650,1.757811,10.589353,0.000000,-29.919853,10.293527,1.125243,0.090912,0.191393,0.786615,1.127828,1.057753,0.069888,0.035930,0.192877,3.549125,0.409035,9.970813,1.691872,2.024947,1,0,,38.991375,-76.936685,-10.066000,,,
2026-09-11T17:40:03.407,3.642798,1.201980,1.798130,11.129448,0.000000,-29.998817,10.320694,1.182533,0.101371,0.213413,0.793378,1.152682,1.087406,0.057579,-0.031946,0.214897,1.037936,1.925045,12.413062,1.670755,2.093256,1,0,,38.991375,-76.936685,-10.066000,,,
2026-09-11T17:40:03.440,3.676228,1.250610,1.840068,11.579718,0.000000,-30.179405,10.382823,1.230131,0.110356,0.232327,0.800828,1.178327,1.118727,0.078149,0.040577,0.233811,6.059921,1.067650,7.974474,1.976178,2.103065,1,0,,38.991375,-76.936685,-10.066000,,,
2026-09-11T17:40:03.474,3.709643,1.338108,1.884939,12.389885,0.000000,-30.200691,10.390146,1.316166,0.121276,0.255317,0.808976,1.205023,1.152076,0.110364,0.097503,0.256801,2.556692,-2.854520,6.898096,2.049942,1.855269,1,0,,38.991375,-76.936685,-10.066000,,,
2026-09-11T17:40:03.507,3.743060,1.396521,1.931827,12.930746,0.000000,-30.723915,10.570154,1.372823,0.134951,0.284107,0.817989,1.232772,1.187668,0.009099,-0.044837,0.285590,2.688689,-1.771081,12.210750,2.128067,1.676979,1,0,,38.991375,-76.936685,-10.066000,,,
2026-09-11T17:40:03.541,3.776484,1.454853,1.980766,13.470858,0.000000,-30.963554,10.652599,1.429780,0.135166,0.284560,0.827492,1.261319,1.225073,0.043489,0.018839,0.286043,3.408203,2.412632,9.976501,2.253068,1.770726,1,0,,38.991375,-76.936685,-10.066000,,,
2026-09-11T17:40:03.574,3.809899,1.494002,2.030690,13.833356,0.000000,-31.023292,10.673151,1.468156,0.139035,0.292704,0.837137,1.290522,1.263964,-0.061870,-0.007816,0.294188,4.902933,2.818333,9.953162,2.479241,1.888233,1,0,,38.991375,-76.936685,-10.066000,,,
2026-09-11T17:40:03.607,3.843315,1.533068,2.082117,14.195070,0.000000,-31.464805,10.825048,1.505787,0.148503,0.312638,0.847251,1.320017,1.304236,0.022460,-0.035027,0.314122,3.371134,5.022084,9.106946,2.607970,2.144653,1,0,,38.991375,-76.936685,-10.066000,,,
2026-09-11T17:40:03.641,3.876736,1.552707,2.133722,14.376916,0.000000,-32.219429,11.084666,1.523740,0.146444,0.308304,0.857627,1.349624,1.345595,0.000480,-0.021968,0.309788,3.962475,8.359777,8.669079,2.778000,2.614935,1,0,,38.991375,-76.936685,-10.066000,,,
2026-09-11T17:40:03.675,3.910154,1.552961,2.185600,14.379264,0.000000,-33.707390,11.596579,1.521260,0.158391,0.333455,0.868350,1.378833,1.387563,0.061314,0.030615,0.334938,1.637416,3.576093,10.435256,2.802344,2.767344,1,0,,38.991375,-76.936685,-10.066000,,,
2026-09-11T17:40:03.708,3.943570,1.534234,2.236367,14.205866,0.000000,-35.097847,12.074947,1.500288,0.170264,0.358451,0.879911,1.407015,1.429803,-0.016432,-0.046010,0.359935,-0.752170,2.341632,4.194893,2.680661,2.835999,1,0,,38.991375,-76.936685,-10.066000,,,
2026-09-11T17:40:03.741,3.976991,1.486681,2.286262,13.765563,0.000000,-36.412773,12.527330,1.451287,0.154968,0.326248,0.891352,1.434022,1.471431,-0.036283,0.153233,0.327731,-3.868233,2.977985,15.159316,2.368629,2.949389,1,0,,38.991375,-76.936685,-10.066000,,,
2026-09-11T17:40:03.774,4.010458,1.477622,2.335378,13.681689,0.000000,-36.024818,12.393859,1.443187,0.151764,0.319504,0.902158,1.460243,1.512476,-0.272037,-0.086453,0.320988,-1.798344,-6.958603,8.969849,2.204775,2.416825,1,0,,38.991375,-76.936685,-10.066000,,,
2026-09-11T17:40:03.807,4.043861,1.487810,2.384271,13.776020,0.000000,-35.678062,12.274563,1.453799,0.162525,0.342159,0.913209,1.485889,1.553838,-0.058970,-0.014144,0.343642,3.378979,6.556628,6.392269,2.387597,2.765249,1,0,,38.991375,-76.936685,-10.066000,,,
2026-09-11T17:40:03.840,4.077268,1.478600,2.433796,13.690743,0.000000,-35.814018,12.321336,1.444542,0.176660,0.371916,0.925136,1.510744,1.595763,0.021999,-0.013180,0.373399,2.500009,0.586340,8.451861,2.519305,2.720086,1,0,,38.991375,-76.936685,-10.066000,,,
2026-09-11T17:40:03.874,4.110669,1.469066,2.482768,13.602459,0.000000,-35.686302,12.277397,1.435467,0.167675,0.353000,0.937243,1.534840,1.637785,0.008974,0.024176,0.354484,3.493619,-1.051469,11.613427,2.720829,2.571213,1,0,,38.991375,-76.936685,-10.066000,,,
2026-09-11T17:40:03.909,4.144089,1.478693,2.532966,13.691604,0.000000,-35.015449,12.046600,1.446130,0.158066,0.332770,0.948702,1.558717,1.679953,-0.042730,-0.095353,0.334254,-0.428354,-2.934444,11.318639,2.667684,2.303461,1,0,,38.991375,-76.936685,-10.066000,,,
2026-09-11T17:40:03.942,4.177508,1.459070,2.581625,13.509906,0.000000,-33.137474,11.400507,1.430282,0.136853,0.288112,0.959077,1.582505,1.722007,0.019969,0.025353,0.289596,-0.032558,-4.486641,8.667706,2.639095,1.942631,1,0,,38.991375,-76.936685,-10.066000,,,
2026-09-11T17:40:03.974,4.210910,1.459386,2.629897,13.512836,0.000000,-30.232963,10.401249,1.435405,0.117627,0.247636,0.968024,1.606324,1.763737,0.036581,0.056234,0.249119,-0.703823,0.081493,12.030406,2.562544,1.885691,1,0,,38.991375,-76.936685,-10.066000,,,
2026-09-11T17:40:04.007,4.244316,1.430701,2.677098,13.247228,0.000000,-27.998619,9.632552,1.410529,0.103169,0.217198,0.975788,1.630077,1.805079,-0.045627,0.004741,0.218681,0.971937,-0.466306,11.666383,2.590503,1.797065,1,0,,38.991375,-76.936685,-10.066000,,,
2026-09-11T17:40:04.042,4.277720,1.401794,2.723741,12.979574,0.000000,-24.978065,8.593371,1.386057,0.085798,0.180628,0.982433,1.653511,1.845607,-0.021349,0.069551,0.182112,-2.865699,0.711472,9.971206,2.367809,1.789363,1,0,,38.991375,-76.936685,-10.066000,,,
2026-09-11T17:40:04.076,4.311137,1.382809,2.770282,12.803791,0.000000,-23.394661,8.048622,1.369188,0.075518,0.158986,0.988107,1.676707,1.885463,-0.065209,-0.046345,0.160469,-2.019876,-2.724287,11.655596,2.199361,1.561219,1,1,4.308309,38.991367,-76.936673,-10.014000,1.776326,-1.930715,4.665574
2026-09-11T17:40:04.108,4.344556,1.354043,2.814971,12.537433,0.000000,-23.599968,8.119255,1.340470,0.089417,0.188246,0.993909,1.699207,1.924849,-0.088464,0.040431,0.189729,0.740990,-2.751354,10.204604,2.207383,1.331638,1,0,,38.991367,-76.936673,-10.014000,,,
2026-09-11T17:40:04.141,4.377960,1.334695,2.859301,12.358283,0.000000,-25.189552,8.666130,1.319457,0.089426,0.188264,1.000198,1.720813,1.963783,-0.007749,0.104546,0.189748,-1.355671,-3.106845,6.082967,2.076107,1.081979,1,0,,38.991367,-76.936673,-10.014000,,,
2026-09-11T17:40:04.175,4.411362,1.344572,2.904628,12.449738,0.000000,-28.576088,9.831223,1.324827,0.112390,0.236610,1.007294,1.741690,2.002843,0.006465,-0.011701,0.238093,1.036955,1.433732,8.786464,2.097025,1.124871,1,0,,38.991367,-76.936673,-10.014000,,,
2026-09-11T17:40:04.209,4.444770,1.345110,2.950034,12.454720,0.000000,-30.397758,10.457944,1.322765,0.126799,0.266945,1.015705,1.761768,2.042447,0.061437,0.032825,0.268428,2.020562,2.957882,8.248570,2.178016,1.263428,1,0,,38.991367,-76.936673,-10.014000,,,
2026-09-11T17:40:04.243,4.478188,1.355289,2.996050,12.548976,0.000000,-33.267936,11.445391,1.328339,0.145394,0.306093,1.025280,1.781055,2.082582,0.040350,0.028099,0.307577,-0.608307,2.384193,8.614456,2.082864,1.359876,1,0,,38.991367,-76.936673,-10.014000,,,
2026-09-11T17:40:04.275,4.511596,1.375198,3.042437,12.733312,0.000000,-35.778999,12.309289,1.343583,0.159235,0.335231,1.035993,1.799642,2.123475,0.042955,-0.024355,0.336714,1.596523,-1.316641,9.229431,2.125447,1.212717,1,0,,38.991367,-76.936673,-10.014000,,,
2026-09-11T17:40:04.308,4.545013,1.385281,3.089148,12.826672,0.000000,-36.105156,12.421499,1.352853,0.149776,0.315318,1.046862,1.817937,2.164970,0.073928,0.042933,0.316802,-3.001031,-0.750013,9.693874,1.862892,1.105412,1,0,,38.991367,-76.936673,-10.014000,,,
2026-09-11T17:40:04.341,4.578416,1.424515,3.137158,13.189957,0.000000,-35.568886,12.237002,1.392149,0.167013,0.351606,1.058001,1.836051,2.207414,0.147613,0.011385,0.353089,2.123532,2.804604,7.444228,1.928141,1.225409,1,0,,38.991367,-76.936673,-10.014000,,,
2026-09-11T17:40:04.375,4.611826,1.434499,3.185407,13.282400,0.000000,-34.439354,11.848401,1.403936,0.142636,0.300286,1.068891,1.854224,2.250754,0.172364,0.059120,0.301769,1.618293,0.115522,8.640738,1.952341,1.174357,1,0,,38.991367,-76.936673,-10.014000,,,
2026-09-11T17:40:04.409,4.645236,1.473392,3.234523,13.642518,0.000000,-33.151893,11.405468,1.444296,0.142784,0.300597,1.078928,1.872710,2.294853,0.238457,-0.018994,0.302081,2.563556,5.548112,5.943320,2.029783,1.474904,1,0,,38.991367,-76.936673,-10.014000,,,
2026-09-11T17:40:04.443,4.678653,1.492999,3.284840,13.824069,0.000000,-31.444206,10.817961,1.466467,0.143000,0.301053,1.088981,1.891241,2.340072,0.256716,0.065822,0.302536,0.551428,-2.147460,9.821262,1.970241,1.273172,1,0,,38.991367,-76.936673,-10.014000,,,
2026-09-11T17:40:04.476,4.712064,1.512801,3.335698,14.007417,0.000000,-30.607872,10.530231,1.487323,0.121992,0.256826,1.098301,1.909970,2.385939,0.222628,0.014124,0.258309,0.623605,-0.245264,7.329588,1.912409,1.200787,1,0,,38.991367,-76.936673,-10.014000,,,
2026-09-11T17:40:04.508,4.745471,1.542041,3.386858,14.278153,0.000000,-27.966346,9.621449,1.520350,0.114790,0.241663,1.106627,1.929116,2.432555,0.178785,0.012666,0.243147,0.355981,-1.494043,7.520230,1.836651,1.049300,1,0,,38.991367,-76.936673,-10.014000,,,
2026-09-11T17:40:04.542,4.778880,1.552035,3.438685,14.370690,0.000000,-24.347038,8.376275,1.535479,0.091457,0.192541,1.113881,1.948716,2.479816,0.177095,-0.064405,0.194025,-0.957521,1.305265,9.159019,1.675655,1.085398,1,0,,38.991367,-76.936673,-10.014000,,,
2026-09-11T17:40:04.577,4.812287,1.591297,3.492095,14.734235,0.000000,-19.838524,6.825180,1.580020,0.076770,0.161622,1.119796,1.969010,2.527818,0.111475,-0.050236,0.163105,2.237976,0.616936,12.280770,1.724809,1.079133,1,0,,38.991367,-76.936673,-10.014000,,,
2026-09-11T17:40:04.610,4.845707,1.611113,3.546069,14.917711,0.000000,-15.756416,5.420785,1.603908,0.072311,0.152233,1.125041,1.989828,2.576842,0.052552,-0.026791,0.153716,1.388229,-1.377344,12.204180,1.722916,0.944494,1,0,,38.991367,-76.936673,-10.014000,,,
2026-09-11T17:40:04.643,4.879125,1.650261,3.601547,15.280193,0.000000,-9.356193,3.218874,1.647657,0.041335,0.087021,1.129038,2.011438,2.626727,0.022082,-0.073708,0.088505,0.434925,2.514425,10.979624,1.663833,1.069933,1,0,,38.991367,-76.936673,-10.014000,,,
2026-09-11T17:40:04.676,4.912535,1.709179,3.658467,15.825732,0.000000,-4.460411,1.534545,1.708566,0.018996,0.039991,1.131160,2.034441,2.677867,-0.034340,-0.011663,0.041474,3.998858,0.707648,15.356822,1.839834,1.081825,1,0,,38.991367,-76.936673,-10.014000,,,
2026-09-11T17:40:04.709,4.945937,1.738603,3.716269,16.098175,0.000000,-2.091484,0.719547,1.738466,0.002125,0.004474,1.131903,2.058605,2.730121,-0.112135,0.109326,0.005957,1.168266,-0.393051,8.780875,1.832607,1.026245,1,0,,38.991367,-76.936673,-10.014000,,,
2026-09-11T17:40:04.743,4.979339,1.768331,3.775222,16.373437,0.000000,-0.194282,0.066840,1.768330,-0.030872,-0.064994,1.130892,2.083953,2.782920,-0.114902,0.091711,-0.063510,-1.162088,-3.849993,10.584219,1.677955,0.755468,1,0,,38.991367,-76.936673,-10.014000,,,
2026-09-11T17:40:04.777,5.012747,1.778349,3.835399,16.466193,0.000000,1.475640,-0.507674,1.778279,-0.035290,-0.074296,1.128565,2.110244,2.836022,-0.127461,-0.041242,-0.072812,3.073796,3.497248,11.516145,1.803305,0.964416,1,0,,38.991367,-76.936673,-10.014000,,,
2026-09-11T17:40:04.810,5.046171,1.807577,3.896084,16.736821,0.000000,1.374703,-0.472948,1.807515,-0.025896,-0.054518,1.126413,2.136872,2.889716,-0.135677,-0.025233,-0.053034,-1.070690,-1.294380,5.714629,1.664919,0.858613,1,0,,38.991367,-76.936673,-10.014000,,,
2026-09-11T17:40:04.843,5.079578,1.807496,3.956290,16.736071,0.000000,1.292305,-0.444600,1.807441,-0.019939,-0.041977,1.124801,2.163565,2.943882,-0.134390,-0.048373,-0.040494,1.028129,3.963162,4.510471,1.669676,1.092945,1,0,,38.991367,-76.936673,-10.014000,,,
2026-09-11T17:40:04.876,5.112981,1.788195,4.015722,16.557358,0.000000,1.200981,-0.413182,1.788148,-0.030807,-0.064857,1.123016,2.190281,2.997671,-0.255997,-0.133265,-0.063373,1.562690,4.625895,12.838964,1.715793,1.370216,1,0,,38.991367,-76.936673,-10.014000,,,
2026-09-11T17:40:04.910,5.146387,1.788574,4.075598,16.560874,0.000000,-1.113701,0.383154,1.788534,-0.011010,-0.023179,1.121546,2.216817,3.051201,-0.156281,0.005766,-0.021696,0.106500,-2.071066,6.820721,1.678102,1.205948,1,0,,38.991367,-76.936673,-10.014000,,,
2026-09-11T17:40:04.943,5.179793,1.798462,4.135519,16.652422,0.000000,-5.299492,1.823220,1.797551,0.030427,0.064056,1.122229,2.242519,3.105305,-0.103991,-0.010439,0.065540,-1.100306,-8.551693,15.172261,1.573430,0.613868,1,0,,38.991367,-76.936673,-10.014000,,,
2026-09-11T17:40:04.978,5.213202,1.798762,4.195651,16.655207,0.000000,-5.714912,1.966139,1.797703,0.040786,0.085865,1.124733,2.267424,3.159967,0.011561,0.057088,0.087349,0.775216,-2.890902,4.026807,1.599681,0.392325,1,0,,38.991367,-76.936673,-10.014000,,,
2026-09-11T17:40:05.011,5.246629,1.799039,4.256045,16.657772,0.000000,-7.148628,2.459390,1.797382,0.040647,0.085573,1.127598,2.292040,3.214797,0.099869,-0.038959,0.087057,1.881994,7.235150,6.670091,1.701257,0.828946,1,0,,38.991367,-76.936673,-10.014000,,,
2026-09-11T17:40:05.043,5.280035,1.789831,4.315602,16.572513,0.000000,-8.505439,2.926183,1.787498,0.045812,0.096447,1.130639,2.316330,3.269546,0.109039,-0.022979,0.097931,-2.347614,1.182682,11.800734,1.530711,0.867516,1,0,,38.991367,-76.936673,-10.014000,,,
2026-09-11T17:40:05.077,5.313446,1.761273,4.374635,16.308083,0.000000,-7.919044,2.724442,1.759282,0.042414,0.089292,1.133742,2.340159,3.323814,0.157930,-0.017044,0.090775,-0.966642,-0.191426,11.729048,1.452736,0.817691,1,1,5.307442,38.991359,-76.936658,-9.947000,3.114476,-2.776908,4.224566
2026-09-11T17:40:05.110,5.346851,1.771645,4.433850,16.404118,0.000000,-6.342506,2.182055,1.770360,0.044248,0.093154,1.136789,2.363718,3.377875,0.095232,-0.147834,0.094638,-0.487096,2.380074,10.297375,1.404819,0.934382,1,0,,38.991359,-76.936658,-9.947000,,,
2026-09-11T17:40:05.144,5.380258,1.723196,4.491498,15.955518,0.000000,-5.826835,2.004645,1.722141,0.013271,0.027939,1.138812,2.387325,3.431232,0.015677,0.107915,0.029423,-3.025548,-6.488374,0.321854,1.189268,0.483275,1,0,,38.991359,-76.936658,-9.947000,,,
2026-09-11T17:40:05.178,5.413677,1.704489,4.548799,15.782301,0.000000,-4.349861,1.496512,1.703907,0.014152,0.029793,1.139776,2.410852,3.483424,0.050541,-0.001397,0.031277,-2.943074,-0.427766,12.052667,0.975712,0.429289,1,0,,38.991359,-76.936658,-9.947000,,,
2026-09-11T17:40:05.211,5.447098,1.646246,4.603873,15.243014,0.000000,-3.173637,1.091848,1.645947,0.004007,0.008435,1.140415,2.433948,3.534416,-0.051668,0.013303,0.009919,2.237289,2.646815,15.325637,1.095693,0.577358,1,0,,38.991359,-76.936658,-9.947000,,,
2026-09-11T17:40:05.244,5.480506,1.636542,4.657972,15.153171,0.000000,-3.125572,1.075311,1.636254,-0.014515,-0.030557,1.140046,2.456990,3.584164,0.053336,0.012215,-0.029074,-1.737935,2.384095,6.317640,0.949882,0.710870,1,0,,38.991359,-76.936658,-9.947000,,,
2026-09-11T17:40:05.277,5.513905,1.626818,4.712169,15.063128,0.000000,-3.015022,1.037278,1.626551,-0.002111,-0.004445,1.139461,2.480008,3.633551,0.050925,0.018222,-0.002961,1.054215,2.444896,12.380209,0.977611,0.844051,1,0,,38.991359,-76.936658,-9.947000,,,
2026-09-11T17:40:05.310,5.547311,1.627202,4.766354,15.066682,0.000000,-3.052787,1.050271,1.626928,0.006170,0.012989,1.139604,2.502663,3.682947,0.084092,0.031359,0.014473,-0.659988,1.558963,16.664931,0.887760,0.916607,1,0,,38.991359,-76.936658,-9.947000,,,
2026-09-11T17:40:05.345,5.580729,1.637544,4.820339,15.162442,0.000000,-3.717460,1.278943,1.637136,0.001255,0.002641,1.139865,2.525339,3.732549,-0.036757,-0.115344,0.004125,0.642826,-1.271628,14.994074,0.878369,0.806167,1,0,,38.991359,-76.936658,-9.947000,,,
2026-09-11T17:40:05.379,5.614144,1.637449,4.874951,15.161566,0.000000,-4.598427,1.582027,1.636825,0.011453,0.024112,1.140312,2.547984,3.782341,0.026528,0.013558,0.025595,0.300770,-0.888286,8.485498,0.841380,0.719516,1,0,,38.991359,-76.936658,-9.947000,,,
2026-09-11T17:40:05.411,5.647551,1.676536,4.930817,15.523479,0.000000,-4.647865,1.599036,1.675883,0.013731,0.028907,1.141197,2.570670,3.832812,0.032953,-0.068259,0.030390,2.875212,2.273182,7.637615,0.964697,0.837912,1,0,,38.991359,-76.936658,-9.947000,,,
2026-09-11T17:40:05.444,5.680955,1.735058,4.988613,16.065352,0.000000,-4.513282,1.552735,1.734421,0.023230,0.048905,1.142497,2.593799,3.884868,0.048253,0.048469,0.050389,2.438325,-5.090926,13.501502,1.050871,0.475998,1,0,,38.991359,-76.936658,-9.947000,,,
2026-09-11T17:40:05.479,5.714356,1.754765,5.046923,16.247823,0.000000,-4.684257,1.611556,1.754071,0.023740,0.049979,1.144149,2.617237,3.938209,-0.039387,-0.009665,0.051462,-1.586912,-2.373994,7.149342,0.870436,0.293811,1,0,,38.991359,-76.936658,-9.947000,,,
2026-09-11T17:40:05.512,5.747780,1.842790,5.108838,17.062867,0.000000,-4.605980,1.584626,1.842085,0.011653,0.024533,1.145394,2.641534,3.993182,0.021069,0.022344,0.026017,-0.107775,3.590901,11.830841,0.787770,0.502488,1,0,,38.991359,-76.936658,-9.947000,,,
2026-09-11T17:40:05.544,5.781267,1.882258,5.171727,17.428318,0.000000,-4.684257,1.611556,1.881514,0.013771,0.028991,1.146290,2.666850,4.050158,-0.055553,0.114578,0.030475,1.560042,-2.802937,9.321417,0.816678,0.293858,1,0,,38.991359,-76.936658,-9.947000,,,
2026-09-11T17:40:05.578,5.814674,1.901900,5.235476,17.610182,0.000000,-4.640312,1.596438,1.901161,0.018422,0.038784,1.147422,2.692350,4.107970,-0.080963,0.017030,0.040267,-0.466600,-2.854422,8.634559,0.715935,0.083484,1,0,,38.991359,-76.936658,-9.947000,,,
2026-09-11T17:40:05.611,5.848079,1.940953,5.300405,17.971785,0.000000,-4.728203,1.626675,1.940171,0.017465,0.036769,1.148684,2.718126,4.166728,-0.113491,0.003306,0.038253,2.079402,-1.136002,10.797612,0.781350,-0.013194,1,0,,38.991359,-76.936658,-9.947000,,,
2026-09-11T17:40:05.646,5.881503,1.950589,5.365858,18.061005,0.000000,-4.640312,1.596438,1.949831,0.002273,0.004786,1.149378,2.744438,4.226175,-0.162156,0.089236,0.006269,-0.233006,0.466502,14.674867,0.701047,-0.001101,1,0,,38.991359,-76.936658,-9.947000,,,
2026-09-11T17:40:05.679,5.914918,1.980012,5.431823,18.333444,0.000000,-4.772148,1.641794,1.979199,0.007658,0.016123,1.149728,2.771129,4.286151,-0.164093,0.097433,0.017606,0.470033,-2.323195,10.296296,0.678238,-0.171147,1,0,,38.991359,-76.936658,-9.947000,,,
2026-09-11T17:40:05.712,5.948340,1.990295,5.498210,18.428656,0.000000,-4.804420,1.652897,1.989467,0.024633,0.051859,1.150864,2.797709,4.346913,-0.158477,0.017654,0.053342,0.763840,-0.739519,6.109543,0.684562,-0.241439,1,0,,38.991359,-76.936658,-9.947000,,,
2026-09-11T17:40:05.745,5.981745,1.990630,5.564762,18.431755,0.000000,-5.524711,1.900703,1.989534,0.030994,0.065250,1.152820,2.823896,4.408003,-0.290587,0.343103,0.066733,-2.148637,1.515618,10.344545,0.511474,-0.166750,1,0,,38.991359,-76.936658,-9.947000,,,
2026-09-11T17:40:05.780,6.015152,1.971706,5.631240,18.256535,0.000000,-6.651497,2.288359,1.970133,0.018888,0.039764,1.154574,2.849928,4.468809,-0.334954,-0.631108,0.041247,2.618572,9.530691,9.653961,0.658097,0.429075,1,0,,38.991359,-76.936658,-9.947000,,,
2026-09-11T17:40:05.813,6.048570,1.943243,5.695553,17.992987,0.000000,-8.836403,3.040047,1.940508,0.053861,0.113391,1.157133,2.875159,4.529097,-0.316923,-0.038041,0.114875,2.606510,2.270436,19.380490,0.807547,0.539420,1,0,,38.991359,-76.936658,-9.947000,,,
2026-09-11T17:40:05.845,6.081990,1.953445,5.760573,18.087450,0.000000,-10.585289,3.641728,1.949500,0.084340,0.177557,1.161995,2.899025,4.589602,-0.096303,0.120664,0.179041,-0.027557,-0.195447,3.198439,0.791248,0.480726,1,0,,38.991359,-76.936658,-9.947000,,,
2026-09-11T17:40:05.878,6.115396,1.954422,5.825171,18.096496,0.000000,-14.026756,4.825719,1.947494,0.096322,0.202782,1.168347,2.921936,4.650600,-0.142553,-0.048104,0.204266,-3.086251,3.736726,11.320993,0.583618,0.674042,1,0,,38.991359,-76.936658,-9.947000,,,
2026-09-11T17:40:05.912,6.148804,1.925519,5.888972,17.828878,0.000000,-17.722969,6.097352,1.914626,0.101727,0.214163,1.175312,2.943950,4.711330,-0.056266,0.146334,0.215646,-0.787572,4.857626,14.522472,0.530059,0.936849,1,0,,38.991359,-76.936658,-9.947000,,,
2026-09-11T17:40:05.945,6.182212,1.887295,5.952305,17.474951,0.000000,-19.844017,6.827070,1.873913,0.120535,0.253757,1.183128,2.964672,4.771238,0.116511,-0.103655,0.255241,2.953665,0.181227,3.625224,0.721751,0.889769,1,0,,38.991359,-76.936658,-9.947000,,,
2026-09-11T17:40:05.980,6.215621,1.858351,6.014893,17.206951,0.000000,-23.229866,7.991926,1.840302,0.126895,0.267147,1.191830,2.984046,4.830324,-0.038774,0.009394,0.268630,1.803835,1.135218,7.003517,0.837333,0.903930,1,0,,38.991359,-76.936658,-9.947000,,,
2026-09-11T17:40:06.014,6.249042,1.867820,6.077594,17.294628,0.000000,-29.281959,10.074069,1.839023,0.168509,0.354755,1.202222,3.001898,4.889361,0.064844,-0.120169,0.356239,1.574850,0.175343,8.845010,0.935383,0.845359,1,0,,38.991359,-76.936658,-9.947000,,,
2026-09-11T17:40:06.046,6.282450,1.858354,6.139298,17.206985,0.000000,-31.336403,10.780872,1.825554,0.168275,0.354263,1.214065,3.018355,4.948587,0.179445,0.014107,0.355747,0.938104,5.196936,10.683267,0.989177,1.112945,1,0,,38.991359,-76.936658,-9.947000,,,
2026-09-11T17:40:06.079,6.315856,1.858899,6.201219,17.212024,0.000000,-34.910392,12.010456,1.818207,0.181923,0.382996,1.226380,3.033763,5.007752,0.111647,-0.094360,0.384479,3.258652,7.710086,5.630096,1.193235,1.537162,1,1,6.307774,38.991352,-76.936639,-9.839000,4.728611,-3.618098,5.471120
2026-09-11T17:40:06.113,6.349261,1.830243,6.261944,16.946697,0.000000,-37.720146,12.977114,1.783499,0.200565,0.422243,1.239829,3.047669,5.066624,0.177723,-0.110677,0.423726,2.893746,4.146350,9.063600,1.371903,1.722273,1,0,,38.991352,-76.936639,-9.839000,,,
2026-09-11T17:40:06.147,6.382682,1.821369,6.323830,16.864528,0.000000,-41.079902,14.132994,1.766239,0.210908,0.444017,1.254305,3.060021,5.125045,0.090375,0.027926,0.445501,1.515226,2.610628,7.848164,1.454673,1.803888,1,0,,38.991352,-76.936639,-9.839000,,,
2026-09-11T17:40:06.180,6.416098,1.831545,6.385039,16.958751,0.000000,-40.822410,14.044407,1.776796,0.203140,0.427664,1.268869,3.071444,5.183540,-0.013794,0.067665,0.429147,0.800713,1.509734,10.408778,1.485996,1.814821,1,0,,38.991352,-76.936639,-9.839000,,,
2026-09-11T17:40:06.213,6.449503,1.822420,6.445507,16.874262,0.000000,-40.800438,14.036848,1.768003,0.200221,0.421517,1.283052,3.082203,5.242147,0.018018,0.160857,0.423001,-2.445680,2.051649,11.492413,1.302971,1.861687,1,0,,38.991352,-76.936639,-9.839000,,,
2026-09-11T17:40:06.246,6.482910,1.833039,6.506944,16.972587,0.000000,-40.038261,13.774631,1.780321,0.215450,0.453579,1.297670,3.091933,5.301020,-0.034555,-0.013663,0.455063,-0.388049,-2.307897,9.496662,1.251627,1.621555,1,0,,38.991352,-76.936639,-9.839000,,,
2026-09-11T17:40:06.280,6.516311,1.823638,6.567777,16.885536,0.000000,-39.959297,13.747465,1.771395,0.195515,0.411610,1.312119,3.100899,5.360055,-0.044506,-0.021774,0.413094,4.943532,3.685437,9.702798,1.544370,1.777419,1,0,,38.991352,-76.936639,-9.839000,,,
2026-09-11T17:40:06.314,6.549719,1.814687,6.628900,16.802655,0.000000,-40.678901,13.995035,1.760821,0.211029,0.444272,1.326416,3.109007,5.418888,-0.009024,-0.151666,0.445755,3.831164,5.014336,8.658586,1.759404,2.014291,1,0,,38.991352,-76.936639,-9.839000,,,
2026-09-11T17:40:06.347,6.583142,1.795582,6.689379,16.625759,0.000000,-40.807304,14.039210,1.741948,0.204022,0.429521,1.341018,3.116016,5.477416,0.038279,0.071027,0.431004,2.605627,0.324992,13.186512,1.889487,1.946841,1,0,,38.991352,-76.936639,-9.839000,,,
2026-09-11T17:40:06.380,6.616553,1.814766,6.749608,16.803392,0.000000,-40.873222,14.061888,1.760385,0.201561,0.424339,1.355282,3.122324,5.535975,0.100778,0.011420,0.425823,0.981940,5.441220,6.962035,1.907993,2.211858,1,0,,38.991352,-76.936639,-9.839000,,,
2026-09-11T17:40:06.413,6.649960,1.834386,6.810361,16.985055,0.000000,-40.872535,14.061652,1.779418,0.203477,0.428374,1.369525,3.127935,5.595220,0.128990,0.083064,0.429857,1.298597,1.136297,14.706739,1.942345,2.193914,1,0,,38.991352,-76.936639,-9.839000,,,
2026-09-11T17:40:06.446,6.683369,1.805738,6.870346,16.719800,0.000000,-40.689888,13.998815,1.752109,0.199965,0.420979,1.383713,3.132709,5.654402,0.135970,0.015740,0.422463,2.495400,-0.150434,8.923856,2.051135,2.094362,1,0,,38.991352,-76.936639,-9.839000,,,
2026-09-11T17:40:06.481,6.716769,1.815964,6.930916,16.814481,0.000000,-40.638389,13.981097,1.762167,0.194655,0.409799,1.397587,3.136740,5.713322,0.158970,0.031496,0.411283,-1.735581,3.438408,9.090078,1.881231,2.229509,1,0,,38.991352,-76.936639,-9.839000,,,
2026-09-11T17:40:06.515,6.750193,1.825995,6.992330,16.907364,0.000000,-40.013542,13.766127,1.773544,0.195118,0.410775,1.411301,3.140099,5.772672,0.220314,0.050825,0.412259,-0.428845,-0.342154,12.567418,1.794070,2.117671,1,0,,38.991352,-76.936639,-9.839000,,,
2026-09-11T17:40:06.547,6.783612,1.826476,7.053448,16.911815,0.000000,-39.352989,13.538872,1.775721,0.185902,0.391374,1.424704,3.142833,5.832257,0.232679,0.084397,0.392857,2.071655,0.874655,12.498870,1.863513,2.088164,1,0,,38.991352,-76.936639,-9.839000,,,
2026-09-11T17:40:06.580,6.817016,1.836897,7.114412,17.008309,0.000000,-37.020454,12.736395,1.791700,0.180445,0.379884,1.437586,3.145066,5.892112,0.246835,0.114188,0.381368,0.308615,4.173318,11.621371,1.807079,2.273719,1,0,,38.991352,-76.936639,-9.839000,,,
2026-09-11T17:40:06.614,6.850423,1.817897,7.175318,16.832382,0.000000,-32.388344,11.142779,1.783627,0.189373,0.398680,1.450591,3.146485,5.952131,0.240304,0.048863,0.400163,3.238058,-0.208489,9.797922,1.932616,2.171236,1,0,,38.991352,-76.936639,-9.839000,,,
2026-09-11T17:40:06.648,6.883845,1.847819,7.237923,17.109438,0.000000,-31.631660,10.882452,1.814589,0.175576,0.369634,1.463430,3.147250,6.012565,0.257467,-0.007222,0.371117,3.189417,1.557492,6.356082,2.050914,2.186982,1,0,,38.991352,-76.936639,-9.839000,,,
2026-09-11T17:40:06.681,6.917256,1.877249,7.300875,17.381933,0.000000,-30.391578,10.455818,1.846077,0.154419,0.325093,1.475036,3.147963,6.073963,0.228410,-0.050699,0.326576,-0.333720,-0.173970,13.359501,1.935482,2.094886,1,0,,38.991352,-76.936639,-9.839000,,,
2026-09-11T17:40:06.714,6.950661,1.887328,7.363382,17.475258,0.000000,-28.766288,9.896659,1.859243,0.144364,0.303924,1.485542,3.148586,6.136048,0.158049,0.010426,0.305407,0.137195,-2.042039,7.435010,1.848701,1.885064,1,0,,38.991352,-76.936639,-9.839000,,,
2026-09-11T17:40:06.747,6.984066,1.926217,7.428111,17.835340,0.000000,-27.640876,9.509476,1.899747,0.131807,0.277488,1.495253,3.149027,6.199003,0.169221,0.063342,0.278972,0.999690,4.337089,8.458138,1.816582,2.093396,1,0,,38.991352,-76.936639,-9.839000,,,
2026-09-11T17:40:06.782,7.017466,1.945761,7.493057,18.016305,0.000000,-26.473579,9.107883,1.921229,0.143670,0.302463,1.504938,3.148944,6.262977,0.176880,0.031175,0.303947,1.818643,0.702156,6.652537,1.834929,2.060376,1,0,,38.991352,-76.936639,-9.839000,,,
2026-09-11T17:40:06.815,7.050885,2.004531,7.560891,18.560470,0.000000,-25.734062,8.853462,1.980647,0.140957,0.296752,1.514951,3.148157,6.328343,0.135105,0.041689,0.298236,1.734502,3.421540,2.486672,1.849421,2.203587,1,0,,38.991352,-76.936639,-9.839000,,,
2026-09-11T17:40:06.848,7.084306,2.082651,7.630593,19.283803,0.000000,-25.125694,8.644161,2.058994,0.132843,0.279670,1.524583,3.147025,6.395993,0.085326,-0.098348,0.281154,3.389865,3.102628,8.120593,1.972857,2.325334,1,0,,38.991352,-76.936639,-9.839000,,,
2026-09-11T17:40:06.881,7.117710,2.131284,7.701264,19.734111,0.000000,-22.296714,7.670888,2.112211,0.128344,0.270198,1.533767,3.145561,6.465781,0.053846,-0.030263,0.271681,2.158934,5.113580,8.936898,2.015907,2.576403,1,0,,38.991352,-76.936639,-9.839000,,,
2026-09-11T17:40:06.914,7.151114,2.151089,7.773786,19.917495,0.000000,-17.455177,6.005221,2.139285,0.127945,0.269358,1.542778,3.143590,6.536890,-0.103249,-0.012909,0.270842,3.408988,-0.815913,6.279885,2.142304,2.439901,1,0,,38.991352,-76.936639,-9.839000,,,
2026-09-11T17:40:06.947,7.184520,2.171240,7.846194,20.104071,0.000000,-12.664451,4.357036,2.164965,0.083143,0.175039,1.550201,3.141811,6.608851,-0.237483,-0.087355,0.176522,0.016181,1.165422,12.572322,2.050191,2.446166,1,0,,38.991352,-76.936639,-9.839000,,,
2026-09-11T17:40:06.982,7.217919,2.171849,7.918881,20.109717,0.000000,-4.055977,1.395405,2.171205,0.017639,0.037134,1.553744,3.141491,6.681284,-0.236177,-0.119175,0.038618,5.257345,0.169263,8.436759,2.304157,2.407126,1,0,,38.991352,-76.936639,-9.839000,,,
2026-09-11T17:40:07.017,7.251340,2.221122,7.993830,20.565942,0.000000,-4.259910,1.465565,2.220395,0.001324,0.002787,1.554411,3.142401,6.754666,-0.152684,-0.080423,0.004271,0.176029,1.355966,10.010923,2.232905,2.450296,1,0,,38.991352,-76.936639,-9.839000,,,
2026-09-11T17:40:07.049,7.284760,2.231410,8.068886,20.661206,0.000000,-3.898735,1.341308,2.230799,0.000465,0.000978,1.554474,3.143587,6.829034,-0.096661,-0.139547,0.002462,0.160731,3.483126,7.350673,2.170969,2.631241,1,0,,38.991352,-76.936639,-9.839000,,,
2026-09-11T17:40:07.083,7.318166,2.211868,8.142833,20.480260,0.000000,-4.463157,1.535490,2.211074,0.005691,0.011982,1.554691,3.144687,6.903219,-0.086860,-0.058348,0.013465,-1.739406,1.137081,12.280280,2.000377,2.656409,1,1,7.308818,38.991348,-76.936618,-9.880000,6.545125,-4.031372,5.482734
2026-09-11T17:40:07.116,7.351574,2.212307,8.216146,20.484328,0.000000,-4.816093,1.656913,2.211382,0.043302,0.091161,1.556414,3.144995,6.977095,0.006304,0.043546,0.092645,1.704494,2.010069,11.307950,2.067784,2.726568,1,0,,38.991348,-76.936618,-9.880000,,,
2026-09-11T17:40:07.149,7.384980,2.222378,8.290873,20.577578,0.000000,-5.828209,2.005118,2.221018,0.049376,0.103950,1.559673,3.144391,7.051143,0.056442,0.049612,0.105434,0.387265,1.877974,5.793769,2.058610,2.785483,1,0,,38.991348,-76.936618,-9.880000,,,
2026-09-11T17:40:07.184,7.418388,2.232549,8.366095,20.671747,0.000000,-6.421470,2.209221,2.230889,0.057749,0.121576,1.563440,3.143288,7.125521,-0.048150,0.009289,0.123060,2.499323,-0.302633,9.607967,2.193016,2.699686,1,0,,38.991348,-76.936618,-9.880000,,,
2026-09-11T17:40:07.216,7.451808,2.223374,8.440565,20.586797,0.000000,-6.582832,2.264736,2.221637,0.047833,0.100702,1.567154,3.141934,7.199931,-0.043679,0.009779,0.102185,1.164932,0.386382,7.723031,2.243338,2.662603,1,0,,38.991348,-76.936618,-9.880000,,,
2026-09-11T17:40:07.250,7.485215,2.204453,8.513868,20.411604,0.000000,-6.059608,2.084728,2.202994,0.036033,0.075858,1.570103,3.140693,7.273841,-0.058644,0.026012,0.077342,0.501512,2.064300,11.977843,2.256129,2.738444,1,0,,38.991348,-76.936618,-9.880000,,,
2026-09-11T17:40:07.283,7.518616,2.176027,8.585689,20.148400,0.000000,-5.625648,1.935429,2.174786,0.028408,0.059806,1.572369,3.139586,7.346951,-0.133244,-0.097987,0.061289,-0.873674,-0.816011,10.971092,2.184706,2.629057,1,0,,38.991348,-76.936618,-9.880000,,,
2026-09-11T17:40:07.317,7.552024,2.137752,8.656884,19.794002,0.000000,-4.761848,1.638251,2.136878,0.021567,0.045404,1.574126,3.138575,7.418971,-0.076780,-0.023650,0.046887,1.524640,-2.896100,6.020499,2.267670,2.388138,1,0,,38.991348,-76.936618,-9.880000,,,
2026-09-11T17:40:07.350,7.585446,2.099501,8.727076,19.439822,0.000000,-4.115028,1.415721,2.098860,-0.000379,-0.000798,1.574872,3.137959,7.489754,-0.042561,-0.009360,0.000686,-0.526127,0.578102,12.788951,2.213493,2.381572,1,0,,38.991348,-76.936618,-9.880000,,,
2026-09-11T17:40:07.384,7.618859,2.070588,8.795878,19.172114,0.000000,-3.662529,1.260044,2.070088,-0.011302,-0.023793,1.574461,3.137884,7.559403,-0.041712,-0.041620,-0.022309,-1.847769,-2.973474,7.419712,2.074173,2.147896,1,0,,38.991348,-76.936618,-9.880000,,,
2026-09-11T17:40:07.417,7.652266,2.031626,8.863615,18.811354,0.000000,-3.108406,1.069406,2.031272,-0.010072,-0.021204,1.573709,3.138016,7.627911,-0.014274,0.055639,-0.019720,-1.079124,1.540429,11.225574,1.987464,2.209055,1,0,,38.991348,-76.936618,-9.880000,,,
2026-09-11T17:40:07.450,7.685672,2.022000,8.930890,18.722226,0.000000,-2.434807,0.837663,2.021784,-0.026261,-0.055287,1.572432,3.138469,7.695610,0.022725,0.043239,-0.053804,-2.194924,-0.041482,10.642569,1.828755,2.171454,1,0,,38.991348,-76.936618,-9.880000,,,
2026-09-11T17:40:07.483,7.719073,2.003119,8.997294,18.547397,0.000000,-2.618828,0.900973,2.002871,-0.011882,-0.025014,1.571091,3.139041,7.762824,0.064360,0.034602,-0.023530,2.430872,7.385094,9.956888,1.971047,2.611675,1,0,,38.991348,-76.936618,-9.880000,,,
2026-09-11T17:40:07.517,7.752482,1.983937,9.063698,18.369786,0.000000,-3.058281,1.052161,1.983602,-0.000678,-0.001427,1.570649,3.139245,7.829416,-0.006995,0.077842,0.000056,-0.001961,-4.893518,3.757712,1.952334,2.247927,1,0,,38.991348,-76.936618,-9.880000,,,
2026-09-11T17:40:07.551,7.785904,1.984305,9.130729,18.373193,0.000000,-3.762092,1.294298,1.983799,-0.003891,-0.008192,1.570488,3.139337,7.895715,0.022815,-0.041108,-0.006709,-1.382640,-0.136411,7.512679,1.839991,2.197525,1,0,,38.991348,-76.936618,-9.880000,,,
2026-09-11T17:40:07.585,7.819321,2.004263,9.198403,18.557992,0.000000,-3.914528,1.346741,2.003710,-0.000922,-0.001941,1.570319,3.139443,7.962341,0.099739,0.058142,-0.000457,2.222677,6.875246,7.292029,1.957720,2.601620,1,0,,38.991348,-76.936618,-9.880000,,,
2026-09-11T17:40:07.617,7.852729,2.014609,9.265166,18.653789,0.000000,-4.220085,1.451864,2.013962,0.005441,0.011454,1.570478,3.139395,8.029451,0.041908,-0.004493,0.012938,-3.221288,2.118531,9.484698,1.715634,2.690991,1,0,,38.991348,-76.936618,-9.880000,,,
2026-09-11T17:40:07.650,7.886135,2.015371,9.332441,18.660842,0.000000,-4.574394,1.573759,2.014611,0.006387,0.013446,1.570894,3.139205,8.096742,-0.007109,-0.061847,0.014930,-4.371412,0.303124,9.868824,1.396724,2.661372,1,0,,38.991348,-76.936618,-9.880000,,,
2026-09-11T17:40:07.684,7.919539,2.015862,9.399307,18.665392,0.000000,-4.684257,1.611556,2.015065,0.024768,0.052144,1.571989,3.138641,8.164044,0.073591,-0.057351,0.053628,4.372393,1.719596,13.205341,1.644679,2.718887,1,0,,38.991348,-76.936618,-9.880000,,,
2026-09-11T17:40:07.717,7.952947,2.026145,9.466742,18.760602,0.000000,-4.779701,1.644393,2.025311,0.018342,0.038615,1.573505,3.137789,8.231534,-0.027595,-0.029033,0.040098,-2.475395,-2.828630,7.150911,1.444309,2.482538,1,0,,38.991348,-76.936618,-9.880000,,,
2026-09-11T17:40:07.751,7.986366,1.996884,9.533710,18.489669,0.000000,-4.991874,1.717388,1.995987,0.018972,0.039940,1.574818,3.136940,8.298724,-0.003244,-0.176502,0.041424,1.552687,6.392563,9.593159,1.505268,2.846880,1,0,,38.991348,-76.936618,-9.880000,,,
2026-09-11T17:40:07.785,8.019775,2.006411,9.600803,18.577881,0.000000,-4.925270,1.694474,2.005534,0.022245,0.046831,1.576267,3.135934,8.365564,-0.014771,-0.004048,0.048315,0.646847,3.946098,10.565391,1.508070,3.047562,1,0,,38.991348,-76.936618,-9.880000,,,
2026-09-11T17:40:07.818,8.053182,1.997140,9.667270,18.492034,0.000000,-5.045433,1.735814,1.996223,0.026027,0.054794,1.577965,3.134705,8.432400,-0.032040,-0.013944,0.056277,0.365788,0.455813,11.148886,1.494517,3.018547,1,0,,38.991348,-76.936618,-9.880000,,,
2026-09-11T17:40:07.851,8.086586,2.007205,9.734556,18.585230,0.000000,-5.057792,1.740066,2.006279,0.028147,0.059256,1.579870,3.133257,8.499241,-0.023497,-0.053092,0.060740,3.678082,0.164458,12.918594,1.696415,2.970338,1,0,,38.991348,-76.936618,-9.880000,,,
2026-09-11T17:40:07.885,8.119997,2.017135,9.801764,18.677178,0.000000,-4.817466,1.657385,2.016291,0.015885,0.033443,1.581418,3.131860,8.566429,-0.090390,-0.054390,0.034927,3.528040,-5.227631,16.116445,1.887147,2.576201,1,0,,38.991348,-76.936618,-9.880000,,,
2026-09-11T17:40:07.918,8.153406,2.017695,9.869244,18.682362,0.000000,-4.640312,1.596438,2.016912,0.007506,0.015802,1.582241,3.130726,8.633794,-0.011503,0.123246,0.017285,2.005460,2.972101,9.578253,1.976511,2.720651,1,0,,38.991348,-76.936618,-9.880000,,,
2026-09-11T17:40:07.951,8.186813,2.018077,9.936440,18.685900,0.000000,-4.640312,1.596438,2.017294,0.023859,0.050230,1.583344,3.129394,8.701169,-0.017082,-0.057193,0.051714,1.441774,0.881226,3.703874,2.029034,2.723383,1,0,,38.991348,-76.936618,-9.880000,,,
2026-09-11T17:40:07.985,8.220215,2.018780,10.003385,18.692405,0.000000,-4.728203,1.626675,2.017966,0.020216,0.042560,1.584894,3.127760,8.768546,0.023822,0.088312,0.044044,0.431198,0.785317,13.223581,2.013669,2.720866,1,0,,38.991348,-76.936618,-9.880000,,,
2026-09-11T17:40:08.018,8.253621,2.009516,10.070319,18.606633,0.000000,-4.743995,1.632109,2.008701,0.020359,0.042861,1.586320,3.126086,8.835785,-0.040486,-0.060230,0.044345,1.167286,-1.440793,5.411113,2.043215,2.573994,1,0,,38.991348,-76.936618,-9.880000,,,
2026-09-11T17:40:08.052,8.287037,1.980709,10.137196,18.339896,0.000000,-4.784507,1.646046,1.979891,0.011610,0.024441,1.587445,3.124480,8.902409,-0.036290,0.012208,0.025925,0.010591,-0.988412,10.339053,1.996620,2.460517,1,0,,38.991348,-76.936618,-9.880000,,,
2026-09-11T17:40:08.085,8.320446,2.000475,10.203879,18.522917,0.000000,-4.829826,1.661637,1.999634,0.022499,0.047367,1.588644,3.122764,8.968864,-0.069642,-0.011833,0.048850,0.723142,0.474250,13.313802,1.994090,2.440168,1,1,8.308307,38.991346,-76.936594,-9.750000,8.612416,-4.229855,6.330542
2026-09-11T17:40:08.118,8.353862,2.000400,10.270812,18.522220,0.000000,-5.279579,1.816369,1.999395,0.034572,0.072783,1.590652,3.120551,9.035652,-0.049984,-0.037332,0.074267,-0.173676,1.702533,8.082151,1.928068,2.496409,1,0,,38.991346,-76.936594,-9.750000,,,
2026-09-11T17:40:08.152,8.387269,2.000680,10.337814,18.524819,0.000000,-5.651054,1.944170,1.999529,0.049038,0.103238,1.593592,3.117730,9.102402,-0.063608,-0.006423,0.104721,-0.988216,-4.487131,9.819595,1.804511,2.146784,1,0,,38.991346,-76.936594,-9.750000,,,
2026-09-11T17:40:08.185,8.420675,2.010659,10.405022,18.617210,0.000000,-6.043129,2.079058,2.009335,0.042103,0.088638,1.596797,3.114575,9.169304,0.065275,0.038293,0.090122,-1.264666,5.308634,10.300709,1.661966,2.437891,1,0,,38.991346,-76.936594,-9.750000,,,
2026-09-11T17:40:08.218,8.454083,2.001275,10.471545,18.530321,0.000000,-6.851997,2.357338,1.999581,0.049822,0.104888,1.600030,3.111191,9.236202,-0.022557,-0.109880,0.106372,-2.367816,-0.270664,13.427363,1.447044,2.362038,1,0,,38.991346,-76.936594,-9.750000,,,
2026-09-11T17:40:08.253,8.487500,2.021100,10.539288,18.713889,0.000000,-9.205131,3.166903,2.018013,0.052386,0.110287,1.603625,3.107401,9.303243,-0.062435,0.043481,0.111771,-0.500924,1.987416,10.041814,1.351102,2.432618,1,0,,38.991346,-76.936594,-9.750000,,,
2026-09-11T17:40:08.286,8.520916,2.031436,10.606962,18.809595,0.000000,-12.405586,4.267977,2.025803,0.094683,0.199332,1.608798,3.102553,9.370676,-0.079827,-0.063888,0.200815,3.351128,0.914470,10.099379,1.502149,2.421079,1,0,,38.991346,-76.936594,-9.750000,,,
2026-09-11T17:40:08.318,8.554322,2.041420,10.674944,18.902041,0.000000,-16.970405,5.838442,2.030831,0.105009,0.221071,1.615820,3.096408,9.438236,-0.037763,0.024175,0.222555,0.477094,1.886996,11.939106,1.466032,2.469798,1,0,,38.991346,-76.936594,-9.750000,,,
2026-09-11T17:40:08.352,8.587727,2.080883,10.745318,19.267436,0.000000,-18.784523,6.462565,2.067660,0.133924,0.281945,1.624222,3.089051,9.506409,-0.047258,0.028268,0.283428,3.137344,0.034814,7.625553,1.605776,2.389203,1,0,,38.991346,-76.936594,-9.750000,,,
2026-09-11T17:40:08.386,8.621135,2.149277,10.818131,19.900710,0.000000,-19.972419,6.871245,2.133840,0.135470,0.285199,1.633695,3.080474,9.576210,-0.127614,-0.038106,0.286683,4.435352,4.790254,10.212744,1.829590,2.616194,1,0,,38.991346,-76.936594,-9.750000,,,
2026-09-11T17:40:08.419,8.654558,2.178634,10.890659,20.172541,0.000000,-19.809684,6.815258,2.163240,0.120507,0.253698,1.642701,3.071367,9.647570,-0.120791,0.137506,0.255182,-1.244660,0.307929,15.058307,1.685897,2.553854,1,0,,38.991346,-76.936594,-9.750000,,,
2026-09-11T17:40:08.453,8.687979,2.188197,10.963904,20.261082,0.000000,-19.646949,6.759272,2.172988,0.149955,0.315695,1.652216,3.061311,9.719467,0.035014,0.094246,0.317179,3.555499,0.510338,6.336077,1.860072,2.496446,1,0,,38.991346,-76.936594,-9.750000,,,
2026-09-11T17:40:08.486,8.721383,2.217802,11.038858,20.535206,0.000000,-19.374351,6.665488,2.202812,0.110032,0.231646,1.661357,3.050706,9.791912,-0.141929,0.223147,0.233130,0.745698,4.339933,11.308833,1.854146,2.699425,1,0,,38.991346,-76.936594,-9.750000,,,
2026-09-11T17:40:08.520,8.754803,2.247245,11.113699,20.807828,0.000000,-19.438896,6.687694,2.231954,0.119220,0.250990,1.669422,3.039891,9.865322,-0.085018,-0.073923,0.252473,1.681056,4.691796,3.127635,1.912600,2.919899,1,0,,38.991346,-76.936594,-9.750000,,,
2026-09-11T17:40:08.553,8.788219,2.237810,11.188494,20.720459,0.000000,-19.861183,6.832976,2.221915,0.134821,0.283834,1.678358,3.028012,9.938903,0.201456,-0.050067,0.285317,-4.043086,0.289787,3.564717,1.601754,2.847697,1,0,,38.991346,-76.936594,-9.750000,,,
2026-09-11T17:40:08.586,8.821638,2.228319,11.263619,20.632582,0.000000,-20.636406,7.099681,2.211233,0.138881,0.292382,1.687987,3.015161,10.011999,0.064009,-0.124082,0.293866,-3.717897,-0.056879,9.456749,1.319343,2.752767,1,0,,38.991346,-76.936594,-9.750000,,,
2026-09-11T17:40:08.619,8.855044,2.209157,11.336523,20.455153,0.000000,-19.894829,6.844551,2.193412,0.126176,0.265634,1.697307,3.001826,10.084485,-0.040093,-0.031533,0.267117,-1.165618,-0.634196,9.485286,1.213235,2.625644,1,0,,38.991346,-76.936594,-9.750000,,,
2026-09-11T17:40:08.653,8.888485,2.200121,11.410019,20.371488,0.000000,-16.976585,5.840568,2.188700,0.098771,0.207939,1.705225,2.988564,10.156646,-0.235890,-0.074829,0.209423,-2.713892,0.224965,6.692548,1.014291,2.563863,1,0,,38.991346,-76.936594,-9.750000,,,
2026-09-11T17:40:08.687,8.921891,2.161697,11.481772,20.015715,0.000000,-13.507652,4.647128,2.154591,0.075616,0.159191,1.711358,2.975737,10.228110,-0.224817,0.045312,0.160675,-3.088506,-2.873348,4.262755,0.794964,2.309225,1,0,,38.991346,-76.936594,-9.750000,,,
2026-09-11T17:40:08.720,8.955307,2.113597,11.552169,19.570340,0.000000,-8.672294,2.983587,2.110732,0.056355,0.118643,1.716000,2.963408,10.298335,-0.294951,-0.083014,0.120127,-0.724810,3.072129,8.581309,0.731118,2.448926,1,0,,38.991346,-76.936594,-9.750000,,,
2026-09-11T17:40:08.754,8.988728,2.103801,11.622031,19.479638,0.000000,-8.033027,2.763656,2.101354,0.056996,0.119991,1.719987,2.951212,10.367681,-0.072389,0.065996,0.121475,0.667637,8.778227,10.822521,0.760570,2.957287,1,0,,38.991346,-76.936594,-9.750000,,,
2026-09-11T17:40:08.787,9.022146,2.084539,11.691664,19.301292,0.000000,-10.581855,3.640547,2.080333,0.086114,0.181293,1.725021,2.938289,10.436389,-0.050054,0.074608,0.182777,-0.898779,0.481703,6.477489,0.689164,2.913567,1,0,,38.991346,-76.936594,-9.750000,,,
2026-09-11T17:40:08.820,9.055552,2.084973,11.760922,19.305305,0.000000,-15.026512,5.169672,2.076492,0.077958,0.164122,1.730791,2.924719,10.504535,-0.029891,-0.184264,0.165605,1.121096,3.895986,7.644480,0.747107,3.094232,1,0,,38.991346,-76.936594,-9.750000,,,
2026-09-11T17:40:08.854,9.088961,2.075432,11.830101,19.216967,0.000000,-18.575096,6.390515,2.062536,0.110366,0.232350,1.737414,2.910375,10.572244,-0.036859,-0.132299,0.233833,-5.511435,-4.171945,-1.353808,0.372386,2.740438,1,0,,38.991346,-76.936594,-9.750000,,,
2026-09-11T17:40:08.888,9.122372,2.075719,11.898743,19.219624,0.000000,-20.165367,6.937626,2.060521,0.131546,0.276938,1.745922,2.894682,10.639429,-0.046134,-0.003206,0.278422,-1.025972,-0.543975,8.868154,0.290024,2.620063,1,0,,38.991346,-76.936594,-9.750000,,,
2026-09-11T17:40:08.920,9.155795,2.076177,11.968309,19.223857,0.000000,-21.893654,7.532220,2.058262,0.143394,0.301883,1.755595,2.877842,10.706324,0.080137,-0.184587,0.303366,1.667915,2.900709,6.617920,0.379161,2.721206,1,0,,38.991346,-76.936594,-9.750000,,,
2026-09-11T17:40:08.955,9.189215,2.096232,12.039150,19.409553,0.000000,-22.263756,7.659549,2.077528,0.143890,0.302927,1.765701,2.860084,10.773284,0.000612,-0.049020,0.304410,0.357354,0.518085,8.553654,0.377335,2.666111,1,0,,38.991346,-76.936594,-9.750000,,,
2026-09-11T17:40:08.987,9.222622,2.116200,12.108944,19.594442,0.000000,-22.002830,7.569781,2.097757,0.142611,0.300234,1.775776,2.841541,10.840685,0.016584,0.053716,0.301717,0.073354,1.774906,13.197790,0.353651,2.693132,1,0,,38.991346,-76.936594,-9.750000,,,
2026-09-11T17:40:09.020,9.256026,2.116564,12.179227,19.597816,0.000000,-21.322365,7.335676,2.099240,0.135061,0.284338,1.785539,2.822402,10.908279,-0.075514,0.046433,0.285822,0.949578,3.519607,10.636097,0.385582,2.835152,1,0,,38.991346,-76.936594,-9.750000,,,
2026-09-11T17:40:09.054,9.289434,2.116998,12.249601,19.601831,0.000000,-19.433403,6.685804,2.102601,0.130302,0.274319,1.794871,2.802798,10.975820,-0.114383,-0.036469,0.275803,2.055964,-9.681125,9.304844,0.489640,2.120879,1,0,,38.991346,-76.936594,-9.750000,,,
2026-09-11T17:40:09.087,9.322843,2.126558,12.320374,19.690354,0.000000,-18.636207,6.411539,2.113258,0.110461,0.232550,1.803338,2.782942,11.043505,-0.077562,-0.051685,0.234034,0.807970,-7.729013,7.765102,0.513090,1.547058,1,1,9.308072,38.991348,-76.936570,-9.849000,10.652051,-4.096977,6.330114
2026-09-11T17:40:09.121,9.356262,2.126719,12.391546,19.691839,0.000000,-17.822532,6.131605,2.114552,0.107833,0.227017,1.811017,2.762851,11.111330,-0.094484,-0.014380,0.228500,0.225945,4.803003,4.934412,0.499632,1.792393,1,0,,38.991348,-76.936570,-9.849000,,,
2026-09-11T17:40:09.154,9.389682,2.136774,12.463265,19.784944,0.000000,-17.622719,6.062862,2.124822,0.109473,0.230469,1.818662,2.742210,11.179193,-0.138511,0.091923,0.231952,-1.000278,-5.667067,8.913951,0.407339,1.355889,1,0,,38.991348,-76.936570,-9.849000,,,
2026-09-11T17:40:09.187,9.423087,2.146794,12.534471,19.877723,0.000000,-17.446251,6.002150,2.135025,0.078093,0.164407,1.825257,2.721492,11.247334,0.061945,0.202031,0.165891,0.107775,7.243486,13.876312,0.389170,1.769647,1,0,,38.991348,-76.936570,-9.849000,,,
2026-09-11T17:40:09.221,9.456492,2.137475,12.605484,19.791435,0.000000,-17.308235,5.954668,2.125942,0.101116,0.212877,1.831559,2.700467,11.315389,0.032838,0.082412,0.214360,-0.457971,-0.413743,8.313882,0.337405,1.676256,1,0,,38.991348,-76.936570,-9.849000,,,
2026-09-11T17:40:09.255,9.489908,2.147647,12.677225,19.885620,0.000000,-17.407798,5.988921,2.135925,0.098179,0.206693,1.838569,2.678652,11.383256,-0.082069,-0.043829,0.208177,-0.442378,0.028145,10.254912,0.289225,1.613226,1,0,,38.991348,-76.936570,-9.849000,,,
2026-09-11T17:40:09.288,9.523326,2.128720,12.749058,19.710374,0.000000,-17.757301,6.109163,2.116631,0.103310,0.217495,1.845657,2.656367,11.450810,0.121294,0.011570,0.218978,0.973604,4.390731,8.026645,0.333710,1.832391,1,0,,38.991348,-76.936570,-9.849000,,,
2026-09-11T17:40:09.321,9.556735,2.109906,12.819626,19.536168,0.000000,-17.829399,6.133967,2.097826,0.138416,0.291401,1.854158,2.633092,11.517370,-0.170822,-0.147493,0.292885,-2.232778,-4.385534,5.773861,0.170701,1.470707,1,0,,38.991348,-76.936570,-9.849000,,,
2026-09-11T17:40:09.355,9.590140,2.090730,12.889750,19.358614,0.000000,-18.222847,6.269328,2.078227,0.105398,0.221890,1.862731,2.609400,11.583101,0.008874,0.153510,0.223374,-4.164198,6.211336,14.568759,-0.115441,1.809232,1,0,,38.991348,-76.936570,-9.849000,,,
2026-09-11T17:40:09.388,9.623548,2.081156,12.959475,19.269968,0.000000,-20.212745,6.953926,2.065847,0.125390,0.263978,1.870847,2.585522,11.648188,-0.075393,0.013289,0.265461,2.247880,1.763628,2.662211,0.016439,1.850456,1,0,,38.991348,-76.936570,-9.849000,,,
2026-09-11T17:40:09.422,9.656967,2.090893,13.029621,19.360122,0.000000,-24.980812,8.594316,2.067415,0.170326,0.358581,1.881250,2.560054,11.712571,0.098241,0.103292,0.360064,-0.896426,4.140073,11.591362,-0.053433,2.032587,1,0,,38.991348,-76.936570,-9.849000,,,
2026-09-11T17:40:09.455,9.690388,2.100639,13.099859,19.450365,0.000000,-31.937217,10.987575,2.062132,0.181227,0.381531,1.893617,2.532987,11.776315,0.066518,0.008240,0.383014,1.476783,1.621530,11.276765,0.032297,2.046495,1,0,,38.991348,-76.936570,-9.849000,,,
2026-09-11T17:40:09.488,9.723792,2.100901,13.169607,19.452784,0.000000,-31.579475,10.864498,2.063244,0.206348,0.434416,1.907245,2.504560,11.839408,0.028323,0.024049,0.435899,-0.785611,-2.158836,13.739705,-0.030350,1.808195,1,0,,38.991348,-76.936570,-9.849000,,,
2026-09-11T17:40:09.522,9.757196,2.091623,13.239468,19.366882,0.000000,-32.226295,11.087028,2.052586,0.205678,0.433006,1.921733,2.474919,11.901810,0.017675,0.095989,0.434490,0.600853,1.255643,8.859916,-0.005324,1.794264,1,0,,38.991348,-76.936570,-9.849000,,,
2026-09-11T17:40:09.554,9.790597,2.101623,13.309968,19.459473,0.000000,-32.765312,11.272470,2.061080,0.205208,0.432017,1.936179,2.444409,11.963744,0.069743,-0.097789,0.433501,1.329782,0.357747,6.603406,0.064106,1.722219,1,0,,38.991348,-76.936570,-9.849000,,,
2026-09-11T17:40:09.589,9.824006,2.102007,13.380092,19.463027,0.000000,-34.091911,11.728868,2.058118,0.225143,0.473985,1.951313,2.412645,12.025199,0.028119,0.042345,0.475468,0.388441,-0.656359,10.601185,0.071458,1.579751,1,0,,38.991348,-76.936570,-9.849000,,,
2026-09-11T17:40:09.622,9.857428,2.121826,13.451446,19.646541,0.000000,-35.823631,12.324644,2.072926,0.245457,0.516751,1.967870,2.379199,12.086095,0.056380,-0.013156,0.518235,-0.677051,-0.803067,10.240889,0.007879,1.423118,1,0,,38.991348,-76.936570,-9.849000,,,
2026-09-11T17:40:09.654,9.890837,2.122374,13.522447,19.651616,0.000000,-36.733436,12.637650,2.070956,0.233111,0.490760,1.984700,2.344548,12.146550,0.067087,0.122835,0.492244,0.822582,3.043102,10.405444,0.039712,1.520972,1,0,,38.991348,-76.936570,-9.849000,,,
2026-09-11T17:40:09.687,9.924242,2.094036,13.592605,19.389221,0.000000,-36.625633,12.600562,2.043600,0.222965,0.469401,2.000737,2.309460,12.206127,0.058666,0.462622,0.470884,0.897799,1.376069,13.446094,0.073154,1.513459,1,0,,38.991348,-76.936570,-9.849000,,,
2026-09-11T17:40:09.721,9.957649,2.104153,13.663299,19.482897,0.000000,-36.571388,12.581900,2.053623,0.274596,0.578097,2.018233,2.272870,12.264544,0.045039,-0.139182,0.579580,0.010591,4.575881,-11.672561,0.047100,1.698542,1,0,,38.991348,-76.936570,-9.849000,,,
2026-09-11T17:40:09.754,9.991056,2.114044,13.734060,19.574482,0.000000,-37.765464,12.992706,2.059922,0.236480,0.497852,2.036206,2.234921,12.322462,0.178190,0.001878,0.499335,-0.865829,0.275665,7.018227,-0.037474,1.613481,1,0,,38.991348,-76.936570,-9.849000,,,
2026-09-11T17:40:09.789,10.024460,2.143388,13.805449,19.846186,0.000000,-38.390312,13.207676,2.086692,0.252045,0.530620,2.053383,2.196048,12.380353,0.063109,-0.055882,0.532104,2.355361,0.839842,17.169777,0.084926,1.560626,1,0,,38.991348,-76.936570,-9.849000,,,
2026-09-11T17:40:09.821,10.057884,2.114711,13.876290,19.580660,0.000000,-37.884254,13.033574,2.060232,0.247001,0.520002,2.070941,2.156000,12.437522,0.131206,-0.011111,0.521486,0.303124,-1.912787,9.307197,0.073554,1.332286,1,0,,38.991348,-76.936570,-9.849000,,,
2026-09-11T17:40:09.854,10.091291,2.105434,13.946209,19.494760,0.000000,-36.692924,12.623712,2.054538,0.222822,0.469100,2.087463,2.115688,12.493742,0.146853,0.051380,0.470584,-1.041466,3.352992,7.739506,-0.021600,1.454607,1,0,,38.991348,-76.936570,-9.849000,,,
2026-09-11T17:40:09.888,10.124692,2.105790,14.016128,19.498058,0.000000,-35.862770,12.338109,2.057154,0.218415,0.459822,2.102976,2.074928,12.549490,0.134300,-0.101369,0.461305,0.979880,1.503556,-0.120720,0.015883,1.456950,1,0,,38.991348,-76.936570,-9.849000,,,
2026-09-11T17:40:09.923,10.158110,2.125809,14.087334,19.683419,0.000000,-34.455833,11.854071,2.080474,0.200665,0.422453,2.117718,2.033399,12.605205,0.138341,-0.141396,0.423936,0.751091,0.959287,5.011689,0.034312,1.428347,1,0,,38.991348,-76.936570,-9.849000,,,
2026-09-11T17:40:09.955,10.191533,2.136225,14.158847,19.779859,0.000000,-31.401634,10.803314,2.098363,0.193900,0.408212,2.131600,1.991059,12.661129,0.073003,-0.032095,0.409695,-0.597127,-0.718631,13.625458,-0.037789,1.292785,1,0,,38.991348,-76.936570,-9.849000,,,
2026-09-11T17:40:09.988,10.224988,2.136890,14.229507,19.786016,0.000000,-29.772911,10.242974,2.102833,0.169822,0.357520,2.144408,1.948169,12.717131,0.005033,-0.130421,0.359003,1.483844,1.369303,12.452484,0.024225,1.300808,1,0,,38.991348,-76.936570,-9.849000,,,
2026-09-11T17:40:10.021,10.258395,2.146872,14.301465,19.878442,0.000000,-25.769767,8.865746,2.121221,0.160224,0.337314,2.156015,1.904922,12.773153,0.098077,0.012286,0.338797,1.211121,1.370577,11.523304,0.066142,1.311163,1,0,,38.991348,-76.936570,-9.849000,,,
2026-09-11T17:40:10.056,10.291818,2.157245,14.373913,19.974494,0.000000,-22.271309,7.662147,2.137984,0.134461,0.283077,2.166382,1.861205,12.829540,0.020250,-0.118480,0.284560,1.830117,3.277382,20.988389,0.143905,1.452109,1,0,,38.991348,-76.936570,-9.849000,,,
2026-09-11T17:40:10.090,10.325239,2.137808,14.445141,19.794517,0.000000,-21.036033,7.237167,2.120776,0.098125,0.206578,2.174565,1.817832,12.886098,0.131790,0.102342,0.208062,3.913736,6.391288,8.374291,0.351068,1.804154,1,0,,38.991348,-76.936570,-9.849000,,,
2026-09-11T17:40:10.122,10.358660,2.118784,14.516142,19.618371,0.000000,-21.119804,7.265988,2.101770,0.144268,0.303723,2.183092,1.774203,12.941696,0.028473,0.072749,0.305207,-2.934836,-4.390731,10.006706,0.110235,1.440576,1,1,10.333252,38.991354,-76.936548,-9.913000,12.578325,-3.428140,5.478145
2026-09-11T17:40:10.155,10.392071,2.138590,14.587462,19.801755,0.000000,-21.045646,7.240475,2.121536,0.126134,0.265545,2.192602,1.729693,12.996624,0.030070,-0.055363,0.267028,2.164720,2.662506,7.219754,0.202318,1.542933,1,0,,38.991354,-76.936548,-9.913000,,,
2026-09-11T17:40:10.188,10.425472,2.148775,14.658805,19.896069,0.000000,-20.788841,7.152124,2.132056,0.092984,0.195756,2.200306,1.685124,13.052062,0.043955,-0.055312,0.197240,1.734502,9.346326,10.402796,0.267770,2.086594,1,0,,38.991354,-76.936548,-9.913000,,,
2026-09-11T17:40:10.222,10.458882,2.168601,14.731208,20.079635,0.000000,-20.997581,7.223938,2.151387,0.111543,0.234828,2.207499,1.640034,13.107727,-0.045894,0.267222,0.236311,0.463953,2.913163,13.027742,0.252677,2.201879,1,0,,38.991354,-76.936548,-9.913000,,,
2026-09-11T17:40:10.257,10.492301,2.188325,14.805262,20.262269,0.000000,-20.900078,7.190394,2.171115,0.130198,0.274102,2.216003,1.593607,13.163200,0.038906,0.073632,0.275585,-0.857199,0.867300,4.841249,0.156715,2.177434,1,0,,38.991354,-76.936548,-9.913000,,,
2026-09-11T17:40:10.290,10.525718,2.227954,14.879601,20.629205,0.000000,-20.965309,7.212836,2.210323,0.132096,0.278097,2.225229,1.545823,13.218833,-0.124457,-0.178048,0.279581,5.768174,3.235116,7.920047,0.497329,2.305525,1,0,,38.991354,-76.936548,-9.913000,,,
2026-09-11T17:40:10.323,10.559138,2.247857,14.954806,20.813487,0.000000,-20.912437,7.194646,2.230158,0.121066,0.254876,2.234135,1.497049,13.274911,-0.076827,-0.170341,0.256360,0.683327,3.717799,8.121083,0.505819,2.466537,1,0,,38.991354,-76.936548,-9.913000,,,
2026-09-11T17:40:10.356,10.592544,2.267702,15.029897,20.997236,0.000000,-20.657692,7.107004,2.250278,0.141670,0.298252,2.243374,1.447251,13.330943,0.002407,0.049803,0.299736,0.400307,-6.283121,1.107563,0.493052,1.970760,1,0,,38.991354,-76.936548,-9.913000,,,
2026-09-11T17:40:10.389,10.625946,2.277680,15.105695,21.089626,0.000000,-19.549446,6.725727,2.262005,0.100706,0.212012,2.251896,1.396893,13.387156,0.124380,-0.077271,0.213495,-1.267510,2.752433,10.326108,0.374155,2.078529,1,0,,38.991354,-76.936548,-9.913000,,,
2026-09-11T17:40:10.424,10.659356,2.287228,15.182483,21.178037,0.000000,-17.431144,5.996953,2.274711,0.091443,0.192512,2.258653,1.346489,13.443841,0.005235,-0.100704,0.193995,-0.350588,4.781821,5.682169,0.319691,2.319405,1,0,,38.991354,-76.936548,-9.913000,,,
2026-09-11T17:40:10.457,10.692780,2.278040,15.258668,21.092959,0.000000,-15.387001,5.293693,2.268323,0.081988,0.172605,2.264755,1.295874,13.500506,0.119449,0.010016,0.174089,-0.997238,-0.339310,4.851056,0.227702,2.228598,1,0,,38.991354,-76.936548,-9.913000,,,
2026-09-11T17:40:10.490,10.726196,2.268677,15.334204,21.006269,0.000000,-14.606285,5.025098,2.259957,0.076951,0.162002,2.270346,1.245285,13.556827,-0.102101,-0.037847,0.163486,0.765507,-7.415691,10.770742,0.256492,1.681805,1,0,,38.991354,-76.936548,-9.913000,,,
2026-09-11T17:40:10.523,10.759624,2.230063,15.408998,20.648735,0.000000,-14.630317,5.033366,2.221464,0.071014,0.149504,2.275552,1.195023,13.612414,0.018657,-0.076746,0.150987,0.257425,1.049606,14.540418,0.258957,1.691994,1,0,,38.991354,-76.936548,-9.913000,,,
2026-09-11T17:40:10.556,10.793033,2.201174,15.482187,20.381244,0.000000,-13.741798,4.727683,2.193685,0.071475,0.150474,2.280563,1.145293,13.666932,-0.017594,0.147925,0.151957,-0.088064,3.962573,13.681944,0.245930,1.890945,1,0,,38.991354,-76.936548,-9.913000,,,
2026-09-11T17:40:10.589,10.826439,2.211574,15.555956,20.477539,0.000000,-10.071678,3.465027,2.207531,0.050205,0.105694,2.284842,1.095728,13.721263,-0.004685,0.076286,0.107178,-0.383146,-2.437443,8.782346,0.219605,1.679292,1,0,,38.991354,-76.936548,-9.913000,,,
2026-09-11T17:40:10.624,10.859858,2.202414,15.629680,20.392718,0.000000,-5.093498,1.752350,2.201384,0.039651,0.083475,2.288003,1.046261,13.775876,-0.014513,0.000431,0.084959,-0.044620,2.179920,11.438575,0.220592,1.772376,1,0,,38.991354,-76.936548,-9.913000,,,
2026-09-11T17:40:10.657,10.893279,2.183603,15.702607,20.218550,0.000000,-5.463600,1.879679,2.182428,0.021690,0.045664,2.290161,0.997279,13.830359,-0.066014,0.106866,0.047148,1.012046,1.203766,7.569557,0.294004,1.806622,1,0,,38.991354,-76.936548,-9.913000,,,
2026-09-11T17:40:10.690,10.926685,2.174247,15.774371,20.131914,0.000000,-5.261726,1.810227,2.173162,0.020389,0.042924,2.291641,0.948774,13.884585,-0.156823,-0.005122,0.044408,-0.635765,-4.093884,2.903945,0.261521,1.497703,1,0,,38.991354,-76.936548,-9.913000,,,
2026-09-11T17:40:10.723,10.960092,2.154627,15.846500,19.950251,0.000000,-4.161033,1.431548,2.153955,0.017959,0.037808,2.292989,0.900552,13.938429,-0.159067,-0.017249,0.039291,-3.387021,-8.984363,7.849047,0.050978,0.876413,1,0,,38.991354,-76.936548,-9.913000,,,
2026-09-11T17:40:10.757,10.993499,2.125623,15.917592,19.681697,0.000000,-3.092613,1.063972,2.125257,0.017535,0.036915,2.294237,0.852825,13.991641,-0.007043,0.107135,0.038398,-0.396189,-8.869232,6.661461,0.033928,0.269930,1,0,,38.991354,-76.936548,-9.913000,,,
2026-09-11T17:40:10.791,11.026908,2.106538,15.988195,19.504982,0.000000,-2.553596,0.878531,2.106290,-0.025107,-0.052856,2.293971,0.806135,14.044712,-0.126794,-0.020736,-0.051373,0.355001,-1.922790,5.672755,0.061437,0.132074,1,0,,38.991354,-76.936548,-9.913000,,,
2026-09-11T17:40:10.825,11.060328,2.077657,16.058341,19.237565,0.000000,-2.108650,0.725453,2.077491,-0.013010,-0.027389,2.292630,0.760382,14.097578,-0.019574,0.077234,-0.025906,-1.704592,-1.806385,11.492021,-0.046826,-0.000281,1,0,,38.991354,-76.936548,-9.913000,,,
2026-09-11T17:40:10.857,11.093736,2.058657,16.126448,19.061639,0.000000,-0.965385,0.332128,2.058622,-0.000736,-0.001550,2.292147,0.714916,14.149598,0.015558,-0.114137,-0.000066,-1.261135,-3.449783,7.641538,-0.125330,-0.240911,1,0,,38.991354,-76.936548,-9.913000,,,
2026-09-11T17:40:10.890,11.127139,2.030105,16.194202,18.797265,0.000000,-0.305519,0.105110,2.030101,-0.015724,-0.033103,2.291568,0.670040,14.201071,0.067846,0.082025,-0.031619,1.170718,-2.278183,12.741584,-0.050479,-0.398899,1,0,,38.991354,-76.936548,-9.913000,,,
2026-09-11T17:40:10.924,11.160545,2.021003,16.262002,18.712994,0.000000,-0.208015,0.071565,2.021002,-0.027988,-0.058921,2.290031,0.625971,14.252423,0.015104,-0.109790,-0.057438,-1.697335,12.537410,9.488817,-0.167625,0.406764,1,0,,38.991354,-76.936548,-9.913000,,,
2026-09-11T17:40:10.957,11.193952,2.011752,16.328742,18.627331,0.000000,1.119271,-0.385070,2.011706,-0.019757,-0.041594,2.288352,0.582236,14.303662,0.111272,-0.113242,-0.040110,0.717455,-6.023048,12.859558,-0.129600,0.000281,1,0,,38.991354,-76.936548,-9.913000,,,
2026-09-11T17:40:10.992,11.227373,2.012185,16.396325,18.631346,0.000000,2.947808,-1.014154,2.011870,-0.049170,-0.103515,2.285927,0.538957,14.355127,0.013652,-0.062349,-0.102032,-0.550545,-8.172764,12.126413,-0.177079,-0.532838,1,0,,38.991354,-76.936548,-9.913000,,,
2026-09-11T17:40:11.026,11.260795,2.003003,16.463988,18.546326,0.000000,5.174599,-1.780252,2.002036,-0.023431,-0.049328,2.283373,0.495954,14.406621,-0.015342,0.069516,-0.047845,-0.303320,-7.886508,11.241559,-0.212248,-1.048553,1,0,,38.991354,-76.936548,-9.913000,,,
2026-09-11T17:40:11.059,11.294202,2.012542,16.530420,18.634648,0.000000,5.898323,-2.029240,2.011280,-0.035086,-0.073865,2.281315,0.452920,14.458030,-0.153286,-0.097577,-0.072382,-1.802658,-4.387986,2.796366,-0.348855,-1.328778,1,0,,38.991354,-76.936548,-9.913000,,,
2026-09-11T17:40:11.092,11.327611,2.022460,16.597833,18.726484,0.000000,5.841332,-2.009632,2.021216,-0.017862,-0.037604,2.279453,0.409704,14.509708,-0.058746,0.054971,-0.036121,1.168757,-1.027149,9.238551,-0.295784,-1.393219,1,1,11.320026,38.991364,-76.936528,-10.069000,14.317632,-2.257998,5.476834
2026-09-11T17:40:11.126,11.361018,2.022811,16.666122,18.729729,0.000000,4.971352,-1.710327,2.021910,-0.019669,-0.041409,2.278133,0.366262,14.561419,-0.134538,0.002003,-0.039926,0.703333,2.764397,13.413046,-0.276223,-1.211211,1,0,,38.991364,-76.936528,-10.069000,,,
2026-09-11T17:40:11.159,11.394439,2.071749,16.734845,19.182860,0.000000,-2.012520,0.692381,2.071598,-0.001372,-0.002889,2.277393,0.322097,14.613659,-0.063437,0.046871,-0.001406,1.809229,4.743869,10.924314,-0.187517,-0.908079,1,0,,38.991364,-76.936528,-10.069000,,,
2026-09-11T17:40:11.193,11.427850,2.081594,16.804023,19.274019,0.000000,-5.971031,2.054254,2.080256,0.031844,0.067040,2.278465,0.276652,14.666056,-0.035798,0.070951,0.068524,4.077115,1.074711,15.428214,0.045347,-0.855158,1,0,,38.991364,-76.936528,-10.069000,,,
2026-09-11T17:40:11.226,11.461302,2.081950,16.873372,19.277317,0.000000,-7.290764,2.508290,2.079956,0.084974,0.178893,2.282578,0.229829,14.717563,-0.064645,-0.005973,0.180376,-2.699379,-3.160095,8.043807,-0.164162,-1.092103,1,0,,38.991364,-76.936528,-10.069000,,,
2026-09-11T17:40:11.259,11.494710,2.082473,16.943131,19.282157,0.000000,-9.601326,3.303208,2.079013,0.096041,0.202191,2.288944,0.182001,14.768039,-0.136074,-0.223773,0.203675,2.011050,-3.878824,-2.763612,-0.068337,-1.375720,1,0,,38.991364,-76.936528,-10.069000,,,
2026-09-11T17:40:11.293,11.528111,2.102633,17.013232,19.468822,0.000000,-11.501960,3.957096,2.097620,0.105691,0.222506,2.296037,0.133390,14.818173,-0.009657,-0.016187,0.223990,0.532991,0.699999,12.236444,-0.069663,-1.363035,1,0,,38.991364,-76.936528,-10.069000,,,
2026-09-11T17:40:11.326,11.561533,2.113049,17.084392,19.565265,0.000000,-13.469886,4.634135,2.106141,0.072390,0.152400,2.302302,0.084407,14.868617,0.138698,0.142603,0.153883,0.774431,3.853523,14.180220,-0.055216,-1.136993,1,0,,38.991364,-76.936528,-10.069000,,,
2026-09-11T17:40:11.359,11.594940,2.123286,17.154858,19.660057,0.000000,-16.073646,5.529924,2.113404,0.107141,0.225559,2.308615,0.034936,14.918906,-0.060479,0.074721,0.227043,-2.479906,7.655267,3.942862,-0.252393,-0.677711,1,0,,38.991364,-76.936528,-10.069000,,,
2026-09-11T17:40:11.393,11.628339,2.113666,17.225631,19.570985,0.000000,-17.312355,5.956085,2.102256,0.118857,0.250225,2.316560,-0.015408,14.968260,0.025270,0.027783,0.251708,-2.303092,-0.724908,7.204946,-0.433170,-0.768739,1,0,,38.991364,-76.936528,-10.069000,,,
2026-09-11T17:40:11.426,11.661750,2.123583,17.295664,19.662804,0.000000,-18.577842,6.391460,2.110384,0.116063,0.244343,2.324822,-0.066244,15.017081,-0.036538,-0.109639,0.245827,0.157789,-6.101011,-1.346159,-0.449115,-1.205881,1,0,,38.991364,-76.936528,-10.069000,,,
2026-09-11T17:40:11.460,11.695173,2.123925,17.366710,19.665976,0.000000,-19.802818,6.812896,2.108928,0.145105,0.305484,2.334011,-0.117916,15.065253,0.017143,0.025102,0.306968,1.220536,0.889071,10.778097,-0.393792,-1.194321,1,0,,38.991364,-76.936528,-10.069000,,,
2026-09-11T17:40:11.493,11.728592,2.133915,17.438110,19.758474,0.000000,-21.349830,7.345125,2.116404,0.146724,0.308892,2.344277,-0.170486,15.112630,-0.012294,-0.105712,0.310376,1.309580,3.328279,14.055479,-0.331551,-1.025684,1,0,,38.991364,-76.936528,-10.069000,,,
2026-09-11T17:40:11.526,11.761998,2.153756,17.510205,19.942188,0.000000,-24.071006,8.281310,2.131299,0.171575,0.361211,2.355469,-0.224119,15.159376,-0.120196,-0.124654,0.362695,-0.132292,5.456910,11.047878,-0.361578,-0.728795,1,0,,38.991364,-76.936528,-10.069000,,,
2026-09-11T17:40:11.560,11.795406,2.154156,17.581798,19.945886,0.000000,-28.477897,9.797442,2.122738,0.204482,0.430488,2.368694,-0.279072,15.204855,-0.135618,-0.066069,0.431972,2.769496,-6.360593,4.887929,-0.202396,-1.208893,1,0,,38.991364,-76.936528,-10.069000,,,
2026-09-11T17:40:11.594,11.828812,2.183902,17.654178,20.221316,0.000000,-30.018043,10.327308,2.148522,0.229482,0.483120,2.383954,-0.335544,15.249044,-0.000170,-0.198242,0.484604,0.924375,3.174315,6.815622,-0.164597,-1.074965,1,0,,38.991364,-76.936528,-10.069000,,,
2026-09-11T17:40:11.627,11.862239,2.184363,17.727378,20.225586,0.000000,-30.907249,10.633228,2.146855,0.199921,0.420886,2.399063,-0.392961,15.292734,0.026189,-0.022796,0.422370,0.124446,-2.906103,4.372687,-0.181739,-1.327249,1,0,,38.991364,-76.936528,-10.069000,,,
2026-09-11T17:40:11.660,11.895662,2.194607,17.800805,20.320432,0.000000,-30.950508,10.648110,2.156817,0.182649,0.384525,2.412523,-0.450567,15.336266,-0.094895,-0.300671,0.386009,-0.244284,6.409823,15.939925,-0.226525,-0.969074,1,0,,38.991364,-76.936528,-10.069000,,,
2026-09-11T17:40:11.693,11.929063,2.185411,17.872923,20.235283,0.000000,-30.546760,10.509207,2.148752,0.214877,0.452373,2.426499,-0.508911,15.378807,0.018238,-0.367310,0.453857,-4.602359,7.694200,-7.642028,-0.555947,-0.541228,1,0,,38.991364,-76.936528,-10.069000,,,
2026-09-11T17:40:11.727,11.962471,2.165908,17.944824,20.054702,0.000000,-30.583839,10.521963,2.129488,0.234148,0.492943,2.442290,-0.568104,15.419534,0.049122,-0.265066,0.494426,1.946620,-4.566957,16.638551,-0.460058,-0.916194,1,0,,38.991364,-76.936528,-10.069000,,,
2026-09-11T17:40:11.761,11.995879,2.156725,18.017648,19.969678,0.000000,-30.777473,10.588580,2.120000,0.236983,0.498912,2.458858,-0.627816,15.458708,0.083896,-0.105612,0.500395,1.061766,-10.057798,3.532257,-0.421020,-1.642636,1,0,,38.991364,-76.936528,-10.069000,,,
2026-09-11T17:40:11.794,12.029291,2.157072,18.089743,19.972885,0.000000,-30.796699,10.595195,2.120295,0.194244,0.408935,2.474024,-0.687618,15.497362,0.173679,-0.002769,0.410418,0.293611,-3.293956,11.779160,-0.431728,-1.911247,1,0,,38.991364,-76.936528,-10.069000,,,
2026-09-11T17:40:11.827,12.062716,2.167077,18.161860,20.065531,0.000000,-30.920982,10.637953,2.129832,0.212000,0.446316,2.488318,-0.747876,15.535571,0.001715,0.046236,0.447800,-1.523561,5.525067,6.029129,-0.555921,-1.611687,1,0,,38.991364,-76.936528,-10.069000,,,
2026-09-11T17:40:11.861,12.096123,2.176810,18.235208,20.155648,0.000000,-30.808372,10.599211,2.139669,0.225981,0.475750,2.503719,-0.809238,15.572631,-0.099145,-0.192492,0.477234,2.345849,1.193862,3.505779,-0.423848,-1.600096,1,0,,38.991364,-76.936528,-10.069000,,,
2026-09-11T17:40:11.894,12.129523,2.206412,18.309023,20.429737,0.000000,-30.875663,10.622361,2.168601,0.222319,0.468040,2.519481,-0.871787,15.608966,-0.014431,0.123752,0.469524,-0.943988,5.747874,4.276484,-0.509188,-1.293955,1,0,,38.991364,-76.936528,-10.069000,,,
2026-09-11T17:40:11.928,12.162943,2.235938,18.383043,20.703130,0.000000,-30.721168,10.569209,2.198003,0.224873,0.473416,2.535212,-0.935721,15.644908,-0.072826,-0.039684,0.474900,1.303990,-2.620141,4.088981,-0.455030,-1.534116,1,0,,38.991364,-76.936528,-10.069000,,,
2026-09-11T17:40:11.961,12.196365,2.265501,18.458636,20.976857,0.000000,-31.332969,10.779691,2.225523,0.241396,0.508203,2.551616,-1.001193,15.680091,-0.065485,-0.029595,0.509686,-0.145236,-8.370270,-7.395979,-0.504036,-2.149564,1,0,,38.991364,-76.936528,-10.069000,,,
2026-09-11T17:40:11.994,12.229778,2.275681,18.534878,21.071116,0.000000,-31.537590,10.850088,2.234998,0.238015,0.501084,2.568478,-1.067862,15.714332,-0.005487,-0.276322,0.502567,3.491756,-0.682347,9.140484,-0.323831,-2.259989,1,0,,38.991364,-76.936528,-10.069000,,,
2026-09-11T17:40:12.027,12.263189,2.266174,18.610629,20.983091,0.000000,-31.676979,10.898043,2.225304,0.221369,0.466039,2.584634,-1.134901,15.747749,0.001795,0.213712,0.467523,-2.998089,-6.285572,10.647276,-0.569758,-2.726326,1,0,,38.991364,-76.936528,-10.069000,,,
2026-09-11T17:40:12.061,12.296596,2.276037,18.686552,21.074419,0.000000,-31.517677,10.843238,2.235400,0.205029,0.431640,2.599629,-1.202162,15.780585,0.169425,-0.098728,0.433123,-0.000785,2.190413,11.920081,-0.623350,-2.634491,1,0,,38.991364,-76.936528,-10.069000,,,
2026-09-11T17:40:12.094,12.330002,2.218257,18.760117,20.539416,0.000000,-30.920295,10.637716,2.180134,0.203217,0.427826,2.613984,-1.269087,15.812311,0.066884,-0.049089,0.429309,-1.868265,3.518920,0.352941,-0.799239,-2.455665,1,1,12.307281,38.991377,-76.936511,-10.167000,15.798672,-0.787445,4.223298
2026-09-11T17:40:12.128,12.363421,2.228241,18.834627,20.631860,0.000000,-30.914802,10.635826,2.189960,0.205864,0.433399,2.628375,-1.335840,15.842688,-0.109099,-0.133141,0.434882,1.918377,1.401959,5.979703,-0.724103,-2.416800,1,0,,38.991377,-76.936511,-10.167000,,,
2026-09-11T17:40:12.161,12.396842,2.277072,18.910857,21.083999,0.000000,-31.343269,10.783235,2.236863,0.240663,0.506658,2.644084,-1.404176,15.871963,-0.036419,0.048839,0.508142,3.168823,-2.664859,17.407294,-0.565132,-2.653458,1,0,,38.991377,-76.936511,-10.167000,,,
2026-09-11T17:40:12.195,12.430244,2.345683,18.989651,21.719286,0.000000,-33.411445,11.494763,2.298635,0.230244,0.484725,2.660641,-1.474737,15.900611,0.057218,-0.062326,0.486209,1.696649,-1.177779,13.608296,-0.497687,-2.789957,1,0,,38.991377,-76.936511,-10.167000,,,
2026-09-11T17:40:12.228,12.463650,2.404419,19.069083,22.263140,0.000000,-37.016334,12.734977,2.345271,0.268050,0.564315,2.678163,-1.547598,15.928469,0.132853,-0.252192,0.565799,0.933789,-1.238482,8.111865,-0.474030,-2.942431,1,0,,38.991377,-76.936511,-10.167000,,,
2026-09-11T17:40:12.261,12.497061,2.453575,19.151124,22.718286,0.000000,-42.634468,14.667821,2.373613,0.296331,0.623855,2.698012,-1.622585,15.954524,0.233392,-0.075424,0.625338,2.024779,6.051095,14.399497,-0.378887,-2.631781,1,0,,38.991377,-76.936511,-10.167000,,,
2026-09-11T17:40:12.296,12.530472,2.483121,19.235158,22.991862,0.000000,-42.987404,14.789244,2.400859,0.311614,0.656030,2.719393,-1.699244,15.978757,0.296995,-0.036733,0.657513,1.318406,-0.909469,10.969229,-0.327536,-2.781010,1,0,,38.991377,-76.936511,-10.167000,,,
2026-09-11T17:40:12.328,12.563891,2.531808,19.319865,23.442666,0.000000,-42.271919,14.543091,2.450686,0.323418,0.680880,2.741732,-1.777796,16.001410,0.167125,0.102338,0.682364,-4.294528,-11.440536,1.079026,-0.638099,-3.616361,1,0,,38.991377,-76.936511,-10.167000,,,
2026-09-11T17:40:12.362,12.597297,2.531968,19.403820,23.444151,0.000000,-41.778907,14.373477,2.452713,0.284750,0.599475,2.763118,-1.857430,16.023087,0.087514,0.184241,0.600958,-2.243565,-1.736464,14.823438,-0.808325,-3.801483,1,0,,38.991377,-76.936511,-10.167000,,,
2026-09-11T17:40:12.395,12.630700,2.493610,19.487194,23.088983,0.000000,-38.831825,13.359573,2.426131,0.286544,0.603250,2.783205,-1.936876,16.043535,0.097551,0.078187,0.604734,-1.353220,3.797233,8.466375,-0.907462,-3.625992,1,0,,38.991377,-76.936511,-10.167000,,,
2026-09-11T17:40:12.429,12.664107,2.494084,19.570442,23.093367,0.000000,-30.225410,10.398650,2.453120,0.245890,0.517663,2.801928,-2.016507,16.063047,0.095846,0.051654,0.519146,-2.794503,0.560646,4.994429,-1.086182,-3.649364,1,0,,38.991377,-76.936511,-10.167000,,,
2026-09-11T17:40:12.462,12.697517,2.436069,19.652164,22.556191,0.000000,-29.855995,10.271558,2.397027,0.193549,0.407471,2.817383,-2.095500,16.082518,0.101966,0.084070,0.408955,-1.789714,-3.135284,2.045079,-1.185993,-3.892745,1,0,,38.991377,-76.936511,-10.167000,,,
2026-09-11T17:40:12.496,12.730940,2.426985,19.733772,22.472084,0.000000,-28.103676,9.668696,2.392511,0.168947,0.355679,2.830136,-2.173425,16.101778,-0.169061,-0.261946,0.357162,-1.637613,-2.810586,5.943811,-1.266471,-4.104387,1,0,,38.991377,-76.936511,-10.167000,,,
2026-09-11T17:40:12.529,12.764349,2.407983,19.813386,22.296141,0.000000,-25.847358,8.892440,2.379040,0.172866,0.363928,2.842157,-2.251157,16.120303,-0.189672,-0.219990,0.365411,0.848177,-2.922186,5.669617,-1.178804,-4.321817,1,0,,38.991377,-76.936511,-10.167000,,,
2026-09-11T17:40:12.562,12.797756,2.369473,19.891997,21.939561,0.000000,-22.977180,7.904993,2.346957,0.135744,0.285777,2.853009,-2.328205,16.138249,-0.060876,0.044861,0.287260,1.331841,-0.005786,16.962563,-1.052573,-4.335373,1,0,,38.991377,-76.936511,-10.167000,,,
2026-09-11T17:40:12.596,12.831319,2.321508,19.970222,21.495446,0.000000,-20.396766,7.017236,2.304119,0.125953,0.265165,2.862255,-2.404362,16.155904,-0.261353,-0.066724,0.266648,2.169035,-3.277284,4.457417,-0.867337,-4.557799,1,0,,38.991377,-76.936511,-10.167000,,,
2026-09-11T17:40:12.629,12.864740,2.253444,20.045085,20.865220,0.000000,-19.251442,6.623202,2.238405,0.142070,0.299095,2.871684,-2.478635,16.172182,-0.216419,0.060588,0.300579,3.931780,0.593793,2.058808,-0.572201,-4.529824,1,0,,38.991377,-76.936511,-10.167000,,,
2026-09-11T17:40:12.662,12.898148,2.195609,20.118752,20.329709,0.000000,-19.060554,6.557530,2.181244,0.120221,0.253096,2.880908,-2.551026,16.187315,0.002196,0.087732,0.254579,2.490301,3.315040,10.000528,-0.374508,-4.318344,1,0,,38.991377,-76.936511,-10.167000,,,
2026-09-11T17:40:12.696,12.931549,2.166692,20.191963,20.061962,0.000000,-19.058494,6.556821,2.152520,0.110567,0.232774,2.889022,-2.622011,16.201960,0.066796,-0.070156,0.234257,0.526323,4.963342,5.544190,-0.307348,-3.999291,1,0,,38.991377,-76.936511,-10.167000,,,
2026-09-11T17:40:12.729,12.964954,2.118551,20.262372,19.616217,0.000000,-19.190330,6.602178,2.104502,0.109405,0.230326,2.896757,-2.691830,16.215903,-0.051835,-0.068167,0.231810,1.526013,-0.858278,1.143946,-0.180823,-4.059559,1,0,,38.991377,-76.936511,-10.167000,,,
2026-09-11T17:40:12.763,12.998377,2.109071,20.333361,19.528431,0.000000,-17.747688,6.105856,2.097106,0.090585,0.190705,2.903793,-2.760809,16.229439,0.128987,-0.063206,0.192189,-0.219081,8.020075,8.316432,-0.171084,-3.538769,1,0,,38.991377,-76.936511,-10.167000,,,
2026-09-11T17:40:12.797,13.031786,2.070698,20.403177,19.173134,0.000000,-16.388817,5.638354,2.060680,0.074267,0.156352,2.909590,-2.828996,16.242927,0.104896,-0.131941,0.157835,1.191900,1.655559,-0.773745,-0.075008,-3.430916,1,0,,38.991377,-76.936511,-10.167000,,,
2026-09-11T17:40:12.829,13.065206,2.052003,20.471330,19.000026,0.000000,-14.483375,4.982813,2.044248,0.060827,0.128057,2.914343,-2.896304,16.256343,0.090011,-0.039425,0.129541,-0.047660,6.774532,10.840761,-0.067572,-2.988971,1,0,,38.991377,-76.936511,-10.167000,,,
2026-09-11T17:40:12.863,13.098612,2.033288,20.539631,18.826739,0.000000,-10.597648,3.645980,2.029173,0.047456,0.099908,2.918151,-2.963027,16.269783,0.040235,0.113998,0.101392,1.999380,5.733458,3.218150,0.063939,-2.615720,1,0,,38.991377,-76.936511,-10.167000,,,
2026-09-11T17:40:12.897,13.132014,2.043533,20.608445,18.921603,0.000000,-5.228080,1.798652,2.042526,0.055291,0.116403,2.921763,-3.029741,16.283057,-0.203437,-0.116905,0.117887,-0.385401,7.109135,2.098819,0.030455,-2.159992,1,0,,38.991377,-76.936511,-10.167000,,,
2026-09-11T17:40:12.930,13.165423,2.043812,20.675424,18.924189,0.000000,-5.559044,1.912515,2.042674,0.019590,0.041243,2.924397,-3.096632,16.296630,0.015319,-0.030579,0.042727,0.054231,6.791596,8.291817,0.018362,-1.719852,1,0,,38.991377,-76.936511,-10.167000,,,
2026-09-11T17:40:12.964,13.198846,2.034011,20.743679,18.833433,0.000000,-4.993934,1.718097,2.033096,0.001346,0.002834,2.925133,-3.163224,16.310941,-0.087480,0.114208,0.004318,-1.325663,9.058010,7.391861,-0.089107,-1.132686,1,0,,38.991377,-76.936511,-10.167000,,,
2026-09-11T17:40:12.997,13.232252,2.053690,20.812698,19.015646,0.000000,-4.807167,1.653842,2.052834,0.011450,0.024106,2.925583,-3.229928,16.325375,0.071992,-0.130276,0.025590,-2.963079,1.223380,6.318032,-0.304746,-1.061852,1,0,,38.991377,-76.936511,-10.167000,,,
2026-09-11T17:40:13.030,13.265660,2.054354,20.881853,19.021798,0.000000,-4.848365,1.668016,2.053484,0.037443,0.078827,2.927302,-3.297112,16.339221,0.040156,-0.074789,0.080311,-2.374484,2.123630,6.059235,-0.482417,-0.940837,1,0,,38.991377,-76.936511,-10.167000,,,
2026-09-11T17:40:13.064,13.299065,2.083695,20.951191,19.293469,0.000000,-5.436134,1.870230,2.082585,0.050149,0.105577,2.930383,-3.364947,16.352377,0.083716,0.094572,0.107060,1.581126,-2.129318,15.003586,-0.405198,-1.099994,1,0,,38.991377,-76.936511,-10.167000,,,
2026-09-11T17:40:13.097,13.332485,2.093679,21.020961,19.385913,0.000000,-5.261726,1.810227,2.092634,0.031135,0.065547,2.933242,-3.433468,16.365577,0.059009,0.038695,0.067030,-0.061880,-1.959467,-0.026772,-0.437014,-1.241111,1,1,13.308057,38.991396,-76.936501,-10.183000,16.645639,1.260765,3.464707
2026-09-11T17:40:13.130,13.365903,2.103979,21.091005,19.481286,0.000000,-5.563163,1.913932,2.102805,0.030515,0.064242,2.935411,-3.502282,16.378995,0.047816,0.063755,0.065726,0.284393,-4.268050,10.253049,-0.446782,-1.529885,1,0,,38.991396,-76.936501,-10.183000,,,
2026-09-11T17:40:13.164,13.399308,2.114026,21.161574,19.574319,0.000000,-6.222343,2.140714,2.112551,0.053972,0.113626,2.938381,-3.571503,16.391924,-0.081408,0.040598,0.115110,2.013403,-5.370122,10.615993,-0.344352,-1.893399,1,0,,38.991396,-76.936501,-10.183000,,,
2026-09-11T17:40:13.197,13.432707,2.134059,21.233383,19.759809,0.000000,-7.543449,2.595223,2.131871,0.057566,0.121193,2.942303,-3.641326,16.404267,0.034771,-0.040430,0.122676,-1.857380,2.899336,9.672495,-0.495375,-1.719292,1,0,,38.991396,-76.936501,-10.183000,,,
2026-09-11T17:40:13.230,13.466116,2.134653,21.303689,19.765310,0.000000,-9.350013,3.216748,2.131290,0.077237,0.162604,2.947044,-3.711603,16.415991,-0.011269,0.025889,0.164088,0.294592,1.210925,9.795569,-0.506202,-1.661978,1,0,,38.991396,-76.936501,-10.183000,,,
2026-09-11T17:40:13.264,13.499540,2.135121,21.375146,19.769635,0.000000,-11.232109,3.864258,2.130266,0.081932,0.172488,2.952644,-3.782023,16.426953,0.108996,0.166296,0.173971,1.749016,3.931388,12.577715,-0.420910,-1.430584,1,0,,38.991396,-76.936501,-10.183000,,,
2026-09-11T17:40:13.299,13.532947,2.135012,21.447628,19.768628,0.000000,-14.946174,5.142032,2.126420,0.113902,0.239794,2.959530,-3.852506,16.436852,-0.185808,0.097986,0.241278,1.691059,-5.524576,2.709381,-0.338525,-1.822670,1,0,,38.991396,-76.936501,-10.183000,,,
2026-09-11T17:40:13.331,13.566353,2.135568,21.518128,19.773775,0.000000,-17.373466,5.977110,2.123958,0.112140,0.236083,2.967479,-3.923045,16.445713,0.026532,0.055271,0.237567,-5.544092,4.154391,5.857512,-0.722674,-1.583862,1,0,,38.991396,-76.936501,-10.183000,,,
2026-09-11T17:40:13.364,13.599761,2.136005,21.589858,19.777825,0.000000,-17.716789,6.095226,2.123930,0.138004,0.290534,2.976275,-3.993686,16.453579,-0.107703,0.005138,0.292018,0.939379,-1.739307,10.207742,-0.680574,-1.736368,1,0,,38.991396,-76.936501,-10.183000,,,
2026-09-11T17:40:13.398,13.633182,2.146260,21.662135,19.872782,0.000000,-18.307304,6.298384,2.133306,0.128360,0.270231,2.985646,-4.064623,16.460562,-0.007996,0.114117,0.271715,-0.490333,1.704788,12.363342,-0.730819,-1.661767,1,0,,38.991396,-76.936501,-10.183000,,,
2026-09-11T17:40:13.431,13.666594,2.146622,21.733957,19.876134,0.000000,-18.191948,6.258698,2.133828,0.126560,0.266442,2.994612,-4.135736,16.467109,0.094707,-0.021154,0.267926,-1.024305,-0.052858,8.050671,-0.812591,-1.701196,1,0,,38.991396,-76.936501,-10.183000,,,
2026-09-11T17:40:13.464,13.700002,2.166501,21.806120,20.060199,0.000000,-18.131523,6.237909,2.153674,0.119874,0.252367,3.003278,-4.207213,16.473214,0.027602,0.000202,0.253851,0.053250,-0.281745,0.436788,-0.823152,-1.753370,1,0,,38.991396,-76.936501,-10.183000,,,
2026-09-11T17:40:13.498,13.733408,2.167178,21.878397,20.066464,0.000000,-18.025093,6.201293,2.154497,0.118125,0.248685,3.011647,-4.279056,16.478897,0.036031,-0.134180,0.250169,-3.518430,2.245821,6.653028,-1.069701,-1.640992,1,0,,38.991396,-76.936501,-10.183000,,,
2026-09-11T17:40:13.531,13.766815,2.157814,21.950150,19.979757,0.000000,-17.955742,6.177434,2.145284,0.114157,0.240331,3.019815,-4.350797,16.484065,0.097353,-0.025039,0.241814,1.404214,-0.348528,15.949340,-1.000880,-1.696343,1,0,,38.991396,-76.936501,-10.183000,,,
2026-09-11T17:40:13.565,13.800245,2.168197,22.022575,20.075902,0.000000,-17.757988,6.109399,2.155883,0.125367,0.263931,3.028244,-4.422662,16.488520,-0.071669,-0.264509,0.265414,1.786379,1.468154,7.272808,-0.914670,-1.636998,1,0,,38.991396,-76.936501,-10.183000,,,
2026-09-11T17:40:13.598,13.833651,2.158657,22.094852,19.987563,0.000000,-17.782707,6.117904,2.146363,0.083338,0.175449,3.035583,-4.494474,16.492922,0.074805,0.228394,0.176933,3.416735,0.781100,12.452681,-0.728078,-1.610341,1,0,,38.991396,-76.936501,-10.183000,,,
2026-09-11T17:40:13.631,13.867055,2.148750,22.166343,19.895836,0.000000,-17.738762,6.102785,2.136573,0.139084,0.292808,3.043404,-4.566010,16.496517,0.007418,0.177873,0.294291,0.188680,-2.545610,12.468273,-0.754305,-1.815231,1,0,,38.991396,-76.936501,-10.183000,,,
2026-09-11T17:40:13.665,13.900463,2.168338,22.238859,20.077207,0.000000,-17.435264,5.998371,2.156466,0.128196,0.269886,3.052803,-4.637824,16.498765,-0.084528,-0.015077,0.271370,-0.128663,1.268098,11.741796,-0.804217,-1.768388,1,0,,38.991396,-76.936501,-10.183000,,,
2026-09-11T17:40:13.699,13.933879,2.139533,22.311706,19.810488,0.000000,-17.536201,6.033097,2.127683,0.108717,0.228877,3.061136,-4.709482,16.500873,-0.067897,0.105512,0.230361,-1.768433,0.951735,6.065511,-0.960313,-1.736371,1,0,,38.991396,-76.936501,-10.183000,,,
2026-09-11T17:40:13.732,13.967289,2.178822,22.384268,20.174273,0.000000,-18.000374,6.192789,2.166107,0.130488,0.274712,3.069549,-4.781304,16.502350,-0.127525,-0.059642,0.276196,2.831768,3.896672,8.401553,-0.816283,-1.521216,1,0,,38.991396,-76.936501,-10.183000,,,
2026-09-11T17:40:13.765,14.000706,2.217827,22.458914,20.535435,0.000000,-18.099937,6.227043,2.204742,0.131577,0.277004,3.078767,-4.854463,16.502899,-0.143561,-0.042218,0.278487,-2.342809,-0.444143,3.232664,-1.010045,-1.590251,1,0,,38.991396,-76.936501,-10.183000,,,
2026-09-11T17:40:13.799,14.034110,2.266781,22.535008,20.988713,0.000000,-19.756813,6.797069,2.250849,0.164227,0.345742,3.089168,-4.929039,16.502249,0.006087,-0.166435,0.347226,2.972298,-11.456129,10.838506,-0.853913,-2.381526,1,0,,38.991396,-76.936501,-10.183000,,,
2026-09-11T17:40:13.832,14.067512,2.325355,22.611432,21.531064,0.000000,-24.075813,8.282963,2.301098,0.218530,0.460062,3.102626,-5.005264,16.499330,0.010993,-0.038291,0.461546,3.021821,-9.207072,-5.160554,-0.690433,-3.036769,1,0,,38.991396,-76.936501,-10.183000,,,
2026-09-11T17:40:13.866,14.100932,2.354901,22.690522,21.804641,0.000000,-32.085533,11.038601,2.311332,0.176779,0.372166,3.116532,-5.082513,16.495194,0.314542,0.254538,0.373649,-5.132899,8.206793,13.429129,-1.055237,-2.545319,1,0,,38.991396,-76.936501,-10.183000,,,
2026-09-11T17:40:13.900,14.134347,2.384487,22.771652,22.078585,0.000000,-32.038841,11.022537,2.340498,0.245147,0.516098,3.131373,-5.160337,16.489513,0.332794,0.158128,0.517582,-2.969061,1.821291,12.429929,-1.273666,-2.495077,1,0,,38.991396,-76.936501,-10.183000,,,
2026-09-11T17:40:13.932,14.167753,2.423210,22.850981,22.437127,0.000000,-33.392906,11.488385,2.374661,0.259342,0.545983,3.149113,-5.239099,16.481188,0.254116,-0.283246,0.547466,-3.327298,4.113497,6.999006,-1.509013,-2.302876,1,0,,38.991396,-76.936501,-10.183000,,,
2026-09-11T17:40:13.965,14.201192,2.413588,22.931609,22.348036,0.000000,-31.486091,10.832371,2.370581,0.246743,0.519459,3.166927,-5.318286,16.471425,0.104616,-0.128889,0.520943,4.605497,-3.677984,17.179290,-1.220157,-2.612868,1,0,,38.991396,-76.936501,-10.183000,,,
2026-09-11T17:40:13.999,14.234597,2.423534,23.012772,22.440129,0.000000,-30.329094,10.434321,2.383456,0.223144,0.469778,3.183449,-5.397382,16.460913,-0.006756,-0.029797,0.471261,1.486590,-1.519050,-3.537651,-1.125085,-2.772256,1,0,,38.991396,-76.936501,-10.183000,,,
2026-09-11T17:40:14.033,14.268007,2.414080,23.093355,22.352596,0.000000,-26.419334,9.089220,2.383768,0.171036,0.360076,3.197312,-5.476607,16.450452,-0.023393,-0.036656,0.361560,-0.610758,2.725366,14.940530,-1.155987,-2.638399,1,0,,38.991396,-76.936501,-10.183000,,,
2026-09-11T17:40:14.066,14.301416,2.346257,23.171682,21.724600,0.000000,-22.658577,7.795382,2.324574,0.144467,0.304142,3.208408,-5.554789,16.440381,-0.236699,0.049534,0.305625,-0.046876,2.233857,13.056672,-1.140279,-2.528040,1,0,,38.991396,-76.936501,-10.183000,,,
2026-09-11T17:40:14.099,14.334820,2.307899,23.249872,21.369431,0.000000,-18.417854,6.336418,2.293800,0.110777,0.233215,3.217382,-5.631427,16.430636,-0.270114,-0.079958,0.234698,-1.830902,-1.872384,8.081758,-1.234885,-2.673388,1,1,14.313847,38.991414,-76.936497,-10.245000,17.002864,3.324543,3.464111
2026-09-11T17:40:14.133,14.368221,2.298904,23.325373,21.286150,0.000000,-16.656608,5.730485,2.287416,0.097492,0.205247,3.224705,-5.707420,16.421097,-0.110155,-0.101646,0.206731,-0.292434,-4.408383,14.557384,-1.225373,-2.976930,1,0,,38.991414,-76.936497,-10.245000,,,
2026-09-11T17:40:14.166,14.401644,2.280055,23.401558,21.111619,0.000000,-16.526832,5.685837,2.268837,0.098405,0.207169,3.231597,-5.782993,16.411254,-0.268498,-0.308156,0.208652,-0.250266,9.830186,2.898257,-1.209988,-2.355805,1,0,,38.991414,-76.936497,-10.245000,,,
2026-09-11T17:40:14.200,14.435064,2.231867,23.476558,20.665437,0.000000,-16.949806,5.831355,2.220318,0.127846,0.269150,3.239556,-5.857318,16.400454,-0.020886,-0.045690,0.270633,-2.897179,0.080218,7.055296,-1.366922,-2.380826,1,0,,38.991414,-76.936497,-10.245000,,,
2026-09-11T17:40:14.233,14.468465,2.163350,23.547980,20.031014,0.000000,-17.844505,6.139165,2.150943,0.128043,0.269564,3.248553,-5.929500,16.388741,-0.024508,0.002648,0.271048,-0.138568,1.330174,7.006263,-1.344453,-2.323570,1,0,,38.991414,-76.936497,-10.245000,,,
2026-09-11T17:40:14.266,14.501867,2.134355,23.618924,19.762551,0.000000,-19.196510,6.604304,2.120192,0.121217,0.255193,3.257317,-5.999927,16.376680,0.047959,-0.084706,0.256676,-1.616920,1.797657,9.376236,-1.415104,-2.234208,1,0,,38.991414,-76.936497,-10.245000,,,
2026-09-11T17:40:14.300,14.535273,2.086088,23.689344,19.315628,0.000000,-21.141090,7.273311,2.069302,0.123598,0.260207,3.265926,-6.068911,16.364245,-0.037092,0.122922,0.261690,1.872482,4.118793,8.249550,-1.262831,-1.995529,1,0,,38.991414,-76.936497,-10.245000,,,
2026-09-11T17:40:14.333,14.568683,2.086437,23.758454,19.318857,0.000000,-23.959083,8.242804,2.064882,0.148872,0.313416,3.275508,-6.136810,16.350839,0.120598,-0.027520,0.314899,-2.943564,11.869871,17.842023,-1.431553,-1.265130,1,0,,38.991414,-76.936497,-10.245000,,,
2026-09-11T17:40:14.367,14.602098,2.077053,23.828133,19.231968,0.000000,-27.623710,9.503570,2.048546,0.131193,0.276196,3.285359,-6.204227,16.336695,0.013939,-0.028642,0.277679,2.706439,5.221747,-1.730580,-1.236092,-0.967535,1,0,,38.991414,-76.936497,-10.245000,,,
2026-09-11T17:40:14.400,14.635516,2.077409,23.897904,19.235268,0.000000,-27.671089,9.519870,2.048799,0.149599,0.314945,3.295236,-6.271235,16.321913,-0.068511,0.002712,0.316428,1.433732,-1.417355,1.208277,-1.126672,-1.107909,1,0,,38.991414,-76.936497,-10.245000,,,
2026-09-11T17:40:14.433,14.668922,2.087755,23.967105,19.331065,0.000000,-26.438560,9.095835,2.061502,0.133321,0.280676,3.305185,-6.338282,16.306401,-0.033829,-0.019190,0.282160,0.683327,7.253391,6.370988,-1.072492,-0.681543,1,0,,38.991414,-76.936497,-10.245000,,,
2026-09-11T17:40:14.467,14.702326,2.117329,24.038163,19.604895,0.000000,-25.470390,8.762749,2.092614,0.129596,0.272834,3.314430,-6.405949,16.290453,-0.121845,-0.135086,0.274317,0.222905,3.190496,2.834024,-1.056497,-0.522193,1,0,,38.991414,-76.936497,-10.245000,,,
2026-09-11T17:40:14.500,14.735741,2.107788,24.109039,19.516557,0.000000,-25.459404,8.758969,2.083206,0.130899,0.275577,3.323592,-6.473853,16.273857,-0.018291,0.029661,0.277061,0.502493,8.213854,12.470234,-1.028228,-0.039678,1,0,,38.991414,-76.936497,-10.245000,,,
2026-09-11T17:40:14.534,14.769160,2.088870,24.179162,19.341385,0.000000,-26.041679,8.959293,2.063384,0.135033,0.284280,3.332947,-6.541111,16.256633,0.004056,0.097621,0.285763,-1.809425,9.721332,15.293079,-1.155196,0.534443,1,0,,38.991414,-76.936497,-10.245000,,,
2026-09-11T17:40:14.567,14.802569,2.108315,24.249423,19.521436,0.000000,-27.750740,9.547273,2.079113,0.164264,0.345819,3.343473,-6.607996,16.238211,-0.151101,0.004108,0.347302,1.016655,3.897065,10.108793,-1.102333,0.716596,1,0,,38.991414,-76.936497,-10.245000,,,
2026-09-11T17:40:14.600,14.835982,2.127695,24.320583,19.700878,0.000000,-29.645195,10.199035,2.094074,0.182034,0.383230,3.355653,-6.675014,16.218155,0.056602,0.064951,0.384714,2.357126,1.497083,12.249291,-0.964505,0.735975,1,0,,38.991414,-76.936497,-10.245000,,,
2026-09-11T17:40:14.633,14.869382,2.127778,24.391505,19.701650,0.000000,-30.821418,10.603699,2.091443,0.220230,0.463643,3.369796,-6.741732,16.196271,-0.057843,-0.000289,0.465127,-0.013239,0.935456,5.895170,-0.980672,0.707966,1,0,,38.991414,-76.936497,-10.245000,,,
2026-09-11T17:40:14.667,14.902787,2.137675,24.463303,19.793289,0.000000,-34.067878,11.720600,2.093104,0.236281,0.497433,3.385848,-6.807894,16.172501,0.006163,0.059520,0.498916,-3.004365,3.107826,1.837570,-1.187803,0.816247,1,0,,38.991414,-76.936497,-10.245000,,,
2026-09-11T17:40:14.701,14.936206,2.167299,24.536560,20.067580,0.000000,-38.730201,13.324611,2.108955,0.269661,0.567707,3.403646,-6.873745,16.146731,-0.028351,-0.092184,0.569191,-3.275323,0.925257,4.749165,-1.408078,0.771934,1,0,,38.991414,-76.936497,-10.245000,,,
2026-09-11T17:40:14.734,14.969616,2.167714,24.608484,20.071430,0.000000,-42.924232,14.767511,2.096111,0.275265,0.579505,3.422810,-6.938969,16.119118,0.143813,-0.046796,0.580988,0.999690,3.868135,12.004222,-1.349656,0.917521,1,0,,38.991414,-76.936497,-10.245000,,,
2026-09-11T17:40:14.767,15.003015,2.168235,24.680271,20.076253,0.000000,-43.042335,14.808143,2.096222,0.303994,0.639988,3.443175,-7.003241,16.089742,-0.047532,-0.252008,0.641472,5.069548,-4.195383,5.535756,-1.031174,0.531389,1,0,,38.991414,-76.936497,-10.245000,,,
2026-09-11T17:40:14.801,15.036419,2.168791,24.753471,20.081402,0.000000,-42.960624,14.780031,2.097031,0.268923,0.566153,3.463320,-7.066970,16.059158,0.137522,0.119337,0.567637,2.227777,1.126784,10.840663,-0.898101,0.503949,1,0,,38.991414,-76.936497,-10.245000,,,
2026-09-11T17:40:14.834,15.069822,2.178914,24.825304,20.175127,0.000000,-42.146949,14.500097,2.109509,0.263439,0.554609,3.482038,-7.130518,16.027911,0.079745,0.031521,0.556093,1.673701,-0.780805,14.713310,-0.799568,0.354492,1,0,,38.991414,-76.936497,-10.245000,,,
2026-09-11T17:40:14.868,15.103233,2.159645,24.898150,19.996710,0.000000,-41.011924,14.109607,2.094491,0.245229,0.516272,3.499928,-7.193596,15.995888,0.099786,0.133415,0.517755,1.266333,-4.253340,17.753763,-0.729586,-0.012311,1,0,,38.991414,-76.936497,-10.245000,,,
2026-09-11T17:40:14.902,15.136637,2.140132,24.969915,19.816036,0.000000,-39.631767,13.634782,2.079819,0.244668,0.515090,3.517154,-7.255737,15.963240,-0.042542,-0.070853,0.516574,2.185314,-1.574262,-0.175049,-0.601573,-0.200964,1,0,,38.991414,-76.936497,-10.245000,,,
2026-09-11T17:40:14.934,15.170038,2.130767,25.040494,19.729326,0.000000,-39.376335,13.546904,2.071486,0.222519,0.468461,3.533579,-7.317102,15.930049,0.128214,-0.184782,0.469945,-2.551494,8.134028,9.350739,-0.779012,0.247051,1,0,,38.991414,-76.936497,-10.245000,,,
