timestamp,time_s,speed_mps,distance_m,wheel_omega_rad_s,motor_current_A,steer_motor_deg,steer_column_deg,vx_mps,vy_mps,yaw_rate_rad_s,heading_rad,x_m,y_m,gyro_x_rad_s,gyro_y_rad_s,gyro_z_rad_s,accel_x_mps2,accel_y_mps2,accel_z_mps2,grade_deg,bank_deg,moving,gps_new_fix,gps_time_s,gps_latitude_deg,gps_longitude_deg,gps_altitude_m,gps_east_m,gps_north_m,gps_sigma_m
2026-09-11T17:37:54.054,0.000008,-0.000000,-0.000000,-0.000000,0.000000,-0.936867,0.322316,-0.000000,-0.001106,-0.002329,0.000000,0.000000,0.000000,0.000126,-0.000137,-0.000845,0.064332,0.699312,9.690736,-1.029104,1.333652,0,1,0.002699,38.991427,-76.936663,-12.653000,0.000000,0.000000,2.755250
2026-09-11T17:37:54.089,0.033438,-0.000000,-0.000000,-0.000000,0.000000,-0.936867,0.322316,-0.000000,-0.001199,-0.002523,-0.000081,-0.000000,-0.000039,0.000148,0.001210,-0.001040,0.064822,0.700979,9.688970,-1.029073,1.333761,0,0,,38.991427,-76.936663,-12.653000,,,
2026-09-11T17:37:54.122,0.066855,-0.000000,-0.000000,-0.000000,0.000000,-0.936867,0.322316,-0.000000,-0.000282,-0.000594,-0.000133,-0.000000,-0.000063,0.001186,-0.001166,0.000889,0.064920,0.700783,9.691716,-1.029035,1.333855,0,0,,38.991427,-76.936663,-12.653000,,,
2026-09-11T17:37:54.155,0.100256,-0.000000,-0.000000,-0.000000,0.000000,-0.936867,0.322316,-0.000000,-0.000613,-0.001291,-0.000165,-0.000000,-0.000078,0.001354,0.001620,0.000192,0.067568,0.699704,9.694168,-1.028826,1.333878,0,0,,38.991427,-76.936663,-12.653000,,,
2026-09-11T17:37:54.189,0.133658,-0.000000,-0.000000,-0.000000,0.000000,-0.936867,0.322316,-0.000000,-0.001982,-0.004173,-0.000256,-0.000000,-0.000122,0.000610,0.000474,-0.002689,0.065116,0.699803,9.690736,-1.028779,1.333907,0,0,,38.991427,-76.936663,-12.653000,,,
2026-09-11T17:37:54.222,0.167064,-0.000000,-0.000000,-0.000000,0.000000,-0.936867,0.322316,-0.000000,-0.000685,-0.001442,-0.000350,-0.000000,-0.000166,-0.000853,-0.001281,0.000041,0.065606,0.694801,9.690147,-1.028700,1.333612,0,0,,38.991427,-76.936663,-12.653000,,,
2026-09-11T17:37:54.256,0.200469,-0.000000,-0.000000,-0.000000,0.000000,-0.936867,0.322316,-0.000000,-0.001275,-0.002685,-0.000419,-0.000000,-0.000199,0.000763,0.001066,-0.001201,0.063939,0.700293,9.694658,-1.028730,1.333676,0,0,,38.991427,-76.936663,-12.653000,,,
2026-09-11T17:37:54.290,0.233882,-0.000000,-0.000000,-0.000000,0.000000,-0.936867,0.322316,-0.000000,-0.002292,-0.004824,-0.000544,-0.000000,-0.000258,0.000306,0.000803,-0.003341,0.062468,0.702548,9.693678,-1.028854,1.333886,0,0,,38.991427,-76.936663,-12.653000,,,
2026-09-11T17:37:54.323,0.267319,-0.000000,-0.000000,-0.000000,0.000000,-0.936867,0.322316,-0.000000,-0.000379,-0.000798,-0.000638,-0.000000,-0.000303,-0.001566,-0.001317,0.000686,0.065410,0.701274,9.694952,-1.028787,1.334010,0,0,,38.991427,-76.936663,-12.653000,,,
2026-09-11T17:37:54.357,0.300742,-0.000000,-0.000000,-0.000000,0.000000,-0.936867,0.322316,-0.000000,-0.000923,-0.001944,-0.000684,-0.000000,-0.000325,0.002521,0.000626,-0.000460,0.066587,0.695978,9.692893,-1.028645,1.333790,0,0,,38.991427,-76.936663,-12.653000,,,
2026-09-11T17:37:54.391,0.334166,-0.000000,-0.000000,-0.000000,0.000000,-0.936867,0.322316,-0.000000,0.000186,0.000392,-0.000710,-0.000000,-0.000337,0.003025,0.000954,0.001875,0.063645,0.703235,9.692207,-1.028694,1.334043,0,0,,38.991427,-76.936663,-12.653000,,,
2026-09-11T17:37:54.423,0.367586,-0.000000,-0.000000,-0.000000,0.000000,-0.936867,0.322316,-0.000000,0.000013,0.000027,-0.000703,-0.000000,-0.000334,-0.002715,-0.001448,0.001511,0.063351,0.695782,9.688676,-1.028762,1.333810,0,0,,38.991427,-76.936663,-12.653000,,,
2026-09-11T17:37:54.457,0.401000,-0.000000,-0.000000,-0.000000,0.000000,-0.936867,0.322316,-0.000000,-0.000545,-0.001148,-0.000722,-0.000000,-0.000343,0.002045,0.001211,0.000335,0.064135,0.699018,9.693678,-1.028779,1.333789,0,0,,38.991427,-76.936663,-12.653000,,,
2026-09-11T17:37:54.490,0.434423,-0.000000,-0.000000,-0.000000,0.000000,-0.936867,0.322316,-0.000000,-0.001291,-0.002717,-0.000786,-0.000000,-0.000373,0.002935,-0.000181,-0.001234,0.064920,0.702058,9.691912,-1.028744,1.333965,0,0,,38.991427,-76.936663,-12.653000,,,
2026-09-11T17:37:54.524,0.467844,-0.000000,-0.000000,-0.000000,0.000000,-0.936867,0.322316,-0.000000,-0.000165,-0.000347,-0.000837,-0.000000,-0.000398,-0.002220,0.000459,0.001136,0.064332,0.698822,9.690932,-1.028748,1.333930,0,0,,38.991427,-76.936663,-12.653000,,,
2026-09-11T17:37:54.557,0.501274,-0.000000,-0.000000,-0.000000,0.000000,-0.936867,0.322316,-0.000000,-0.000489,-0.001029,-0.000860,-0.000000,-0.000409,0.001121,-0.000282,0.000454,0.064920,0.701470,9.695149,-1.028714,1.334067,0,0,,38.991427,-76.936663,-12.653000,,,
2026-09-11T17:37:54.590,0.534697,-0.000000,-0.000000,-0.000000,0.000000,-0.936867,0.322316,-0.000000,0.000602,0.001268,-0.000856,-0.000000,-0.000407,-0.000458,-0.000603,0.002751,0.068254,0.696468,9.692207,-1.028465,1.333878,0,0,,38.991427,-76.936663,-12.653000,,,
2026-09-11T17:37:54.623,0.568117,-0.000000,-0.000000,-0.000000,0.000000,-0.936867,0.322316,-0.000000,-0.000209,-0.000439,-0.000843,-0.000000,-0.000400,-0.003600,-0.000091,0.001044,0.063253,0.703039,9.699463,-1.028542,1.334117,0,0,,38.991427,-76.936663,-12.653000,,,
2026-09-11T17:37:54.659,0.601537,-0.000000,-0.000000,-0.000000,0.000000,-0.936867,0.322316,-0.000000,-0.000095,-0.000201,-0.000853,-0.000000,-0.000405,-0.000390,-0.001213,0.001283,0.064332,0.698233,9.689951,-1.028548,1.334042,0,0,,38.991427,-76.936663,-12.653000,,,
2026-09-11T17:37:54.691,0.634947,-0.000000,-0.000000,-0.000000,0.000000,-0.936867,0.322316,-0.000000,0.000771,0.001624,-0.000830,-0.000000,-0.000394,-0.002637,-0.001608,0.003107,0.067764,0.696959,9.691128,-1.028332,1.333885,0,0,,38.991427,-76.936663,-12.653000,,,
2026-09-11T17:37:54.726,0.668371,-0.000000,-0.000000,-0.000000,0.000000,-0.936867,0.322316,-0.000000,-0.000197,-0.000415,-0.000809,-0.000000,-0.000384,0.002929,0.001949,0.001069,0.064234,0.703725,9.696718,-1.028347,1.334169,0,0,,38.991427,-76.936663,-12.653000,,,
2026-09-11T17:37:54.757,0.701781,-0.000000,-0.000000,-0.000000,0.000000,-0.936867,0.322316,-0.000000,0.000035,0.000074,-0.000815,-0.000000,-0.000387,-0.001286,-0.001228,0.001557,0.065901,0.704019,9.697208,-1.028254,1.334468,0,0,,38.991427,-76.936663,-12.653000,,,
2026-09-11T17:37:54.791,0.735198,-0.000000,-0.000000,-0.000000,0.000000,-0.936867,0.322316,-0.000000,0.000323,0.000680,-0.000802,-0.000000,-0.000381,-0.002500,-0.001713,0.002164,0.066783,0.697253,9.694658,-1.028105,1.334326,0,0,,38.991427,-76.936663,-12.653000,,,
2026-09-11T17:37:54.824,0.768621,-0.000000,-0.000000,-0.000000,0.000000,-0.936867,0.322316,-0.000000,-0.000062,-0.000131,-0.000793,-0.000000,-0.000377,-0.000290,0.001259,0.001352,0.065312,0.697057,9.692893,-1.028052,1.334172,0,0,,38.991427,-76.936663,-12.653000,,,
2026-09-11T17:37:54.858,0.802031,-0.000000,-0.000000,-0.000000,0.000000,-0.936867,0.322316,-0.000000,0.000377,0.000794,-0.000782,-0.000000,-0.000372,-0.002846,-0.002005,0.002277,0.067568,0.699508,9.695639,-1.027855,1.334179,0,0,,38.991427,-76.936663,-12.653000,,,
2026-09-11T17:37:54.891,0.835441,-0.000000,-0.000000,-0.000000,0.000000,-0.936867,0.322316,-0.000000,0.000376,0.000791,-0.000756,-0.000000,-0.000359,-0.002402,-0.000674,0.002274,0.067274,0.697253,9.688676,-1.027678,1.334040,0,0,,38.991427,-76.936663,-12.653000,,,
2026-09-11T17:37:54.925,0.868863,-0.000000,-0.000000,-0.000000,0.000000,-0.936867,0.322316,-0.000000,0.000032,0.000068,-0.000741,-0.000000,-0.000352,0.000881,-0.000423,0.001551,0.067372,0.702254,9.692207,-1.027497,1.334226,0,0,,38.991427,-76.936663,-12.653000,,,
2026-09-11T17:37:54.958,0.902272,-0.000000,-0.000000,-0.000000,0.000000,-0.936867,0.322316,-0.000000,0.000226,0.000476,-0.000732,-0.000000,-0.000348,-0.003479,-0.001197,0.001959,0.066391,0.698233,9.697208,-1.027382,1.334150,0,0,,38.991427,-76.936663,-12.653000,,,
2026-09-11T17:37:54.991,0.935694,-0.000000,-0.000000,-0.000000,0.000000,-0.936867,0.322316,-0.000000,-0.000460,-0.000969,-0.000741,-0.000000,-0.000352,-0.001575,0.000692,0.000515,0.063645,0.699508,9.688186,-1.027445,1.334157,0,0,,38.991427,-76.936663,-12.653000,,,
2026-09-11T17:37:55.024,0.969103,-0.000000,-0.000000,-0.000000,0.000000,-0.936867,0.322316,-0.000000,-0.001613,-0.003396,-0.000813,-0.000000,-0.000386,0.001498,0.001014,-0.001912,0.066587,0.699214,9.692403,-1.027318,1.334145,0,0,,38.991427,-76.936663,-12.653000,,,
2026-09-11T17:37:55.058,1.002528,-0.000000,-0.000000,-0.000000,0.000000,-0.936867,0.322316,-0.000000,-0.001514,-0.003188,-0.000923,-0.000000,-0.000439,-0.002581,0.000289,-0.001705,0.066097,0.698528,9.693678,-1.027223,1.334089,0,1,1.007439,38.991428,-76.936663,-12.637000,0.002449,0.006116,2.755250
2026-09-11T17:37:55.092,1.035938,-0.000000,-0.000000,-0.000000,0.000000,-0.936867,0.322316,-0.000000,-0.000716,-0.001507,-0.001002,-0.000000,-0.000476,-0.003852,0.000726,-0.000023,0.067764,0.699999,9.688872,-1.027022,1.334128,0,0,,38.991428,-76.936663,-12.637000,,,
2026-09-11T17:37:55.125,1.069362,-0.000000,-0.000000,-0.000000,0.000000,-0.936867,0.322316,-0.000000,-0.000028,-0.000058,-0.001028,-0.000000,-0.000488,-0.001263,-0.001492,0.001425,0.062959,0.699508,9.695247,-1.027134,1.334136,0,0,,38.991428,-76.936663,-12.637000,,,
2026-09-11T17:37:55.158,1.102775,-0.000000,-0.000000,-0.000000,0.000000,-0.936867,0.322316,-0.000000,0.000183,0.000386,-0.001023,-0.000000,-0.000486,-0.001458,0.000467,0.001870,0.066391,0.699999,9.692403,-1.027023,1.334175,0,0,,38.991428,-76.936663,-12.637000,,,
2026-09-11T17:37:55.191,1.136185,-0.000000,-0.000000,-0.000000,0.000000,-0.936867,0.322316,-0.000000,-0.001351,-0.002844,-0.001064,-0.000000,-0.000505,-0.000409,0.001270,-0.001360,0.062664,0.695586,9.689461,-1.027154,1.333928,0,0,,38.991428,-76.936663,-12.637000,,,
2026-09-11T17:37:55.225,1.169594,-0.000000,-0.000000,-0.000000,0.000000,-0.936867,0.322316,-0.000000,-0.001068,-0.002249,-0.001149,-0.000000,-0.000546,-0.001007,-0.000816,-0.000766,0.064626,0.698233,9.692207,-1.027156,1.333855,0,0,,38.991428,-76.936663,-12.637000,,,
2026-09-11T17:37:55.258,1.203003,-0.000000,-0.000000,-0.000000,0.000000,-0.936867,0.322316,-0.000000,-0.000488,-0.001027,-0.001203,-0.000000,-0.000572,-0.001982,0.001414,0.000456,0.064135,0.701274,9.695737,-1.027190,1.333980,0,0,,38.991428,-76.936663,-12.637000,,,
2026-09-11T17:37:55.292,1.236416,-0.000000,-0.000000,-0.000000,0.000000,-0.936867,0.322316,-0.000000,-0.000879,-0.001851,-0.001251,-0.000000,-0.000594,0.000725,0.001768,-0.000368,0.062959,0.700783,9.690932,-1.027300,1.334071,0,0,,38.991428,-76.936663,-12.637000,,,
2026-09-11T17:37:55.325,1.269826,-0.000000,-0.000000,-0.000000,0.000000,-0.936867,0.322316,-0.000000,-0.000240,-0.000505,-0.001291,-0.000000,-0.000613,-0.002135,-0.001150,0.000978,0.065606,0.698528,9.691422,-1.027238,1.334016,0,0,,38.991428,-76.936663,-12.637000,,,
2026-09-11T17:37:55.359,1.303244,-0.000000,-0.000000,-0.000000,0.000000,-0.936867,0.322316,-0.000000,0.000062,0.000131,-0.001297,-0.000000,-0.000616,-0.000143,0.002099,0.001614,0.063645,0.698528,9.687205,-1.027303,1.333961,0,0,,38.991428,-76.936663,-12.637000,,,
2026-09-11T17:37:55.395,1.336656,-0.000000,-0.000000,-0.000000,0.000000,-0.936867,0.322316,-0.000000,0.000250,0.000527,-0.001286,-0.000000,-0.000611,-0.003985,-0.001183,0.002010,0.061684,0.699508,9.688186,-1.027494,1.333970,0,0,,38.991428,-76.936663,-12.637000,,,
2026-09-11T17:37:55.428,1.370067,-0.000000,-0.000000,-0.000000,0.000000,-0.936867,0.322316,-0.000000,-0.000308,-0.000648,-0.001288,-0.000000,-0.000612,-0.001140,-0.000119,0.000835,0.067077,0.699018,9.695149,-1.027334,1.333948,0,0,,38.991428,-76.936663,-12.637000,,,
2026-09-11T17:37:55.461,1.403477,-0.000000,-0.000000,-0.000000,0.000000,-0.936867,0.322316,-0.000000,-0.000717,-0.001509,-0.001324,-0.000000,-0.000629,0.001223,0.001266,-0.000025,0.064822,0.695488,9.690736,-1.027322,1.333696,0,0,,38.991428,-76.936663,-12.637000,,,
2026-09-11T17:37:55.493,1.436888,-0.000000,-0.000000,-0.000000,0.000000,-0.936867,0.322316,-0.000000,-0.001343,-0.002828,-0.001397,-0.000000,-0.000663,0.001456,0.000040,-0.001344,0.064920,0.702548,9.692403,-1.027304,1.333906,0,0,,38.991428,-76.936663,-12.637000,,,
2026-09-11T17:37:55.526,1.470312,-0.000000,-0.000000,-0.000000,0.000000,-0.936867,0.322316,-0.000000,-0.001084,-0.002283,-0.001482,-0.000001,-0.000704,-0.003220,0.000011,-0.000799,0.064822,0.698037,9.690147,-1.027292,1.333820,0,0,,38.991428,-76.936663,-12.637000,,,
2026-09-11T17:37:55.560,1.503733,-0.000000,-0.000000,-0.000000,0.000000,-0.936867,0.322316,-0.000000,-0.001063,-0.002238,-0.001558,-0.000001,-0.000740,0.001816,0.001940,-0.000755,0.063449,0.701764,9.691912,-1.027369,1.333977,0,0,,38.991428,-76.936663,-12.637000,,,
2026-09-11T17:37:55.593,1.537142,-0.000000,-0.000000,-0.000000,0.000000,-0.936867,0.322316,-0.000000,-0.000955,-0.002011,-0.001629,-0.000001,-0.000774,0.002632,0.000495,-0.000528,0.066783,0.697743,9.687892,-1.027230,1.333872,0,0,,38.991428,-76.936663,-12.637000,,,
2026-09-11T17:37:55.626,1.570554,-0.000000,-0.000000,-0.000000,0.000000,-0.936867,0.322316,-0.000000,-0.000316,-0.000664,-0.001673,-0.000001,-0.000795,0.000190,0.000739,0.000819,0.066783,0.697057,9.690441,-1.027092,1.333723,0,0,,38.991428,-76.936663,-12.637000,,,
2026-09-11T17:37:55.660,1.603966,-0.000000,-0.000000,-0.000000,0.000000,-0.936867,0.322316,-0.000000,-0.001597,-0.003363,-0.001741,-0.000001,-0.000827,0.000502,-0.000149,-0.001879,0.064430,0.705000,9.696423,-1.027108,1.334091,0,0,,38.991428,-76.936663,-12.637000,,,
2026-09-11T17:37:55.693,1.637375,-0.000000,-0.000000,-0.000000,0.000000,-0.936867,0.322316,-0.000000,-0.001387,-0.002920,-0.001846,-0.000001,-0.000877,0.001763,-0.000021,-0.001436,0.064135,0.700293,9.692991,-1.027143,1.334150,0,0,,38.991428,-76.936663,-12.637000,,,
2026-09-11T17:37:55.726,1.670783,-0.000000,-0.000000,-0.000000,0.000000,-0.936867,0.322316,-0.000000,-0.001416,-0.002981,-0.001944,-0.000001,-0.000923,0.000089,0.001631,-0.001497,0.066097,0.697743,9.688186,-1.027050,1.334043,0,0,,38.991428,-76.936663,-12.637000,,,
2026-09-11T17:37:55.760,1.704192,-0.000000,-0.000000,-0.000000,0.000000,-0.936867,0.322316,-0.000000,-0.001093,-0.002302,-0.002032,-0.000001,-0.000965,0.002947,-0.000403,-0.000819,0.066881,0.700489,9.692697,-1.026908,1.334115,0,0,,38.991428,-76.936663,-12.637000,,,
2026-09-11T17:37:55.793,1.737604,-0.000000,-0.000000,-0.000000,0.000000,-0.936867,0.322316,-0.000000,-0.000800,-0.001684,-0.002099,-0.000001,-0.000997,-0.000712,-0.000704,-0.000200,0.065116,0.699312,9.691422,-1.026882,1.334110,0,0,,38.991428,-76.936663,-12.637000,,,
2026-09-11T17:37:55.826,1.771014,-0.000000,-0.000000,-0.000000,0.000000,-0.936867,0.322316,-0.000000,-0.000492,-0.001035,-0.002144,-0.000001,-0.001019,0.001659,0.000609,0.000449,0.065116,0.700783,9.691912,-1.026856,1.334200,0,0,,38.991428,-76.936663,-12.637000,,,
2026-09-11T17:37:55.860,1.804427,-0.000000,-0.000000,-0.000000,0.000000,-0.936867,0.322316,-0.000000,-0.000630,-0.001327,-0.002184,-0.000001,-0.001037,-0.001107,-0.000248,0.000156,0.063645,0.698037,9.691422,-1.026925,1.334111,0,0,,38.991428,-76.936663,-12.637000,,,
2026-09-11T17:37:55.893,1.837835,-0.000000,-0.000000,-0.000000,0.000000,-0.936867,0.322316,-0.000000,-0.000531,-0.001118,-0.002225,-0.000001,-0.001057,-0.000459,-0.000681,0.000365,0.068254,0.698233,9.690147,-1.026695,1.334036,0,0,,38.991428,-76.936663,-12.637000,,,
2026-09-11T17:37:55.927,1.871243,-0.000000,-0.000000,-0.000000,0.000000,-0.936867,0.322316,-0.000000,-0.001156,-0.002433,-0.002284,-0.000001,-0.001085,0.001679,0.002028,-0.000949,0.063449,0.703529,9.693678,-1.026779,1.334305,0,0,,38.991428,-76.936663,-12.637000,,,
2026-09-11T17:37:55.960,1.904654,-0.000000,-0.000000,-0.000000,0.000000,-0.936867,0.322316,-0.000000,-0.000124,-0.000261,-0.002329,-0.000001,-0.001106,-0.000747,-0.000954,0.001222,0.063939,0.700783,9.691716,-1.026830,1.334394,0,0,,38.991428,-76.936663,-12.637000,,,
2026-09-11T17:37:55.994,1.938077,-0.000000,-0.000000,-0.000000,0.000000,-0.936867,0.322316,-0.000000,-0.000016,-0.000034,-0.002334,-0.000001,-0.001109,-0.001215,-0.000145,0.001449,0.067274,0.697743,9.693383,-1.026665,1.334284,0,0,,38.991428,-76.936663,-12.637000,,,
2026-09-11T17:37:56.027,1.971497,-0.000000,-0.000000,-0.000000,0.000000,-0.936867,0.322316,-0.000000,-0.000882,-0.001856,-0.002365,-0.000001,-0.001124,0.002540,0.001023,-0.000372,0.067077,0.698037,9.693678,-1.026515,1.334194,0,0,,38.991428,-76.936663,-12.637000,,,
2026-09-11T17:37:56.060,2.004915,-0.000000,-0.000000,-0.000000,0.000000,-0.936867,0.322316,-0.000000,0.000160,0.000337,-0.002391,-0.000001,-0.001136,-0.002971,-0.001608,0.001820,0.065214,0.704216,9.697208,-1.026486,1.334506,0,1,2.004477,38.991428,-76.936663,-12.626000,-0.001873,0.009081,2.755250
2026-09-11T17:37:56.094,2.038325,-0.000000,-0.000000,-0.000000,0.000000,-0.936867,0.322316,-0.000000,-0.000286,-0.000603,-0.002395,-0.000001,-0.001138,-0.002894,-0.000455,0.000881,0.064332,0.697057,9.691716,-1.026515,1.334350,0,0,,38.991428,-76.936663,-12.626000,,,
2026-09-11T17:37:56.127,2.071744,-0.000000,-0.000000,-0.000000,0.000000,-0.936867,0.322316,-0.000000,-0.001266,-0.002665,-0.002450,-0.000001,-0.001164,0.002383,0.000075,-0.001182,0.067077,0.703039,9.692403,-1.026366,1.334584,0,0,,38.991428,-76.936663,-12.626000,,,
2026-09-11T17:37:56.160,2.105155,-0.000000,-0.000000,-0.000000,0.000000,-0.936867,0.322316,-0.000000,-0.000240,-0.000505,-0.002503,-0.000001,-0.001189,-0.003804,-0.001418,0.000979,0.066195,0.702450,9.697404,-1.026276,1.334777,0,0,,38.991428,-76.936663,-12.626000,,,
2026-09-11T17:37:56.194,2.138565,-0.000000,-0.000000,-0.000000,0.000000,-0.936867,0.322316,-0.000000,0.000065,0.000136,-0.002509,-0.000001,-0.001192,-0.000941,-0.000627,0.001620,0.065803,0.699018,9.691422,-1.026212,1.334746,0,0,,38.991428,-76.936663,-12.626000,,,
2026-09-11T17:37:56.227,2.171977,-0.000000,-0.000000,-0.000000,0.000000,-0.936867,0.322316,-0.000000,-0.000615,-0.001296,-0.002528,-0.000002,-0.001201,-0.000185,-0.000036,0.000188,0.065901,0.702450,9.699463,-1.026143,1.334937,0,0,,38.991428,-76.936663,-12.626000,,,
2026-09-11T17:37:56.261,2.205401,-0.000000,-0.000000,-0.000000,0.000000,-0.936867,0.322316,-0.000000,-0.000572,-0.001204,-0.002570,-0.000002,-0.001221,-0.002013,0.000223,0.000279,0.066587,0.701274,9.692893,-1.026029,1.335050,0,0,,38.991428,-76.936663,-12.626000,,,
2026-09-11T17:37:56.294,2.238811,-0.000000,-0.000000,-0.000000,0.000000,-0.936867,0.322316,-0.000000,-0.000518,-0.001091,-0.002609,-0.000002,-0.001239,-0.002297,0.000174,0.000392,0.065410,0.701274,9.690932,-1.025994,1.335162,0,0,,38.991428,-76.936663,-12.626000,,,
2026-09-11T17:37:56.327,2.272221,-0.000000,-0.000000,-0.000000,0.000000,-0.936867,0.322316,-0.000000,-0.000817,-0.001721,-0.002656,-0.000002,-0.001261,-0.001278,-0.001176,-0.000237,0.066391,0.701764,9.695639,-1.025895,1.335304,0,0,,38.991428,-76.936663,-12.626000,,,
2026-09-11T17:37:56.361,2.305641,-0.000000,-0.000000,-0.000000,0.000000,-0.936867,0.322316,-0.000000,-0.000823,-0.001733,-0.002713,-0.000002,-0.001289,-0.001840,-0.000302,-0.000250,0.061978,0.701274,9.699169,-1.026083,1.335413,0,0,,38.991428,-76.936663,-12.626000,,,
2026-09-11T17:37:56.397,2.339052,-0.000000,-0.000000,-0.000000,0.000000,-0.936867,0.322316,-0.000000,0.000325,0.000684,-0.002731,-0.000002,-0.001297,-0.000893,-0.000165,0.002167,0.063939,0.700293,9.695443,-1.026142,1.335457,0,0,,38.991428,-76.936663,-12.626000,,,
2026-09-11T17:37:56.431,2.372466,-0.000000,-0.000000,-0.000000,0.000000,-0.936867,0.322316,-0.000000,0.000135,0.000284,-0.002715,-0.000002,-0.001289,-0.000769,-0.001795,0.001768,0.065410,0.701274,9.694168,-1.026105,1.335565,0,0,,38.991428,-76.936663,-12.626000,,,
2026-09-11T17:37:56.464,2.405877,-0.000000,-0.000000,-0.000000,0.000000,-0.936867,0.322316,-0.000000,-0.000981,-0.002066,-0.002744,-0.000002,-0.001304,-0.001252,0.001231,-0.000583,0.068058,0.699508,9.692893,-1.025897,1.335556,0,0,,38.991428,-76.936663,-12.626000,,,
2026-09-11T17:37:56.495,2.439287,-0.000000,-0.000000,-0.000000,0.000000,-0.936867,0.322316,-0.000000,-0.000304,-0.000639,-0.002790,-0.000002,-0.001325,-0.000415,-0.001609,0.000844,0.064430,0.700979,9.696227,-1.025926,1.335643,0,0,,38.991428,-76.936663,-12.626000,,,
2026-09-11T17:37:56.528,2.472698,-0.000000,-0.000000,-0.000000,0.000000,-0.936867,0.322316,-0.000000,-0.000159,-0.000334,-0.002806,-0.000002,-0.001333,-0.001788,-0.000550,0.001150,0.065116,0.697253,9.697894,-1.025910,1.335487,0,0,,38.991428,-76.936663,-12.626000,,,
2026-09-11T17:37:56.561,2.506117,-0.000000,-0.000000,-0.000000,0.000000,-0.936867,0.322316,-0.000000,-0.001216,-0.002560,-0.002854,-0.000002,-0.001356,-0.000340,0.001402,-0.001076,0.064626,0.698528,9.698483,-1.025927,1.335416,0,0,,38.991428,-76.936663,-12.626000,,,
2026-09-11T17:37:56.596,2.539526,-0.000000,-0.000000,-0.000000,0.000000,-0.936867,0.322316,-0.000000,-0.000856,-0.001802,-0.002927,-0.000002,-0.001390,-0.001701,-0.000961,-0.000319,0.066391,0.701470,9.692697,-1.025829,1.335537,0,0,,38.991428,-76.936663,-12.626000,,,
2026-09-11T17:37:56.628,2.572942,-0.000000,-0.000000,-0.000000,0.000000,-0.936867,0.322316,-0.000000,-0.000406,-0.000854,-0.002971,-0.000002,-0.001411,-0.002088,-0.000287,0.000629,0.063939,0.702548,9.696914,-1.025890,1.335726,0,0,,38.991428,-76.936663,-12.626000,,,
2026-09-11T17:37:56.662,2.606351,-0.000000,-0.000000,-0.000000,0.000000,-0.936867,0.322316,-0.000000,-0.000789,-0.001662,-0.003013,-0.000002,-0.001431,0.001197,0.001355,-0.000178,0.064430,0.701568,9.692697,-1.025920,1.335849,0,0,,38.991428,-76.936663,-12.626000,,,
2026-09-11T17:37:56.696,2.639759,-0.000000,-0.000000,-0.000000,0.000000,-0.936867,0.322316,-0.000000,0.000204,0.000430,-0.003034,-0.000002,-0.001441,-0.003145,0.000044,0.001914,0.066979,0.695488,9.683381,-1.025784,1.335577,0,0,,38.991428,-76.936663,-12.626000,,,
2026-09-11T17:37:56.729,2.673170,-0.000000,-0.000000,-0.000000,0.000000,-0.936867,0.322316,-0.000000,0.000395,0.000831,-0.003013,-0.000002,-0.001431,-0.002159,-0.000715,0.002314,0.066195,0.704510,9.696423,-1.025700,1.335892,0,0,,38.991428,-76.936663,-12.626000,,,
2026-09-11T17:37:56.762,2.706592,-0.000000,-0.000000,-0.000000,0.000000,-0.936867,0.322316,-0.000000,-0.000721,-0.001518,-0.003024,-0.000002,-0.001437,0.001844,0.000856,-0.000035,0.066587,0.697057,9.690637,-1.025592,1.335721,0,0,,38.991428,-76.936663,-12.626000,,,
2026-09-11T17:37:56.796,2.740000,-0.000000,-0.000000,-0.000000,0.000000,-0.936867,0.322316,-0.000000,-0.000982,-0.002067,-0.003084,-0.000002,-0.001465,-0.001491,-0.000560,-0.000583,0.064822,0.695782,9.691912,-1.025599,1.335469,0,0,,38.991428,-76.936663,-12.626000,,,
2026-09-11T17:37:56.829,2.773439,-0.000000,-0.000000,-0.000000,0.000000,-0.936867,0.322316,-0.000000,-0.000744,-0.001567,-0.003145,-0.000002,-0.001494,-0.000998,0.001056,-0.000083,0.067372,0.700783,9.692697,-1.025441,1.335545,0,0,,38.991428,-76.936663,-12.626000,,,
2026-09-11T17:37:56.862,2.806849,-0.000000,-0.000000,-0.000000,0.000000,-0.936867,0.322316,-0.000000,-0.001547,-0.003257,-0.003226,-0.000002,-0.001532,0.002557,0.000963,-0.001773,0.069333,0.702254,9.692108,-1.025158,1.335715,0,0,,38.991428,-76.936663,-12.626000,,,
2026-09-11T17:37:56.896,2.840260,-0.000000,-0.000000,-0.000000,0.000000,-0.936867,0.322316,-0.000000,-0.000307,-0.000647,-0.003291,-0.000003,-0.001563,-0.001044,0.000941,0.000836,0.069333,0.700979,9.694168,-1.024878,1.335800,0,0,,38.991428,-76.936663,-12.626000,,,
2026-09-11T17:37:56.929,2.873671,-0.000000,-0.000000,-0.000000,0.000000,-0.936867,0.322316,-0.000000,-0.000420,-0.000885,-0.003316,-0.000003,-0.001575,0.000278,0.000455,0.000598,0.064626,0.696762,9.693481,-1.024906,1.335611,0,0,,38.991428,-76.936663,-12.626000,,,
2026-09-11T17:37:56.963,2.907081,-0.000000,-0.000000,-0.000000,0.000000,-0.936867,0.322316,-0.000000,-0.001067,-0.002247,-0.003369,-0.000003,-0.001600,0.002069,-0.000505,-0.000763,0.063449,0.699999,9.695443,-1.025010,1.335634,0,0,,38.991428,-76.936663,-12.626000,,,
2026-09-11T17:37:56.997,2.940509,-0.000000,-0.000000,-0.000000,0.000000,-0.936867,0.322316,-0.000000,-0.001572,-0.003310,-0.003462,-0.000003,-0.001644,-0.001520,0.001365,-0.001826,0.057957,0.698822,9.688970,-1.025467,1.335580,0,0,,38.991428,-76.936663,-12.626000,,,
2026-09-11T17:37:57.029,2.973919,-0.000000,-0.000000,-0.000000,0.000000,-0.936867,0.322316,-0.000000,-0.001763,-0.003712,-0.003579,-0.000003,-0.001700,0.000734,0.001710,-0.002228,0.063743,0.694213,9.626502,-1.025546,1.335228,0,0,,38.991428,-76.936663,-12.626000,,,
2026-09-11T17:37:57.063,3.007353,-0.000000,-0.000000,-0.000000,0.000000,-0.936867,0.322316,-0.000000,-0.000842,-0.001772,-0.003671,-0.000003,-0.001744,0.002581,-0.000279,-0.000288,0.080611,0.679601,9.623560,-1.024532,1.333931,0,1,3.004291,38.991428,-76.936663,-12.613000,-0.003601,0.009822,3.334285
2026-09-11T17:37:57.096,3.040765,-0.000000,-0.000000,-0.000000,0.000000,-0.936867,0.322316,-0.000000,-0.002005,-0.004220,-0.003771,-0.000003,-0.001791,0.002520,0.000680,-0.002737,0.060507,0.756289,9.660041,-1.024830,1.337623,0,0,,38.991428,-76.936663,-12.613000,,,
2026-09-11T17:37:57.130,3.074183,-0.000000,-0.000000,-0.000000,0.000000,-0.936867,0.322316,-0.000000,-0.000867,-0.001826,-0.003872,-0.000004,-0.001839,0.003653,0.001746,-0.000342,0.057075,0.678914,9.683969,-1.025346,1.336256,0,0,,38.991428,-76.936663,-12.613000,,,
2026-09-11T17:37:57.163,3.107594,-0.000000,-0.000000,-0.000000,0.000000,-0.936867,0.322316,-0.000000,-0.001035,-0.002180,-0.003939,-0.000004,-0.001871,0.005274,0.000139,-0.000696,0.088064,0.658615,9.689265,-1.023853,1.333588,0,0,,38.991428,-76.936663,-12.613000,,,
2026-09-11T17:37:57.196,3.141004,-0.000000,-0.000000,-0.000000,0.000000,-0.936867,0.322316,-0.000000,-0.001027,-0.002163,-0.004011,-0.000004,-0.001905,0.007317,0.000435,-0.000679,0.058153,0.725594,9.682792,-1.024311,1.335293,0,0,,38.991428,-76.936663,-12.613000,,,
2026-09-11T17:37:57.230,3.174414,-0.000000,-0.000000,-0.000000,0.000000,-0.936867,0.322316,-0.000000,-0.001676,-0.003529,-0.004106,-0.000004,-0.001950,0.008076,0.000871,-0.002046,0.018142,0.678130,9.709368,-1.027352,1.333901,0,0,,38.991428,-76.936663,-12.613000,,,
2026-09-11T17:37:57.263,3.207825,-0.000000,-0.000000,-0.000000,0.000000,-0.881935,0.303418,-0.000000,-0.000616,-0.001296,-0.004187,-0.000004,-0.001989,0.004534,-0.000803,0.000188,0.070510,0.736479,9.692697,-1.026971,1.336309,0,0,,38.991428,-76.936663,-12.613000,,,
2026-09-11T17:37:57.297,3.241234,-0.000000,-0.000000,-0.000000,0.000000,-0.798164,0.274598,-0.000000,-0.000578,-0.001216,-0.004229,-0.000004,-0.002009,0.002099,0.000396,0.000267,0.044620,0.670186,9.704857,-1.028270,1.334391,0,0,,38.991428,-76.936663,-12.613000,,,
2026-09-11T17:37:57.330,3.274644,-0.000000,-0.000000,-0.000000,0.000000,-0.662208,0.227824,-0.000000,-0.000736,-0.001549,-0.004275,-0.000004,-0.002031,-0.002256,0.001390,-0.000065,0.081395,0.768253,9.705544,-1.027175,1.338853,0,0,,38.991428,-76.936663,-12.613000,,,
2026-09-11T17:37:57.363,3.308054,-0.000000,-0.000000,-0.000000,0.000000,-0.662208,0.227824,-0.000000,0.000334,0.000703,-0.004289,-0.000004,-0.002037,-0.004110,-0.001428,0.002186,0.095321,0.707746,9.683675,-1.025192,1.339343,0,0,,38.991428,-76.936663,-12.613000,,,
2026-09-11T17:37:57.397,3.341466,-0.000000,-0.000000,-0.000000,0.000000,-0.662208,0.227824,-0.000000,-0.000807,-0.001699,-0.004306,-0.000004,-0.002045,0.002055,-0.000331,-0.000215,0.067568,0.700489,9.693678,-1.025026,1.339356,0,0,,38.991428,-76.936663,-12.613000,,,
2026-09-11T17:37:57.430,3.374876,-0.000000,-0.000000,-0.000000,0.000000,-0.662208,0.227824,-0.000000,-0.000899,-0.001894,-0.004366,-0.000005,-0.002074,0.003421,-0.000729,-0.000410,0.049818,0.720593,9.690834,-1.026010,1.340673,0,0,,38.991428,-76.936663,-12.613000,,,
2026-09-11T17:37:57.463,3.408288,-0.000000,-0.000000,-0.000000,0.000000,-0.662208,0.227824,-0.000000,-0.001087,-0.002288,-0.004436,-0.000005,-0.002107,0.003481,-0.000815,-0.000805,0.066489,0.683524,9.694168,-1.025905,1.339571,0,0,,38.991428,-76.936663,-12.613000,,,
2026-09-11T17:37:57.497,3.441700,-0.000000,-0.000000,-0.000000,0.000000,-0.662208,0.227824,-0.000000,-0.001027,-0.002162,-0.004510,-0.000005,-0.002142,0.007211,0.000102,-0.000679,0.050995,0.721083,9.684361,-1.026803,1.340917,0,0,,38.991428,-76.936663,-12.613000,,,
2026-09-11T17:37:57.530,3.475112,-0.000000,-0.000000,-0.000000,0.000000,-0.662208,0.227824,-0.000000,-0.001280,-0.002694,-0.004591,-0.000005,-0.002181,0.005815,-0.001550,-0.001210,0.063645,0.729517,9.692010,-1.026873,1.342796,0,0,,38.991428,-76.936663,-12.613000,,,
2026-09-11T17:37:57.564,3.508531,-0.000000,-0.000000,-0.000000,0.000000,-0.618263,0.212705,-0.000000,-0.001338,-0.002816,-0.004683,-0.000005,-0.002225,0.005334,-0.000365,-0.001333,0.071490,0.727163,9.702405,-1.026435,1.344501,0,0,,38.991428,-76.936663,-12.613000,,,
2026-09-11T17:37:57.597,3.541942,-0.000000,-0.000000,-0.000000,0.000000,-0.618263,0.212705,-0.000000,-0.000631,-0.001329,-0.004752,-0.000005,-0.002257,0.008496,-0.000986,0.000155,0.097870,0.710786,9.692207,-1.024295,1.345125,0,0,,38.991428,-76.936663,-12.613000,,,
2026-09-11T17:37:57.630,3.575327,-0.000000,-0.000000,-0.000000,0.000000,-0.618263,0.212705,-0.000000,-0.000788,-0.001659,-0.004802,-0.000005,-0.002281,0.005495,-0.000831,-0.000176,0.074531,0.714709,9.679850,-1.023689,1.345996,0,0,,38.991428,-76.936663,-12.613000,,,
2026-09-11T17:37:57.663,3.608736,-0.000000,-0.000000,-0.000000,0.000000,-0.618263,0.212705,-0.000000,-0.001265,-0.002663,-0.004875,-0.000006,-0.002315,-0.000926,0.000687,-0.001179,0.054623,0.738343,9.687303,-1.024377,1.348390,0,0,,38.991428,-76.936663,-12.613000,,,
2026-09-11T17:37:57.698,3.642146,-0.000000,-0.000000,-0.000000,0.000000,-0.618263,0.212705,-0.000000,0.000020,0.000041,-0.004918,-0.000006,-0.002336,-0.007000,-0.001800,0.001525,0.027459,0.723339,9.679262,-1.026814,1.349785,0,0,,38.991428,-76.936663,-12.613000,,,
2026-09-11T17:37:57.731,3.675552,-0.000000,-0.000000,-0.000000,0.000000,-0.618263,0.212705,-0.000000,-0.000252,-0.000530,-0.004927,-0.000006,-0.002340,-0.008339,-0.001244,0.000953,0.050210,0.719416,9.681812,-1.027753,1.350910,0,0,,38.991428,-76.936663,-12.613000,,,
2026-09-11T17:37:57.764,3.708962,-0.000000,-0.000000,-0.000000,0.000000,-0.618263,0.212705,-0.000000,-0.000619,-0.001303,-0.004957,-0.000006,-0.002355,-0.005838,0.001379,0.000180,0.064626,0.721671,9.707701,-1.027749,1.352169,0,0,,38.991428,-76.936663,-12.613000,,,
2026-09-11T17:37:57.797,3.742372,-0.000000,-0.000000,-0.000000,0.000000,-0.618263,0.212705,-0.000000,-0.000406,-0.000856,-0.004993,-0.000006,-0.002372,-0.003768,-0.001328,0.000628,0.092084,0.722260,9.704661,-1.025968,1.353452,0,0,,38.991428,-76.936663,-12.613000,,,
2026-09-11T17:37:57.831,3.775780,-0.000000,-0.000000,-0.000000,0.000000,-0.618263,0.212705,-0.000000,-0.000112,-0.000236,-0.005011,-0.000006,-0.002380,0.000657,-0.000557,0.001248,0.096105,0.707746,9.698875,-1.023948,1.353779,0,0,,38.991428,-76.936663,-12.613000,,,
2026-09-11T17:37:57.864,3.809190,-0.000000,-0.000000,-0.000000,0.000000,-0.618263,0.212705,-0.000000,-0.001034,-0.002177,-0.005052,-0.000006,-0.002400,0.005282,0.001198,-0.000694,0.071589,0.707158,9.694364,-1.023536,1.354065,0,0,,38.991428,-76.936663,-12.613000,,,
2026-09-11T17:37:57.897,3.842602,-0.000000,-0.000000,-0.000000,0.000000,-0.618263,0.212705,-0.000000,0.000244,0.000515,-0.005080,-0.000006,-0.002413,0.004985,-0.000650,0.001998,0.053544,0.716082,9.701817,-1.024295,1.354927,0,0,,38.991428,-76.936663,-12.613000,,,
2026-09-11T17:37:57.930,3.876012,-0.000000,-0.000000,-0.000000,0.000000,-0.618263,0.212705,-0.000000,-0.001773,-0.003733,-0.005133,-0.000006,-0.002438,0.003576,-0.000211,-0.002249,0.051681,0.709609,9.689265,-1.025167,1.355359,0,0,,38.991428,-76.936663,-12.613000,,,
2026-09-11T17:37:57.965,3.909423,-0.000000,-0.000000,-0.000000,0.000000,-0.618263,0.212705,-0.000000,-0.001336,-0.002813,-0.005243,-0.000007,-0.002490,0.003468,-0.000636,-0.001330,0.042169,0.747855,9.694364,-1.026644,1.358267,0,0,,38.991428,-76.936663,-12.613000,,,
2026-09-11T17:37:57.998,3.942845,-0.000000,-0.000000,-0.000000,0.000000,-0.618263,0.212705,-0.000000,-0.000670,-0.001411,-0.005313,-0.000007,-0.002524,-0.002897,0.000166,0.000072,0.079434,0.708138,9.691324,-1.025694,1.358567,0,0,,38.991428,-76.936663,-12.613000,,,
2026-09-11T17:37:58.031,3.976256,-0.000000,-0.000000,-0.000000,0.000000,-0.618263,0.212705,-0.000000,-0.000039,-0.000081,-0.005338,-0.000007,-0.002536,-0.007520,-0.000991,0.001402,0.082278,0.744325,9.677300,-1.024571,1.361210,0,0,,38.991428,-76.936663,-12.613000,,,
2026-09-11T17:37:58.065,4.009677,-0.000000,-0.000000,-0.000000,0.000000,-0.618263,0.212705,-0.000000,0.000391,0.000823,-0.005326,-0.000007,-0.002530,-0.008050,-0.001179,0.002306,0.069333,0.707942,9.693383,-1.024298,1.361464,0,1,4.009553,38.991427,-76.936663,-12.624000,-0.001729,-0.022795,3.333694
2026-09-11T17:37:58.098,4.043086,-0.000000,-0.000000,-0.000000,0.000000,-0.618263,0.212705,-0.000000,-0.000370,-0.000779,-0.005325,-0.000007,-0.002529,-0.005860,0.000516,0.000704,0.086397,0.707648,9.664748,-1.022924,1.361697,0,0,,38.991427,-76.936663,-12.624000,,,
2026-09-11T17:37:58.131,4.076504,-0.000000,-0.000000,-0.000000,0.000000,-0.618263,0.212705,-0.000000,-0.000687,-0.001445,-0.005362,-0.000007,-0.002547,-0.000390,0.000227,0.000038,0.047758,0.672638,9.697600,-1.024064,1.359656,0,0,,38.991427,-76.936663,-12.624000,,,
2026-09-11T17:37:58.164,4.109916,-0.000000,-0.000000,-0.000000,0.000000,-0.618263,0.212705,-0.000000,-0.000959,-0.002018,-0.005420,-0.000007,-0.002575,0.008016,0.000996,-0.000535,0.053642,0.726771,9.706328,-1.024812,1.361149,0,0,,38.991427,-76.936663,-12.624000,,,
2026-09-11T17:37:58.198,4.143439,-0.000000,-0.000000,-0.000000,0.000000,-0.618263,0.212705,-0.000000,-0.001084,-0.002283,-0.005492,-0.000007,-0.002609,0.003405,0.001479,-0.000799,0.079630,0.713434,9.686028,-1.023866,1.361762,0,0,,38.991427,-76.936663,-12.624000,,,
2026-09-11T17:37:58.231,4.176849,-0.000000,-0.000000,-0.000000,0.000000,-0.618263,0.212705,-0.000000,0.000408,0.000860,-0.005516,-0.000007,-0.002620,0.003983,0.000746,0.002343,0.046091,0.745796,9.701131,-1.025104,1.364465,0,0,,38.991427,-76.936663,-12.624000,,,
2026-09-11T17:37:58.266,4.210259,-0.000000,-0.000000,-0.000000,0.000000,-0.618263,0.212705,-0.000000,-0.000787,-0.001657,-0.005529,-0.000007,-0.002626,0.000542,-0.000619,-0.000173,0.094928,0.724810,9.674653,-1.023169,1.365778,0,0,,38.991427,-76.936663,-12.624000,,,
2026-09-11T17:37:58.299,4.243668,-0.000000,-0.000000,-0.000000,0.000000,-0.684868,0.235620,-0.000000,-0.000541,-0.001138,-0.005576,-0.000007,-0.002649,0.002841,0.000914,0.000346,0.053348,0.734616,9.691814,-1.023946,1.367711,0,0,,38.991427,-76.936663,-12.624000,,,
2026-09-11T17:37:58.333,4.277077,-0.000000,-0.000000,-0.000000,0.000000,-0.684868,0.235620,-0.000000,-0.002520,-0.005304,-0.005684,-0.000008,-0.002700,0.003360,0.000454,-0.003821,0.033539,0.702450,9.703680,-1.025995,1.367537,0,0,,38.991427,-76.936663,-12.624000,,,
2026-09-11T17:37:58.366,4.310487,-0.000000,-0.000000,-0.000000,0.000000,-0.684868,0.235620,-0.000000,-0.001115,-0.002347,-0.005811,-0.000008,-0.002760,0.004639,-0.000311,-0.000863,0.079728,0.730694,9.678085,-1.025033,1.369197,0,0,,38.991427,-76.936663,-12.624000,,,
2026-09-11T17:37:58.400,4.343907,-0.000000,-0.000000,-0.000000,0.000000,-0.684868,0.235620,-0.000000,-0.001821,-0.003834,-0.005915,-0.000008,-0.002809,0.006273,0.000338,-0.002351,0.043640,0.707158,9.700640,-1.026417,1.369312,0,0,,38.991427,-76.936663,-12.624000,,,
2026-09-11T17:37:58.433,4.377329,-0.000000,-0.000000,-0.000000,0.000000,-0.684868,0.235620,-0.000000,-0.000984,-0.002072,-0.006013,-0.000009,-0.002856,0.005551,0.000937,-0.000589,0.073158,0.752366,9.690147,-1.025876,1.372359,0,0,,38.991427,-76.936663,-12.624000,,,
2026-09-11T17:37:58.466,4.410740,-0.000000,-0.000000,-0.000000,0.000000,-0.684868,0.235620,-0.000000,0.000666,0.001402,-0.006025,-0.000009,-0.002862,-0.005452,-0.000414,0.002885,0.061684,0.731772,9.684950,-1.026083,1.374036,0,0,,38.991427,-76.936663,-12.624000,,,
2026-09-11T17:37:58.499,4.444151,-0.000000,-0.000000,-0.000000,0.000000,-0.684868,0.235620,-0.000000,0.000274,0.000577,-0.005992,-0.000009,-0.002846,-0.004064,0.001442,0.002061,0.049131,0.754818,9.702798,-1.027099,1.377188,0,0,,38.991427,-76.936663,-12.624000,,,
2026-09-11T17:37:58.533,4.477559,-0.000000,-0.000000,-0.000000,0.000000,-0.684868,0.235620,-0.000000,0.000521,0.001096,-0.005964,-0.000008,-0.002833,-0.003816,0.000164,0.002580,0.093850,0.708334,9.682400,-1.025212,1.377291,0,0,,38.991427,-76.936663,-12.624000,,,
2026-09-11T17:37:58.567,4.510979,-0.000000,-0.000000,-0.000000,0.000000,-0.727440,0.250266,-0.000000,-0.000484,-0.001019,-0.005962,-0.000008,-0.002832,-0.012313,0.000662,0.000464,0.062272,0.764428,9.703484,-1.025389,1.381032,0,0,,38.991427,-76.936663,-12.624000,,,
2026-09-11T17:37:58.600,4.544388,-0.000000,-0.000000,-0.000000,0.000000,-1.065269,0.366492,-0.000000,0.000575,0.001210,-0.005959,-0.000008,-0.002831,-0.008761,0.001545,0.002694,0.078159,0.736087,9.694364,-1.024535,1.382892,0,0,,38.991427,-76.936663,-12.624000,,,
2026-09-11T17:37:58.634,4.577800,-0.000000,-0.000000,-0.000000,0.000000,-1.303535,0.448464,-0.000000,0.000447,0.000941,-0.005923,-0.000008,-0.002813,-0.018036,0.000346,0.002424,0.100028,0.738735,9.698189,-1.022277,1.384903,0,0,,38.991427,-76.936663,-12.624000,,,
2026-09-11T17:37:58.667,4.611208,-0.000000,-0.000000,-0.000000,0.000000,-1.459404,0.502088,-0.000000,0.001281,0.002698,-0.005862,-0.000008,-0.002785,-0.027982,0.001247,0.004181,0.114542,0.755799,9.715743,-1.019105,1.387999,0,0,,38.991427,-76.936663,-12.624000,,,
2026-09-11T17:37:58.700,4.644618,-0.000000,-0.000000,-0.000000,0.000000,-1.563774,0.537996,-0.000000,0.000743,0.001564,-0.005791,-0.000008,-0.002751,-0.039895,-0.001333,0.003047,0.121308,0.688623,9.663963,-1.015530,1.386704,0,0,,38.991427,-76.936663,-12.624000,,,
2026-09-11T17:37:58.734,4.678030,-0.000000,-0.000000,-0.000000,0.000000,-1.563774,0.537996,-0.000000,-0.000537,-0.001130,-0.005784,-0.000008,-0.002747,-0.046216,-0.001484,0.000354,0.080611,0.667146,9.697796,-1.014627,1.384030,0,0,,38.991427,-76.936663,-12.624000,,,
2026-09-11T17:37:58.768,4.711438,-0.000000,-0.000000,-0.000000,0.000000,-1.392799,0.479174,-0.000000,-0.001435,-0.003020,-0.005853,-0.000008,-0.002780,-0.054766,0.001595,-0.001537,-0.015593,0.685583,9.719371,-1.019957,1.382582,0,0,,38.991427,-76.936663,-12.624000,,,
2026-09-11T17:37:58.800,4.744848,-0.000000,-0.000000,-0.000000,0.000000,-1.277443,0.439487,-0.000000,-0.000403,-0.000848,-0.005918,-0.000008,-0.002811,-0.055712,-0.001805,0.000636,0.006080,0.673030,9.666415,-1.023827,1.380335,0,0,,38.991427,-76.936663,-12.624000,,,
2026-09-11T17:37:58.834,4.778259,-0.000000,-0.000000,-0.000000,0.000000,-1.437431,0.494529,-0.000000,0.002630,0.005537,-0.005840,-0.000008,-0.002774,-0.053570,-0.001271,0.007020,0.040992,0.699214,9.675633,-1.025395,1.379812,0,0,,38.991427,-76.936663,-12.624000,,,
2026-09-11T17:37:58.867,4.811669,-0.000000,-0.000000,-0.000000,0.000000,-2.030006,0.698397,-0.000000,0.003380,0.007115,-0.005628,-0.000008,-0.002673,-0.037295,0.001551,0.008599,0.133763,0.587909,9.654353,-1.020945,1.372076,0,0,,38.991427,-76.936663,-12.624000,,,
2026-09-11T17:37:58.900,4.845079,-0.000000,-0.000000,-0.000000,0.000000,-2.354790,0.810134,-0.000000,0.005277,0.011110,-0.005324,-0.000007,-0.002529,-0.030735,-0.002649,0.012593,0.152395,0.642336,9.700150,-1.015339,1.367956,0,0,,38.991427,-76.936663,-12.624000,,,
2026-09-11T17:37:58.934,4.878490,-0.000000,-0.000000,-0.000000,0.000000,-2.573143,0.885256,-0.000000,0.003796,0.007991,-0.005005,-0.000006,-0.002377,-0.023374,-0.001486,0.009475,0.109344,0.461599,9.709662,-1.012579,1.352159,0,0,,38.991427,-76.936663,-12.624000,,,
2026-09-11T17:37:58.967,4.911899,-0.000000,-0.000000,-0.000000,0.000000,-2.706352,0.931084,-0.000000,0.000825,0.001737,-0.004842,-0.000006,-0.002300,-0.039454,0.000504,0.003220,0.120818,0.579769,10.112323,-1.009109,1.344202,0,0,,38.991427,-76.936663,-12.624000,,,
2026-09-11T17:37:59.001,4.945321,-0.000000,-0.000000,-0.000000,0.000000,-2.768837,0.952581,-0.000000,0.000154,0.000324,-0.004808,-0.000005,-0.002284,-0.046613,0.000667,0.001808,0.091300,0.795908,9.816163,-1.007585,1.350352,0,0,,38.991427,-76.936663,-12.624000,,,
2026-09-11T17:37:59.034,4.978732,-0.000000,-0.000000,-0.000000,0.000000,-4.621406,1.589933,-0.000000,0.007427,0.015636,-0.004541,-0.000005,-0.002157,-0.070941,-0.005440,0.017119,-0.283314,0.856317,9.571389,-1.030311,1.360349,0,0,,38.991427,-76.936663,-12.624000,,,
2026-09-11T17:37:59.068,5.012153,-0.000000,-0.000000,-0.000000,0.000000,-8.706261,2.995273,-0.000000,0.016407,0.034541,-0.003703,-0.000003,-0.001759,-0.174429,0.007432,0.036025,-0.447674,0.543681,9.915406,-1.063428,1.349957,0,1,5.004795,38.991427,-76.936663,-12.636000,-0.023767,-0.053559,3.333694
2026-09-11T17:37:59.101,5.045560,-0.000000,-0.000000,-0.000000,0.000000,-13.459907,4.630702,-0.000000,0.010376,0.021844,-0.002761,-0.000002,-0.001311,-0.239599,0.009855,0.023328,0.078649,0.449831,9.642487,-1.062122,1.333599,0,0,,38.991427,-76.936663,-12.636000,,,
2026-09-11T17:37:59.135,5.078976,-0.000000,-0.000000,-0.000000,0.000000,-18.999763,6.536616,-0.000000,0.020947,0.044099,-0.001659,-0.000001,-0.000788,-0.233620,0.005082,0.045582,0.356374,0.088260,9.562563,-1.042862,1.293968,0,0,,38.991427,-76.936663,-12.636000,,,
2026-09-11T17:37:59.168,5.112388,-0.000000,-0.000000,-0.000000,0.000000,-28.176094,9.693610,-0.000000,0.017493,0.036827,-0.000307,-0.000000,-0.000146,-0.207252,0.006969,0.038310,0.208882,-0.078944,9.999645,-1.033359,1.243941,0,0,,38.991427,-76.936663,-12.636000,,,
2026-09-11T17:37:59.201,5.145796,-0.000000,-0.000000,-0.000000,0.000000,-29.973045,10.311827,-0.000000,0.014306,0.030117,0.000811,-0.000000,0.000385,-0.203543,0.004539,0.031601,0.074727,0.542602,9.684557,-1.032640,1.234773,0,0,,38.991427,-76.936663,-12.636000,,,
2026-09-11T17:37:59.235,5.179204,-0.000000,-0.000000,-0.000000,0.000000,-33.993355,11.694961,-0.000000,0.011925,0.025105,0.001734,-0.000001,0.000823,-0.202903,0.008565,0.026589,0.000785,0.187699,9.624639,-1.036711,1.202698,0,0,,38.991427,-76.936663,-12.636000,,,
2026-09-11T17:37:59.268,5.212612,-0.000000,-0.000000,-0.000000,0.000000,-37.450615,12.884386,-0.000000,0.011571,0.024360,0.002560,-0.000002,0.001216,-0.167031,0.011869,0.025843,-0.059232,0.153768,9.739082,-1.044619,1.168778,0,0,,38.991427,-76.936663,-12.636000,,,
2026-09-11T17:37:59.301,5.246022,-0.000000,-0.000000,-0.000000,0.000000,-40.367485,13.887896,-0.000000,0.007496,0.015782,0.003230,-0.000002,0.001534,-0.101810,0.009143,0.017265,0.103656,-0.054721,9.501173,-1.041904,1.121718,0,0,,38.991427,-76.936663,-12.636000,,,
2026-09-11T17:37:59.336,5.279431,-0.000000,-0.000000,-0.000000,0.000000,-42.588096,14.651868,-0.000000,0.001250,0.002631,0.003538,-0.000003,0.001681,-0.010048,0.002755,0.004115,0.201527,0.111894,9.449002,-1.032888,1.085983,0,0,,38.991427,-76.936663,-12.636000,,,
2026-09-11T17:37:59.369,5.312841,-0.000000,-0.000000,-0.000000,0.000000,-46.536308,16.010198,-0.000000,0.011035,0.023232,0.003970,-0.000004,0.001886,0.046678,-0.011350,0.024716,0.131703,0.113169,10.234710,-1.028488,1.050728,0,0,,38.991427,-76.936663,-12.636000,,,
2026-09-11T17:37:59.402,5.346251,-0.000000,-0.000000,-0.000000,0.000000,-54.639412,18.797963,-0.000000,0.004054,0.008534,0.004501,-0.000005,0.002138,0.083860,-0.004676,0.010018,0.305869,-0.102970,9.676810,-1.024045,1.001853,0,0,,38.991427,-76.936663,-12.636000,,,
2026-09-11T17:37:59.435,5.379662,-0.000000,-0.000000,-0.000000,0.000000,-54.850899,18.870722,-0.000000,0.007345,0.015462,0.004902,-0.000006,0.002328,0.081359,-0.004987,0.016946,-0.051387,0.029616,9.828127,-1.048582,0.962115,0,0,,38.991427,-76.936663,-12.636000,,,
2026-09-11T17:37:59.469,5.413071,-0.000000,-0.000000,-0.000000,0.000000,-57.244545,19.694224,-0.000000,0.004714,0.009923,0.005326,-0.000007,0.002530,0.048068,-0.003304,0.011407,0.097184,0.102381,9.839601,-1.053127,0.927538,0,0,,38.991427,-76.936663,-12.636000,,,
2026-09-11T17:37:59.502,5.446482,-0.000000,-0.000000,-0.000000,0.000000,-58.762718,20.216531,-0.000000,0.002063,0.004343,0.005564,-0.000007,0.002643,0.019801,0.001103,0.005827,0.009414,0.265858,9.606300,-1.057478,0.903938,0,0,,38.991427,-76.936663,-12.636000,,,
2026-09-11T17:37:59.536,5.479894,-0.000000,-0.000000,-0.000000,0.000000,-59.088188,20.328505,-0.000000,0.003063,0.006449,0.005744,-0.000008,0.002729,-0.009582,-0.000146,0.007933,0.183973,-0.075315,9.687597,-1.049424,0.858487,0,0,,38.991427,-76.936663,-12.636000,,,
2026-09-11T17:37:59.569,5.513311,-0.000000,-0.000000,-0.000000,0.000000,-59.088188,20.328505,-0.000000,0.001750,0.003684,0.005914,-0.000008,0.002809,-0.006196,-0.002289,0.005168,0.185051,0.177697,9.764874,-1.041958,0.829935,0,0,,38.991427,-76.936663,-12.636000,,,
2026-09-11T17:37:59.602,5.546721,-0.000000,-0.000000,-0.000000,0.000000,-59.088188,20.328505,-0.000000,0.005431,0.011433,0.006166,-0.000009,0.002929,-0.012385,-0.000475,0.012916,0.073648,0.282235,9.663767,-1.042344,0.808482,0,0,,38.991427,-76.936663,-12.636000,,,
2026-09-11T17:37:59.636,5.580132,-0.000000,-0.000000,-0.000000,0.000000,-59.088188,20.328505,-0.000000,0.005289,0.011135,0.006543,-0.000010,0.003108,-0.030653,-0.000507,0.012619,0.059919,0.009807,9.692697,-1.043604,0.769610,0,0,,38.991427,-76.936663,-12.636000,,,
2026-09-11T17:37:59.669,5.613548,0.184656,0.007686,1.709781,0.000000,-59.088188,20.328505,0.173155,0.004582,0.009646,0.006890,0.002882,0.003293,-0.038181,0.002365,0.011130,0.050406,0.200252,9.758107,-1.045466,0.743400,0,0,,38.991427,-76.936663,-12.636000,,,
2026-09-11T17:37:59.702,5.646964,0.096280,0.011526,0.891482,0.000000,-59.548927,20.487016,0.090190,0.007546,0.015887,0.007317,0.007280,0.003526,-0.035076,0.003069,0.017370,0.093163,0.070314,9.678183,-1.044542,0.709075,0,0,,38.991427,-76.936663,-12.636000,,,
2026-09-11T17:37:59.737,5.680382,0.017723,0.011584,0.164105,0.000000,-62.372413,21.458399,0.016495,0.006126,0.012897,0.007798,0.009061,0.003768,-0.018406,0.001039,0.014381,0.091104,0.206136,9.687303,-1.043761,0.684012,0,0,,38.991427,-76.936663,-12.636000,,,
2026-09-11T17:37:59.769,5.713796,-0.000000,0.011515,-0.000000,0.000000,-67.131553,23.095718,-0.000000,0.010385,0.021863,0.008379,0.009334,0.004046,-0.003362,0.001426,0.023347,0.075805,0.170145,9.724667,-1.043980,0.656911,0,0,,38.991427,-76.936663,-12.636000,,,
2026-09-11T17:37:59.803,5.747209,-0.000000,0.011515,-0.000000,0.000000,-69.920708,24.055289,-0.000000,0.012253,0.025797,0.009175,0.009331,0.004424,0.003471,0.001336,0.027280,0.129154,0.159162,9.676222,-1.040745,0.629400,0,0,,38.991427,-76.936663,-12.636000,,,
2026-09-11T17:37:59.837,5.780622,0.009820,0.011737,0.090922,0.000000,-75.539528,25.988370,0.008827,0.024786,0.052182,0.010478,0.009472,0.005045,0.059720,-0.012999,0.053665,-0.359316,1.499045,10.711902,-1.084045,0.688993,0,0,,38.991427,-76.936663,-12.636000,,,
2026-09-11T17:37:59.870,5.814035,0.009820,0.012063,0.090922,0.000000,-80.753227,27.782074,0.008688,0.029819,0.062777,0.012398,0.009754,0.005960,0.051654,-0.001803,0.064261,-0.619388,-0.760898,11.035031,-1.145788,0.601469,0,0,,38.991427,-76.936663,-12.636000,,,
2026-09-11T17:37:59.903,5.847446,0.009820,0.012392,0.090922,0.000000,-80.541740,27.709314,0.008693,-0.009308,-0.019597,0.013119,0.010041,0.006306,0.009825,0.010942,-0.018113,0.132880,-0.445712,9.031925,-1.133097,0.535394,0,0,,38.991427,-76.936663,-12.636000,,,
2026-09-11T17:37:59.937,5.880859,0.009820,0.012720,0.090922,0.000000,-80.533501,27.706480,0.008694,0.002945,0.006200,0.012896,0.010332,0.006204,0.007859,0.004908,0.007683,0.152886,0.427668,9.982581,-1.112319,0.526627,0,0,,38.991427,-76.936663,-12.636000,,,
2026-09-11T17:37:59.970,5.914278,0.009820,0.013047,0.090922,0.000000,-80.533501,27.706480,0.008694,0.006522,0.013731,0.013229,0.010621,0.006366,0.007990,-0.003574,0.015214,0.544269,-0.152297,9.804395,-1.089535,0.480366,0,0,,38.991427,-76.936663,-12.636000,,,
2026-09-11T17:38:00.005,5.947695,0.009820,0.013380,0.090922,0.000000,-80.388618,27.656635,0.008698,0.007453,0.015690,0.013720,0.010908,0.006603,0.004320,-0.001145,0.017174,-0.063645,0.273115,9.194519,-1.120733,0.462188,0,0,,38.991427,-76.936663,-12.636000,,,
2026-09-11T17:38:00.038,5.981113,0.009820,0.013703,0.090922,0.000000,-80.149666,27.574426,0.008704,0.004336,0.009128,0.014135,0.011196,0.006804,0.002980,0.002196,0.010611,0.288021,0.006963,10.049463,-1.134442,0.426967,0,0,,38.991427,-76.936663,-12.636000,,,
2026-09-11T17:38:00.070,6.014537,0.009820,0.014033,0.090922,0.000000,-79.983497,27.517258,0.008709,0.008721,0.018360,0.014594,0.011484,0.007027,-0.001833,0.000494,0.019844,0.258307,0.446987,9.487346,-1.155578,0.420645,0,1,6.004985,38.991426,-76.936664,-12.627000,-0.101406,-0.113048,3.333694
2026-09-11T17:38:00.103,6.047961,0.270194,0.026923,2.501795,0.000000,-80.050102,27.540173,0.239577,0.015304,0.032219,0.015440,0.015627,0.007492,0.002476,-0.000362,0.033703,0.481605,0.380204,9.867844,-1.159362,0.409574,0,0,,38.991426,-76.936664,-12.627000,,,
2026-09-11T17:38:00.137,6.081383,0.046529,0.027140,0.430826,0.000000,-80.276695,27.618129,0.041228,0.025176,0.053002,0.016864,0.020308,0.008242,0.026302,0.003837,0.054485,1.019990,0.182894,10.236770,-1.131786,0.386199,0,0,,38.991426,-76.936664,-12.627000,,,
2026-09-11T17:38:00.170,6.114809,0.027080,0.027535,0.250742,0.000000,-80.269829,27.615767,0.023995,0.028707,0.060436,0.018760,0.021381,0.009161,0.029285,-0.000917,0.061920,0.643316,0.377164,9.144701,-1.130772,0.375719,0,0,,38.991426,-76.936664,-12.627000,,,
2026-09-11T17:38:00.204,6.148239,0.027080,0.028439,0.250742,0.000000,-80.269829,27.615767,0.023995,0.035556,0.074855,0.021021,0.022162,0.010251,0.040778,-0.011443,0.076339,1.315562,0.096792,10.177440,-1.086031,0.347158,0,0,,38.991426,-76.936664,-12.627000,,,
2026-09-11T17:38:00.237,6.181660,0.254022,0.042701,2.352056,0.000000,-80.269829,27.615767,0.225083,0.041478,0.087322,0.023731,0.026294,0.011636,0.046762,-0.008074,0.088805,1.416669,0.461991,9.583647,-1.035132,0.341430,0,0,,38.991426,-76.936664,-12.627000,,,
2026-09-11T17:38:00.271,6.215082,0.177047,0.047252,1.639324,0.000000,-80.200477,27.591907,0.156911,0.053360,0.112337,0.027068,0.032635,0.013380,0.066660,-0.014722,0.113820,1.118547,0.690094,9.371529,-1.004493,0.350677,0,0,,38.991426,-76.936664,-12.627000,,,
2026-09-11T17:38:00.304,6.248510,0.333253,0.058553,3.085676,0.000000,-79.968391,27.512061,0.295567,0.067428,0.141953,0.031318,0.040135,0.015624,0.085798,-0.013855,0.143436,0.652731,0.469346,10.075941,-1.005392,0.343939,0,0,,38.991426,-76.936664,-12.627000,,,
2026-09-11T17:38:00.338,6.281940,0.285036,0.068339,2.639218,0.000000,-79.261146,27.268743,0.253359,0.065408,0.137701,0.035992,0.049230,0.018150,0.081119,0.005269,0.139185,0.591145,-0.043836,9.735846,-0.997254,0.304472,0,0,,38.991426,-76.936664,-12.627000,,,
2026-09-11T17:38:00.371,6.315362,0.294760,0.078188,2.729260,0.000000,-78.159080,26.889592,0.262891,0.061298,0.129048,0.040450,0.057770,0.020596,0.061907,0.022141,0.130531,0.991060,0.438455,9.525690,-0.963196,0.296767,0,0,,38.991426,-76.936664,-12.627000,,,
2026-09-11T17:38:00.405,6.348793,0.343961,0.090440,3.184822,0.000000,-77.083793,26.519654,0.307770,0.073687,0.155130,0.045200,0.067203,0.023260,0.037452,-0.004383,0.156613,0.181227,0.932612,9.155881,-0.997872,0.320278,0,0,,38.991426,-76.936664,-12.627000,,,
2026-09-11T17:38:00.438,6.382219,0.324523,0.101310,3.004845,0.000000,-74.990211,25.799385,0.292176,0.076533,0.161123,0.050486,0.077099,0.026247,-0.001219,-0.038604,0.162606,0.118464,0.256052,10.880184,-1.039087,0.299723,0,0,,38.991426,-76.936664,-12.627000,,,
2026-09-11T17:38:00.471,6.415648,0.335047,0.113500,3.102290,0.000000,-72.073341,24.795874,0.304158,0.065054,0.136955,0.055468,0.086927,0.029139,-0.005196,-0.025230,0.138438,0.017554,0.142098,8.564540,-1.074953,0.272361,1,0,,38.991426,-76.936664,-12.627000,,,
2026-09-11T17:38:00.505,6.449065,0.315598,0.124013,2.922205,0.000000,-67.246910,23.135405,0.290217,0.057202,0.120426,0.059768,0.096724,0.031749,-0.065179,-0.021410,0.121909,0.470229,0.864652,9.612577,-1.076465,0.292558,1,0,,38.991426,-76.936664,-12.627000,,,
2026-09-11T17:38:00.539,6.482484,0.335751,0.136086,3.108809,0.000000,-64.966560,22.350881,0.310527,0.062810,0.132233,0.063990,0.106619,0.034372,-0.048215,0.010088,0.133716,0.140235,0.481016,10.101928,-1.096628,0.287281,1,0,,38.991426,-76.936664,-12.627000,,,
2026-09-11T17:38:00.571,6.515907,0.326033,0.147031,3.018820,0.000000,-57.651726,19.834309,0.306692,0.044979,0.094692,0.067782,0.116793,0.036849,-0.059543,-0.034188,0.096176,0.201134,0.237027,8.711836,-1.108792,0.267030,1,0,,38.991426,-76.936664,-12.627000,,,
2026-09-11T17:38:00.604,6.549325,0.355844,0.159369,3.294848,0.000000,-50.273033,17.295768,0.339753,0.042952,0.090426,0.070875,0.127467,0.039064,-0.064388,-0.002951,0.091909,1.512970,-0.739618,9.883927,-1.039057,0.183625,1,0,,38.991426,-76.936664,-12.627000,,,
2026-09-11T17:38:00.638,6.582750,0.346119,0.171077,3.204806,0.000000,-37.986198,13.068646,0.337155,0.034281,0.072171,0.073593,0.138657,0.041167,-0.036583,-0.020436,0.073655,-0.222709,0.849550,10.150177,-1.079175,0.204518,1,0,,38.991426,-76.936664,-12.627000,,,
2026-09-11T17:38:00.672,6.616173,0.375894,0.184443,3.480502,0.000000,-26.235634,9.026021,0.371240,0.014493,0.030512,0.075309,0.150403,0.042861,-0.016137,0.003468,0.031995,0.778452,-1.492278,10.300709,-1.054128,0.074288,1,0,,38.991426,-76.936664,-12.627000,,,
2026-09-11T17:38:00.705,6.649589,0.366175,0.196623,3.390513,0.000000,-16.742760,5.760124,0.364327,-0.002177,-0.004584,0.075742,0.162642,0.043994,-0.023684,0.011319,-0.003100,-0.026380,3.073208,9.127540,-1.082592,0.242113,1,0,,38.991426,-76.936664,-12.627000,,,
2026-09-11T17:38:00.738,6.683010,0.395458,0.210105,3.661649,0.000000,-4.923530,1.693875,0.395285,-0.006050,-0.012736,0.075453,0.175309,0.044815,0.001196,-0.019252,-0.011252,0.950264,-1.035190,9.576390,-1.050397,0.142147,1,0,,38.991426,-76.936664,-12.627000,,,
2026-09-11T17:38:00.771,6.716436,0.424949,0.223851,3.934710,0.000000,0.438484,-0.150855,0.424947,-0.020896,-0.043991,0.074504,0.189013,0.045393,0.004011,0.008643,-0.042508,0.415802,-0.699214,9.060854,-1.055371,0.065934,1,0,,38.991426,-76.936664,-12.627000,,,
2026-09-11T17:38:00.805,6.749856,0.424852,0.238198,3.933813,0.000000,9.333291,-3.210995,0.424185,-0.020382,-0.042909,0.073052,0.203214,0.045751,0.077676,-0.018559,-0.041426,0.578396,-0.837978,9.758107,-1.052133,-0.018436,1,0,,38.991426,-76.936664,-12.627000,,,
2026-09-11T17:38:00.839,6.783272,0.463778,0.253714,4.294240,0.000000,14.774271,-5.082891,0.461954,-0.030696,-0.064624,0.071256,0.218043,0.045966,0.080807,-0.030731,-0.063140,-0.090712,-0.893680,9.638956,-1.096425,-0.104708,1,0,,38.991426,-76.936664,-12.627000,,,
2026-09-11T17:38:00.871,6.816691,0.444329,0.268385,4.114156,0.000000,23.898417,-8.221933,0.439762,-0.042577,-0.089636,0.068678,0.233158,0.045799,0.103359,-0.018034,-0.088153,0.253404,-1.308207,10.542443,-1.123696,-0.216255,1,0,,38.991426,-76.936664,-12.627000,,,
2026-09-11T17:38:00.905,6.850108,0.473291,0.284059,4.382327,0.000000,28.411738,-9.774681,0.466421,-0.057996,-0.122097,0.065140,0.248377,0.045134,0.145763,-0.014691,-0.120613,0.755799,-1.243581,10.814872,-1.123265,-0.321228,1,0,,38.991426,-76.936664,-12.627000,,,
2026-09-11T17:38:00.939,6.883526,0.483111,0.300341,4.473249,0.000000,38.867290,-13.371774,0.470014,-0.065145,-0.137147,0.060809,0.264123,0.044065,0.096270,0.011040,-0.135664,0.268506,-1.909551,10.065153,-1.157060,-0.467672,1,0,,38.991426,-76.936664,-12.627000,,,
2026-09-11T17:38:00.972,6.916958,0.502639,0.317084,4.654067,0.000000,49.304304,-16.962490,0.480772,-0.082789,-0.174293,0.055603,0.280132,0.042520,0.052738,-0.023728,-0.172810,0.466208,-0.256738,8.381842,-1.179846,-0.504227,1,0,,38.991426,-76.936664,-12.627000,,,
2026-09-11T17:38:01.006,6.950385,0.541417,0.335162,5.013123,0.000000,54.949903,-18.904783,0.512212,-0.106605,-0.224431,0.048938,0.296870,0.040224,-0.015596,-0.007464,-0.222947,0.256150,-0.443359,9.992584,-1.213349,-0.550440,1,0,,38.991426,-76.936664,-12.627000,,,
2026-09-11T17:38:01.039,6.983801,0.560866,0.353231,5.193208,0.000000,62.638273,-21.549865,0.521661,-0.107553,-0.226428,0.041406,0.314287,0.037429,-0.084764,-0.032137,-0.224945,1.320662,0.142000,10.047501,-1.175022,-0.558022,1,0,,38.991426,-76.936664,-12.627000,,,
2026-09-11T17:38:01.073,7.017230,0.619143,0.374464,5.732809,0.000000,69.991560,-24.079665,0.565265,-0.132486,-0.278918,0.032959,0.332590,0.034092,-0.085462,-0.019032,-0.277435,1.524444,1.383424,10.195582,-1.118876,-0.482555,1,1,7.008054,38.991428,-76.936666,-12.671000,-0.228162,0.107118,3.334081
2026-09-11T17:38:01.106,7.050660,0.687327,0.397572,6.364135,0.000000,76.512632,-26.323153,0.616056,-0.174950,-0.368315,0.022140,0.352465,0.029495,-0.138207,-0.033875,-0.366831,3.243157,-0.260170,10.966973,-0.947930,-0.509896,1,0,,38.991428,-76.936666,-12.671000,,,
2026-09-11T17:38:01.139,7.084081,0.784678,0.424409,7.265537,0.000000,85.070982,-29.267540,0.684511,-0.181797,-0.382731,0.009590,0.374289,0.023872,-0.144432,0.053394,-0.381248,1.766374,-0.731968,12.610077,-0.871967,-0.565204,1,0,,38.991428,-76.936666,-12.671000,,,
2026-09-11T17:38:01.173,7.117509,0.843324,0.452979,7.808559,0.000000,88.646345,-30.497596,0.726651,-0.222135,-0.467653,-0.004623,0.397887,0.017174,-0.213917,0.079987,-0.466170,0.314205,-1.042055,12.513482,-0.887596,-0.634952,1,0,,38.991428,-76.936666,-12.671000,,,
2026-09-11T17:38:01.206,7.150939,0.882559,0.482893,8.171844,0.000000,91.164279,-31.363858,0.753599,-0.230535,-0.485336,-0.020552,0.422530,0.009293,-0.220291,-0.032887,-0.483852,1.186605,-0.253600,10.202447,-0.849042,-0.651183,1,0,,38.991428,-76.936666,-12.671000,,,
2026-09-11T17:38:01.239,7.184361,0.921353,0.513907,8.531045,0.000000,92.078205,-31.678281,0.784081,-0.230993,-0.486301,-0.036790,0.447994,0.000844,-0.208573,0.051946,-0.484818,-0.463658,-0.718239,8.505406,-0.919097,-0.696308,1,0,,38.991428,-76.936666,-12.671000,,,
2026-09-11T17:38:01.273,7.217786,0.911911,0.544183,8.443621,0.000000,92.985263,-31.990343,0.773426,-0.226370,-0.476569,-0.052882,0.473655,-0.007957,-0.208066,-0.030953,-0.475085,1.240149,-3.487539,9.258753,-0.877720,-0.921070,1,0,,38.991428,-76.936666,-12.671000,,,
2026-09-11T17:38:01.307,7.251202,0.912097,0.574816,8.445342,0.000000,93.183704,-32.058614,0.773007,-0.235577,-0.495952,-0.069130,0.498972,-0.017236,-0.225824,0.065563,-0.494468,0.622722,-2.171388,10.210096,-0.876604,-1.057110,1,0,,38.991428,-76.936666,-12.671000,,,
2026-09-11T17:38:01.340,7.284624,0.864205,0.603716,8.001900,0.000000,93.161045,-32.050818,0.732481,-0.210664,-0.443504,-0.084830,0.523485,-0.026601,-0.147195,-0.013293,-0.442021,-0.249873,-1.079320,9.373000,-0.927466,-1.124757,1,0,,38.991428,-76.936666,-12.671000,,,
2026-09-11T17:38:01.373,7.318052,0.845094,0.632126,7.824946,0.000000,90.343051,-31.081325,0.723769,-0.204734,-0.431018,-0.099446,0.547083,-0.035752,-0.116678,0.012779,-0.429534,-0.701862,-0.584476,9.961693,-0.997807,-1.160460,1,0,,38.991428,-76.936666,-12.671000,,,
2026-09-11T17:38:01.406,7.351473,0.806480,0.659430,7.467410,0.000000,87.381549,-30.062460,0.697992,-0.185417,-0.390351,-0.113172,0.570017,-0.044753,-0.064999,-0.046220,-0.388868,-0.663224,2.282596,9.302883,-1.056289,-1.012727,1,0,,38.991428,-76.936666,-12.671000,,,
2026-09-11T17:38:01.440,7.384896,0.806927,0.686844,7.471551,0.000000,84.939151,-29.222185,0.704232,-0.183930,-0.387222,-0.126166,0.592546,-0.053680,-0.025233,0.024036,-0.385738,-0.342252,0.840920,9.731531,-1.088048,-0.959932,1,0,,38.991428,-76.936666,-12.671000,,,
2026-09-11T17:38:01.474,7.418322,0.856276,0.715647,7.928485,0.000000,83.728595,-28.805709,0.750320,-0.188808,-0.397490,-0.139281,0.615816,-0.063076,0.010764,0.006177,-0.396007,0.481507,0.195643,9.355642,-1.064477,-0.947842,1,0,,38.991428,-76.936666,-12.671000,,,
2026-09-11T17:38:01.507,7.451738,0.876064,0.744931,8.111703,0.000000,83.644138,-28.776653,0.767873,-0.198998,-0.418943,-0.152922,0.639966,-0.073181,-0.051827,0.024720,-0.417460,0.738245,-0.568982,9.662100,-1.027922,-0.983863,1,0,,38.991428,-76.936666,-12.671000,,,
2026-09-11T17:38:01.540,7.485156,0.895824,0.774852,8.294665,0.000000,83.734088,-28.807599,0.784959,-0.213402,-0.449267,-0.167429,0.664479,-0.084123,-0.025491,-0.007145,-0.447783,0.403740,-0.090810,8.638482,-1.018335,-0.986530,1,0,,38.991428,-76.936666,-12.671000,,,
2026-09-11T17:38:01.573,7.518584,0.935353,0.806093,8.660678,0.000000,84.130283,-28.943905,0.818522,-0.215281,-0.453223,-0.182513,0.689620,-0.095848,-0.103138,-0.019535,-0.451740,0.440221,-3.440565,11.612153,-1.013701,-1.204859,1,0,,38.991428,-76.936666,-12.671000,,,
2026-09-11T17:38:01.607,7.551997,0.926050,0.836793,8.574536,0.000000,84.380908,-29.030129,0.809705,-0.214739,-0.452081,-0.197638,0.714975,-0.108041,0.067963,-0.051817,-0.450598,-1.475803,-0.301064,11.302753,-1.139166,-1.217818,1,0,,38.991428,-76.936666,-12.671000,,,
2026-09-11T17:38:01.641,7.585415,0.906797,0.867501,8.396266,0.000000,83.583713,-28.755865,0.794968,-0.211340,-0.444925,-0.212626,0.739775,-0.120470,0.137484,-0.151999,-0.443442,0.147296,-0.046091,11.105835,-1.164482,-1.214932,1,0,,38.991428,-76.936666,-12.671000,,,
2026-09-11T17:38:01.674,7.618842,0.878004,0.897350,8.129669,0.000000,76.265445,-26.238112,0.787539,-0.193649,-0.407682,-0.226876,0.764115,-0.132841,0.195522,0.125933,-0.406198,-1.153752,-0.271938,4.526357,-1.280548,-1.228811,1,0,,38.991428,-76.936666,-12.671000,,,
2026-09-11T17:38:01.707,7.652265,0.868535,0.926210,8.041991,0.000000,75.055576,-25.821872,0.781814,-0.162553,-0.342216,-0.239408,0.788259,-0.144692,0.293654,-0.067106,-0.340732,0.890542,-4.895676,10.115658,-1.264042,-1.545275,1,0,,38.991428,-76.936666,-12.671000,,,
2026-09-11T17:38:01.741,7.685684,0.907339,0.956630,8.401285,0.000000,74.072299,-25.483589,0.819062,-0.185071,-0.389623,-0.251637,0.812791,-0.156831,0.247536,-0.002829,-0.388139,1.496593,-2.077833,8.711443,-1.209708,-1.672484,1,0,,38.991428,-76.936666,-12.671000,,,
2026-09-11T17:38:01.775,7.719102,0.946105,0.988292,8.760232,0.000000,74.226108,-25.536505,0.853681,-0.211598,-0.445470,-0.265590,0.838112,-0.170389,0.141798,-0.040025,-0.443986,0.349117,-0.599088,6.165735,-1.232413,-1.698627,1,0,,38.991428,-76.936666,-12.671000,,,
2026-09-11T17:38:01.808,7.752518,0.985257,1.021207,9.122747,0.000000,76.049838,-26.163935,0.884303,-0.219207,-0.461488,-0.280743,0.864129,-0.185157,-0.002514,-0.100752,-0.460004,1.760980,1.065100,10.567646,-1.162986,-1.614995,1,0,,38.991428,-76.936666,-12.671000,,,
2026-09-11T17:38:01.841,7.785936,1.043680,1.056405,9.663701,0.000000,80.407978,-27.663295,0.924378,-0.236736,-0.498392,-0.296782,0.890924,-0.201070,0.055026,-0.031068,-0.496908,0.009022,-0.601050,11.280001,-1.206577,-1.636698,1,0,,38.991428,-76.936666,-12.671000,,,
2026-09-11T17:38:01.876,7.819337,1.073123,1.092507,9.936321,0.000000,87.148090,-29.982141,0.929519,-0.265656,-0.559276,-0.314446,0.917921,-0.218386,0.099162,-0.034086,-0.557792,0.365984,-1.640358,2.763318,-1.228914,-1.721544,1,0,,38.991428,-76.936666,-12.671000,,,
2026-09-11T17:38:01.909,7.852757,1.151238,1.130353,10.659613,0.000000,90.144611,-31.013054,0.986669,-0.307152,-0.646636,-0.334596,0.945206,-0.237673,0.021513,-0.012461,-0.645152,1.533172,-2.250528,11.790732,-1.179410,-1.837334,1,0,,38.991428,-76.936666,-12.671000,,,
2026-09-11T17:38:01.942,7.886175,1.199836,1.171039,11.109589,0.000000,93.474155,-32.158540,1.015755,-0.306604,-0.645483,-0.356186,0.973213,-0.258654,-0.029278,0.018631,-0.643999,1.660756,-3.260613,9.301608,-1.122524,-2.016044,1,0,,38.991428,-76.936666,-12.671000,,,
2026-09-11T17:38:01.975,7.919602,1.268072,1.213713,11.741410,0.000000,98.045841,-33.731367,1.054593,-0.340958,-0.717807,-0.378972,1.001605,-0.281193,-0.077161,-0.026577,-0.716323,0.772372,1.659677,10.216764,-1.115332,-1.867808,1,0,,38.991428,-76.936666,-12.671000,,,
2026-09-11T17:38:02.009,7.953036,1.326707,1.258479,12.284323,0.000000,99.259143,-34.148788,1.097960,-0.347956,-0.732539,-0.403217,1.030475,-0.305562,-0.087681,-0.002331,-0.731055,-1.383326,-1.461387,9.835384,-1.236914,-1.920169,1,0,,38.991428,-76.936666,-12.671000,,,
2026-09-11T17:38:02.041,7.986459,1.356150,1.303366,12.556942,0.000000,99.073749,-34.085005,1.123173,-0.361416,-0.760876,-0.428174,1.059638,-0.331399,-0.174982,-0.035528,-0.759393,5.069548,-7.898472,6.041975,-0.931657,-2.385239,1,0,,38.991428,-76.936666,-12.671000,,,
2026-09-11T17:38:02.076,8.019883,1.376054,1.349648,12.741241,0.000000,98.939166,-34.038704,1.140280,-0.378094,-0.795987,-0.454192,1.088558,-0.358726,0.031722,-0.069695,-0.794503,-0.683916,3.533728,7.741958,-0.993828,-2.101915,1,1,8.001690,38.991436,-76.936666,-12.701000,-0.251209,0.904200,2.755718
2026-09-11T17:38:02.109,8.053303,1.357170,1.395536,12.566392,0.000000,97.587161,-33.573565,1.130762,-0.332414,-0.699819,-0.479188,1.117115,-0.386404,0.078879,0.006403,-0.698335,0.305967,-0.014318,7.881212,-0.988475,-2.058863,1,0,,38.991436,-76.936666,-12.701000,,,
2026-09-11T17:38:02.141,8.086724,1.367485,1.440369,12.661895,0.000000,94.546695,-32.527533,1.152972,-0.326844,-0.688092,-0.502380,1.145577,-0.414109,-0.035779,-0.031927,-0.686609,-0.335780,-1.005182,11.594108,-1.022026,-2.080273,1,0,,38.991436,-76.936666,-12.701000,,,
2026-09-11T17:38:02.175,8.120147,1.358425,1.485206,12.578005,0.000000,88.914142,-30.589728,1.169377,-0.327860,-0.690231,-0.525414,1.173993,-0.442716,-0.005108,-0.038030,-0.688747,-1.405587,3.763204,11.594402,-1.119435,-1.791963,1,0,,38.991436,-76.936666,-12.701000,,,
2026-09-11T17:38:02.209,8.153562,1.319815,1.529160,12.220512,0.000000,86.725116,-29.836623,1.144871,-0.308667,-0.649826,-0.547803,1.201790,-0.471618,-0.025315,0.091291,-0.648343,-1.974961,-2.705753,8.487656,-1.248701,-1.929548,1,0,,38.991436,-76.936666,-12.701000,,,
2026-09-11T17:38:02.242,8.186983,1.213404,1.570018,11.235226,0.000000,81.587634,-28.069140,1.070684,-0.277342,-0.583879,-0.568419,1.228019,-0.499522,-0.102769,-0.044892,-0.582395,-1.146986,3.550988,8.209637,-1.321433,-1.668433,1,0,,38.991436,-76.936666,-12.701000,,,
2026-09-11T17:38:02.275,8.220408,1.155606,1.608812,10.700056,0.000000,72.176471,-24.831355,1.048768,-0.223090,-0.469662,-0.586026,1.253145,-0.525860,-0.002046,-0.009769,-0.468179,-0.200252,-1.530622,8.700460,-1.333327,-1.747650,1,0,,38.991436,-76.936666,-12.701000,,,
2026-09-11T17:38:02.309,8.253822,1.097298,1.645145,10.160166,0.000000,65.475498,-22.525974,1.013581,-0.190889,-0.401872,-0.600587,1.277850,-0.550857,-0.013805,0.000815,-0.400388,-0.213785,0.311753,5.770723,-1.347374,-1.712273,1,0,,38.991436,-76.936666,-12.701000,,,
2026-09-11T17:38:02.342,8.287237,1.058603,1.680524,9.801882,0.000000,59.640384,-20.518481,0.991445,-0.152163,-0.320344,-0.612653,1.302109,-0.574664,-0.031175,0.064922,-0.318861,1.029208,-2.672018,10.669832,-1.285348,-1.876152,1,0,,38.991436,-76.936666,-12.701000,,,
2026-09-11T17:38:02.376,8.320654,1.068227,1.716330,9.890990,0.000000,52.431980,-18.038525,1.015722,-0.148046,-0.311675,-0.623213,1.326536,-0.598183,0.018453,-0.007210,-0.310192,-0.374614,-0.989099,10.614228,-1.320121,-1.929393,1,0,,38.991436,-76.936666,-12.701000,,,
2026-09-11T17:38:02.410,8.354075,1.058579,1.752136,9.801661,0.000000,49.479404,-17.022731,1.012202,-0.172840,-0.363873,-0.634502,1.350785,-0.622451,-0.008692,0.077170,-0.362389,-1.411863,0.703137,11.478390,-1.423902,-1.869195,1,0,,38.991436,-76.936666,-12.701000,,,
2026-09-11T17:38:02.443,8.387502,1.068858,1.787554,9.896831,0.000000,48.163791,-16.570112,1.024470,-0.122143,-0.257144,-0.644881,1.375154,-0.646730,0.089349,0.083685,-0.255660,-0.914372,-1.507674,9.260224,-1.497066,-1.959532,1,0,,38.991436,-76.936666,-12.701000,,,
2026-09-11T17:38:02.477,8.420928,1.059477,1.822771,9.809973,0.000000,45.516773,-15.659440,1.020153,-0.114678,-0.241427,-0.653214,1.399985,-0.670537,0.105185,0.042192,-0.239943,2.122453,0.339702,9.455376,-1.382743,-1.930412,1,0,,38.991436,-76.936666,-12.701000,,,
2026-09-11T17:38:02.510,8.454348,1.118171,1.859975,10.353435,0.000000,42.111698,-14.487969,1.082613,-0.127527,-0.268478,-0.661735,1.425320,-0.695216,0.120439,-0.014681,-0.266995,0.557998,-0.825524,10.074764,-1.381426,-1.974148,1,0,,38.991436,-76.936666,-12.701000,,,
2026-09-11T17:38:02.543,8.487771,1.137708,1.898572,10.534329,0.000000,38.329654,-13.186808,1.107708,-0.125049,-0.263261,-0.670621,1.451488,-0.721157,0.075909,0.074615,-0.261777,0.501904,-2.643971,12.517699,-1.391192,-2.135021,1,0,,38.991436,-76.936666,-12.701000,,,
2026-09-11T17:38:02.577,8.521198,1.176895,1.937822,10.897174,0.000000,37.719226,-12.976798,1.146838,-0.102480,-0.215747,-0.678627,1.478540,-0.747665,0.075328,-0.013121,-0.214264,0.647239,-3.514801,10.507728,-1.400710,-2.353344,1,0,,38.991436,-76.936666,-12.701000,,,
2026-09-11T17:38:02.611,8.554613,1.216233,1.978905,11.261413,0.000000,37.853809,-13.023099,1.184950,-0.150941,-0.317770,-0.687540,1.506079,-0.775539,-0.041119,0.007252,-0.316286,1.276728,3.472339,9.656706,-1.374121,-2.108781,1,0,,38.991436,-76.936666,-12.701000,,,
2026-09-11T17:38:02.644,8.588027,1.275018,2.021026,11.805718,0.000000,38.234210,-13.153971,1.241564,-0.130145,-0.273990,-0.697427,1.534281,-0.805040,-0.023910,-0.054401,-0.272506,3.147739,-0.592714,7.172290,-1.227741,-2.132268,1,0,,38.991436,-76.936666,-12.701000,,,
2026-09-11T17:38:02.677,8.621451,1.294987,2.064030,11.990620,0.000000,39.457813,-13.574936,1.258810,-0.143981,-0.303117,-0.707072,1.563219,-0.835529,-0.048325,-0.003271,-0.301634,-0.453558,-5.381595,9.761638,-1.317825,-2.462728,1,0,,38.991436,-76.936666,-12.701000,,,
2026-09-11T17:38:02.710,8.654866,1.314422,2.108277,12.170578,0.000000,40.638843,-13.981253,1.275482,-0.162617,-0.342351,-0.717856,1.591910,-0.867083,-0.067553,0.011328,-0.340867,1.519737,-1.552000,8.817159,-1.282371,-2.538111,1,0,,38.991436,-76.936666,-12.701000,,,
2026-09-11T17:38:02.744,8.688281,1.353673,2.154159,12.534010,0.000000,41.065936,-14.128189,1.312727,-0.164339,-0.345976,-0.729356,1.620697,-0.899810,0.046723,0.048890,-0.344493,0.736577,4.578038,10.533127,-1.297048,-2.214943,1,0,,38.991436,-76.936666,-12.701000,,,
2026-09-11T17:38:02.777,8.721712,1.383478,2.200956,12.809980,0.000000,40.886722,-14.066533,1.341993,-0.157818,-0.332249,-0.740693,1.650002,-0.933564,-0.044732,-0.011586,-0.330765,1.532387,0.643610,8.826083,-1.254249,-2.150400,1,0,,38.991436,-76.936666,-12.701000,,,
2026-09-11T17:38:02.810,8.755128,1.413186,2.248982,13.085054,0.000000,40.803638,-14.037949,1.370981,-0.161973,-0.340995,-0.751942,1.679652,-0.968264,0.134079,-0.023074,-0.339512,0.467483,0.397562,7.727836,-1.275299,-2.101119,1,0,,38.991436,-76.936666,-12.701000,,,
2026-09-11T17:38:02.844,8.788554,1.471973,2.298112,13.629380,0.000000,40.778919,-14.029444,1.428066,-0.181377,-0.381846,-0.764022,1.709675,-1.004594,0.096246,-0.034172,-0.380363,1.712731,-1.057549,12.361381,-1.210807,-2.141508,1,0,,38.991436,-76.936666,-12.701000,,,
2026-09-11T17:38:02.878,8.821985,1.491585,2.348359,13.810968,0.000000,41.184726,-14.169057,1.446207,-0.178993,-0.376828,-0.776704,1.739957,-1.042375,0.069019,0.041329,-0.375345,0.243597,1.461877,9.533045,-1.236588,-2.018400,1,0,,38.991436,-76.936666,-12.701000,,,
2026-09-11T17:38:02.910,8.855400,1.520317,2.398645,14.077011,0.000000,45.579944,-15.681173,1.463732,-0.195426,-0.411424,-0.789874,1.769991,-1.081113,0.090108,-0.005581,-0.409940,0.529265,-0.623016,9.763403,-1.237388,-2.027896,1,0,,38.991436,-76.936666,-12.701000,,,
2026-09-11T17:38:02.945,8.888817,1.549762,2.451467,14.349650,0.000000,48.882709,-16.817446,1.483481,-0.214863,-0.452344,-0.804306,1.799494,-1.121127,-0.004330,-0.032012,-0.450860,1.204943,-0.744521,9.890595,-1.189039,-2.040696,1,0,,38.991436,-76.936666,-12.701000,,,
2026-09-11T17:38:02.978,8.922247,1.588835,2.504695,14.711434,0.000000,49.099689,-16.892095,1.520283,-0.234899,-0.494524,-0.820133,1.828568,-1.162740,-0.010573,-0.033203,-0.493041,0.128761,0.828172,9.798805,-1.204615,-1.946335,1,0,,38.991436,-76.936666,-12.701000,,,
2026-09-11T17:38:03.011,8.955671,1.599161,2.558156,14.807050,0.000000,50.052753,-17.219984,1.527479,-0.223954,-0.471481,-0.836277,1.857360,-1.205450,0.007140,-0.003443,-0.469998,-0.148178,-2.028506,11.401506,-1.233774,-2.039956,1,0,,38.991436,-76.936666,-12.701000,,,
2026-09-11T17:38:03.045,8.989092,1.589712,2.611034,14.719555,0.000000,50.270420,-17.294869,1.517837,-0.233260,-0.491073,-0.852361,1.885450,-1.248562,0.067200,0.124022,-0.489589,0.582025,1.067846,10.447221,-1.212861,-1.930537,1,1,8.999410,38.991446,-76.936661,-12.711000,0.142025,2.100657,2.755718
2026-09-11T17:38:03.079,9.022521,1.580379,2.664396,14.633141,0.000000,51.373859,-17.674493,1.505780,-0.206749,-0.435260,-0.867845,1.912848,-1.291664,-0.044436,0.004799,-0.433777,-1.780201,-3.311313,5.868496,-1.339559,-2.111574,1,0,,38.991446,-76.936661,-12.711000,,,
2026-09-11T17:38:03.111,9.055939,1.600098,2.716982,14.815720,0.000000,52.256198,-17.978050,1.521973,-0.242463,-0.510448,-0.883646,1.939477,-1.335322,-0.038703,0.017262,-0.508965,0.359806,-4.294921,13.082954,-1.322999,-2.346312,1,0,,38.991446,-76.936661,-12.711000,,,
2026-09-11T17:38:03.144,9.089360,1.591074,2.770002,14.732165,0.000000,51.737094,-17.799459,1.514913,-0.235843,-0.496512,-0.900473,1.965116,-1.379838,-0.096269,-0.118835,-0.495029,-0.608895,-4.892832,6.569867,-1.369852,-2.618752,1,0,,38.991446,-76.936661,-12.711000,,,
2026-09-11T17:38:03.178,9.122790,1.572448,2.822514,14.559701,0.000000,50.906253,-17.513619,1.499558,-0.231858,-0.488123,-0.916932,1.989928,-1.424383,0.007351,-0.005596,-0.486639,0.161319,-2.683296,9.918936,-1.365169,-2.746548,1,0,,38.991446,-76.936661,-12.711000,,,
2026-09-11T17:38:03.211,9.156214,1.534097,2.873939,14.204605,0.000000,50.231967,-17.281640,1.464842,-0.219217,-0.461510,-0.932802,2.013733,-1.468478,0.052268,-0.037405,-0.460027,-0.945165,2.568460,3.603552,-1.429187,-2.536680,1,0,,38.991446,-76.936661,-12.711000,,,
2026-09-11T17:38:03.245,9.189636,1.524834,2.925614,14.118831,0.000000,49.941516,-17.181714,1.456785,-0.202888,-0.427133,-0.947652,2.036824,-1.512071,0.019666,0.132138,-0.425650,-0.529657,-1.535329,11.048760,-1.462775,-2.598173,1,0,,38.991446,-76.936661,-12.711000,,,
2026-09-11T17:38:03.279,9.223092,1.535133,2.977752,14.214192,0.000000,49.881092,-17.160926,1.466788,-0.218483,-0.459963,-0.962491,2.059312,-1.556064,0.019917,-0.000938,-0.458480,-1.881602,-0.132978,2.638773,-1.584538,-2.564817,1,0,,38.991446,-76.936661,-12.711000,,,
2026-09-11T17:38:03.312,9.256515,1.545030,3.028613,14.305832,0.000000,49.849506,-17.150059,1.476331,-0.217719,-0.458356,-0.977838,2.081094,-1.600759,0.022387,-0.042549,-0.456872,-0.327444,1.212200,8.546888,-1.607404,-2.444687,1,0,,38.991446,-76.936661,-12.711000,,,
2026-09-11T17:38:03.345,9.289936,1.535170,3.079994,14.214541,0.000000,49.576221,-17.056039,1.467651,-0.215074,-0.452787,-0.993063,2.102246,-1.645759,0.126574,0.065414,-0.451303,-1.214063,1.059609,9.891282,-1.686699,-2.336554,1,0,,38.991446,-76.936661,-12.711000,,,
2026-09-11T17:38:03.379,9.323347,1.564418,3.132476,14.485348,0.000000,48.134265,-16.559954,1.499529,-0.204453,-0.430426,-1.007818,2.123107,-1.691267,0.011156,-0.051911,-0.428943,1.112957,3.683280,7.139830,-1.613028,-2.061160,1,0,,38.991446,-76.936661,-12.711000,,,
2026-09-11T17:38:03.412,9.356772,1.574576,3.184312,14.579405,0.000000,47.153049,-16.222379,1.511883,-0.208587,-0.439131,-1.022350,2.143791,-1.737663,-0.010813,0.047519,-0.437647,-0.397660,3.255906,8.889532,-1.640964,-1.815153,1,0,,38.991446,-76.936661,-12.711000,,,
2026-09-11T17:38:03.445,9.390194,1.574920,3.236874,14.582596,0.000000,44.696231,-15.377144,1.518540,-0.186068,-0.391722,-1.036234,2.164242,-1.784459,-0.014389,0.004977,-0.390238,-1.035092,1.494043,9.544126,-1.714721,-1.690374,1,0,,38.991446,-76.936661,-12.711000,,,
2026-09-11T17:38:03.478,9.423614,1.575029,3.289583,14.583603,0.000000,43.059955,-14.814205,1.522675,-0.184656,-0.388750,-1.049276,2.184495,-1.831477,0.006449,-0.018267,-0.387267,0.892405,3.569523,8.998092,-1.667298,-1.432840,1,0,,38.991446,-76.936661,-12.711000,,,
2026-09-11T17:38:03.512,9.457028,1.565704,3.341425,14.497259,0.000000,40.933414,-14.082597,1.518648,-0.159611,-0.336023,-1.061385,2.204539,-1.878523,-0.022411,-0.027275,-0.334539,1.182486,-2.611413,5.557625,-1.603546,-1.583433,1,0,,38.991446,-76.936661,-12.711000,,,
2026-09-11T17:38:03.546,9.490446,1.575880,3.394128,14.591480,0.000000,38.068729,-13.097040,1.534888,-0.159349,-0.335471,-1.072605,2.224501,-1.925778,0.013771,0.032567,-0.333988,0.604776,0.257130,8.696832,-1.579092,-1.546444,1,0,,38.991446,-76.936661,-12.711000,,,
2026-09-11T17:38:03.579,9.523870,1.585761,3.447443,14.682973,0.000000,37.579151,-12.928607,1.545561,-0.175243,-0.368933,-1.084377,2.243904,-1.973786,0.013111,-0.042725,-0.367449,-0.144060,4.769955,10.295021,-1.605781,-1.214165,1,0,,38.991446,-76.936661,-12.711000,,,
2026-09-11T17:38:03.612,9.557291,1.567259,3.499727,14.511660,0.000000,37.152057,-12.781671,1.528423,-0.149532,-0.314803,-1.095803,2.262847,-2.021843,0.066366,-0.007641,-0.313320,0.217413,3.009269,8.716445,-1.609126,-1.005290,1,0,,38.991446,-76.936661,-12.711000,,,
2026-09-11T17:38:03.645,9.590708,1.567821,3.552494,14.516864,0.000000,36.247745,-12.470554,1.530832,-0.148003,-0.311586,-1.106269,2.281552,-2.069671,-0.008165,-0.105925,-0.310103,1.115212,-0.547113,12.305090,-1.553349,-1.029207,1,0,,38.991446,-76.936661,-12.711000,,,
2026-09-11T17:38:03.679,9.624124,1.587740,3.605668,14.701294,0.000000,34.642368,-11.918246,1.553513,-0.149382,-0.314488,-1.116729,2.299942,-2.118066,0.052149,-0.002142,-0.313005,2.297404,3.170882,11.738560,-1.422942,-0.811454,1,0,,38.991446,-76.936661,-12.711000,,,
2026-09-11T17:38:03.713,9.657541,1.588203,3.658781,14.705581,0.000000,33.348728,-11.473186,1.556467,-0.139177,-0.293005,-1.126879,2.318153,-2.166972,0.052599,-0.014056,-0.291521,2.204339,4.586080,10.334542,-1.302318,-0.506552,1,0,,38.991446,-76.936661,-12.711000,,,
2026-09-11T17:38:03.746,9.690958,1.608010,3.712466,14.888985,0.000000,32.094226,-11.041592,1.578244,-0.125186,-0.263549,-1.136178,2.336428,-2.216255,0.043623,0.071501,-0.262065,1.060491,0.248697,10.987567,-1.260818,-0.488429,1,0,,38.991446,-76.936661,-12.711000,,,
2026-09-11T17:38:03.779,9.724376,1.617529,3.766103,14.977124,0.000000,31.945224,-10.990329,1.587863,-0.140415,-0.295611,-1.145522,2.354444,-2.266191,-0.060514,0.010591,-0.294128,-1.889349,-0.294494,5.419155,-1.413720,-0.502216,1,0,,38.991446,-76.936661,-12.711000,,,
2026-09-11T17:38:03.813,9.757792,1.646796,3.821215,15.248114,0.000000,31.841541,-10.954659,1.616788,-0.147277,-0.310056,-1.155641,2.371896,-2.317037,-0.050915,-0.041038,-0.308572,-0.138960,0.921825,6.911727,-1.452270,-0.435032,1,0,,38.991446,-76.936661,-12.711000,,,
2026-09-11T17:38:03.847,9.791208,1.656495,3.876653,15.337919,0.000000,31.899906,-10.974738,1.626200,-0.164387,-0.346079,-1.166604,2.388700,-2.368810,-0.114317,-0.014543,-0.344595,0.077276,4.627170,10.744754,-1.477642,-0.124658,1,0,,38.991446,-76.936661,-12.711000,,,
2026-09-11T17:38:03.879,9.824627,1.676398,3.933165,15.522205,0.000000,32.142291,-11.058128,1.645273,-0.129577,-0.272793,-1.176945,2.405412,-2.421092,-0.056401,0.094942,-0.271309,-1.395388,-4.729453,9.844013,-1.599826,-0.431026,1,0,,38.991446,-76.936661,-12.711000,,,
2026-09-11T17:38:03.913,9.858042,1.686398,3.988870,15.614796,0.000000,32.228122,-11.087657,1.654920,-0.149971,-0.315729,-1.186778,2.421997,-2.473881,-0.139185,-0.085271,-0.314246,0.993610,-0.676561,9.088607,-1.564358,-0.466747,1,0,,38.991446,-76.936661,-12.711000,,,
2026-09-11T17:38:03.947,9.891456,1.715568,4.046444,15.884889,0.000000,32.318073,-11.118603,1.683367,-0.154989,-0.326293,-1.197504,2.437878,-2.527586,-0.035057,-0.020314,-0.324810,-0.002157,-0.157495,8.185611,-1.592030,-0.466732,1,0,,38.991446,-76.936661,-12.711000,,,
2026-09-11T17:38:03.980,9.924874,1.735517,4.104564,16.069606,0.000000,32.917514,-11.324833,1.701726,-0.147554,-0.310640,-1.208146,2.453506,-2.582180,-0.037163,-0.083815,-0.309157,1.183172,-0.853473,9.776348,-1.542382,-0.513118,1,0,,38.991446,-76.936661,-12.711000,,,
2026-09-11T17:38:04.013,9.958290,1.784743,4.163626,16.525396,0.000000,36.486698,-12.552763,1.742081,-0.190971,-0.402044,-1.220054,2.468292,-2.638069,0.105333,-0.025959,-0.400561,1.477666,4.427114,12.814644,-1.471763,-0.205945,1,0,,38.991446,-76.936661,-12.711000,,,
2026-09-11T17:38:04.046,9.991711,1.814441,4.224508,16.800384,0.000000,40.193897,-13.828175,1.761853,-0.217631,-0.458170,-1.234429,2.481582,-2.695496,0.041512,-0.058701,-0.456686,1.450502,0.136018,10.483113,-1.397671,-0.173101,1,0,,38.991446,-76.936661,-12.711000,,,
2026-09-11T17:38:04.080,10.025132,1.853936,4.286695,17.166075,0.000000,47.777896,-16.437350,1.778165,-0.241803,-0.509059,-1.250591,2.493384,-2.753963,0.056205,-0.131125,-0.507576,1.800991,0.304595,7.896805,-1.296351,-0.123356,1,1,10.008155,38.991458,-76.936651,-12.752000,1.042143,3.355863,2.780888
2026-09-11T17:38:04.114,10.058556,1.854200,4.348702,17.168514,0.000000,48.973346,-16.848628,1.774606,-0.264350,-0.556525,-1.268399,2.503517,-2.813068,-0.019677,0.013138,-0.555042,0.471406,-4.567643,11.216552,-1.279002,-0.384404,1,0,,38.991458,-76.936651,-12.752000,,,
2026-09-11T17:38:04.147,10.091974,1.874126,4.411733,17.353015,0.000000,49.662052,-17.085568,1.791415,-0.282333,-0.594385,-1.287630,2.511964,-2.872749,0.092184,0.064207,-0.592902,0.402171,3.327396,10.381908,-1.261137,-0.126230,1,0,,38.991458,-76.936651,-12.752000,,,
2026-09-11T17:38:04.180,10.125395,1.854601,4.473435,17.172233,0.000000,49.631153,-17.074938,1.772853,-0.283378,-0.596586,-1.307532,2.518935,-2.932647,0.013760,0.111269,-0.595102,1.510322,7.734309,8.265535,-1.168038,0.414237,1,0,,38.991458,-76.936651,-12.752000,,,
2026-09-11T17:38:04.214,10.158812,1.873863,4.536329,17.350579,0.000000,49.660678,-17.085096,1.791168,-0.275716,-0.580454,-1.327198,2.524820,-2.992637,-0.092826,-0.068832,-0.578970,-1.453051,-1.238482,8.406457,-1.266952,0.366224,1,0,,38.991458,-76.936651,-12.752000,,,
2026-09-11T17:38:04.248,10.192229,1.874205,4.599189,17.353751,0.000000,49.350315,-16.978319,1.792518,-0.267719,-0.563618,-1.346314,2.529874,-3.052986,-0.183019,-0.017308,-0.562135,-2.298483,2.392332,10.126837,-1.418609,0.552105,1,0,,38.991458,-76.936651,-12.752000,,,
2026-09-11T17:38:04.281,10.225646,1.865149,4.661092,17.269897,0.000000,49.221912,-16.934144,1.784276,-0.269859,-0.568123,-1.365224,2.533851,-3.113286,-0.290882,-0.049485,-0.566640,1.580440,0.590949,4.166944,-1.313208,0.619432,1,0,,38.991458,-76.936651,-12.752000,,,
2026-09-11T17:38:04.314,10.259062,1.817046,4.721797,16.824496,0.000000,49.277530,-16.953279,1.738082,-0.253780,-0.534274,-1.383643,2.536760,-3.172712,-0.345389,-0.084618,-0.532790,-1.729207,-3.293073,6.981158,-1.419451,0.428804,1,0,,38.991458,-76.936651,-12.752000,,,
2026-09-11T17:38:04.348,10.292482,1.817424,4.782559,16.827996,0.000000,48.972660,-16.848392,1.739411,-0.231714,-0.487819,-1.400722,2.539101,-3.231340,-0.130013,-0.034599,-0.486336,-1.340765,-6.401977,9.934333,-1.499735,0.033696,1,0,,38.991458,-76.936651,-12.752000,,,
2026-09-11T17:38:04.381,10.325905,1.788929,4.842152,16.564154,0.000000,47.293125,-16.270570,1.717281,-0.234769,-0.494249,-1.417134,2.540720,-3.289604,0.024425,0.001795,-0.492766,2.030859,0.764134,9.358879,-1.361436,0.107278,1,0,,38.991458,-76.936651,-12.752000,,,
2026-09-11T17:38:04.414,10.359326,1.750705,4.900319,16.210227,0.000000,44.821201,-15.420138,1.687683,-0.211310,-0.444863,-1.432827,2.541616,-3.346982,0.050778,0.042341,-0.443379,0.731576,-0.239773,10.708764,-1.310301,0.108657,1,0,,38.991458,-76.936651,-12.752000,,,
2026-09-11T17:38:04.448,10.392770,1.751245,4.959523,16.215233,0.000000,41.322742,-14.216540,1.697612,-0.187789,-0.395345,-1.446876,2.542390,-3.403979,0.173519,-0.040293,-0.393862,1.161107,1.941324,9.076839,-1.232960,0.246267,1,0,,38.991458,-76.936651,-12.752000,,,
2026-09-11T17:38:04.481,10.426190,1.770968,5.017942,16.397848,0.000000,38.915363,-13.388313,1.722838,-0.182086,-0.383339,-1.459888,2.542945,-3.461466,0.166580,-0.027364,-0.381855,-0.655771,0.122289,4.616677,-1.272989,0.263711,1,0,,38.991458,-76.936651,-12.752000,,,
2026-09-11T17:38:04.515,10.459606,1.790854,5.077128,16.581985,0.000000,38.556247,-13.264764,1.743075,-0.211145,-0.444515,-1.473720,2.542419,-3.519738,0.059394,-0.027396,-0.443032,0.856905,-0.642238,8.548457,-1.215497,0.238841,1,0,,38.991458,-76.936651,-12.752000,,,
2026-09-11T17:38:04.552,10.493020,1.761815,5.136915,16.313100,0.000000,38.719669,-13.320987,1.714412,-0.196838,-0.414396,-1.488070,2.540820,-3.577881,0.054890,-0.065397,-0.412913,-0.872792,0.542896,3.519803,-1.275138,0.286852,1,0,,38.991458,-76.936651,-12.752000,,,
2026-09-11T17:38:04.582,10.526445,1.771201,5.196741,16.400009,0.000000,39.073978,-13.442882,1.722674,-0.220533,-0.464280,-1.502755,2.538189,-3.635682,-0.074485,-0.001841,-0.462796,-2.726053,0.651848,4.430743,-1.457564,0.347200,1,0,,38.991458,-76.936651,-12.752000,,,
2026-09-11T17:38:04.614,10.559863,1.781387,5.255610,16.494319,0.000000,39.154315,-13.470521,1.732380,-0.200021,-0.421096,-1.517548,2.534673,-3.693732,-0.091014,-0.097722,-0.419613,-0.566922,-1.508851,9.492249,-1.502574,0.262319,1,0,,38.991458,-76.936651,-12.752000,,,
2026-09-11T17:38:04.649,10.593398,1.791495,5.316109,16.587914,0.000000,38.746448,-13.330200,1.743227,-0.209943,-0.441984,-1.532020,2.530486,-3.752262,-0.181806,-0.107965,-0.440501,2.904239,1.668111,13.439916,-1.328728,0.387309,1,0,,38.991458,-76.936651,-12.752000,,,
2026-09-11T17:38:04.682,10.626823,1.801450,5.376241,16.680088,0.000000,38.017230,-13.079322,1.754716,-0.167746,-0.353149,-1.545309,2.526054,-3.810897,-0.052548,-0.071704,-0.351666,1.708907,4.033867,11.922925,-1.236225,0.654095,1,0,,38.991458,-76.936651,-12.752000,,,
2026-09-11T17:38:04.715,10.660243,1.801855,5.435735,16.683841,0.000000,36.129642,-12.429923,1.759619,-0.171207,-0.360437,-1.557233,2.521537,-3.869720,0.018895,-0.117374,-0.358953,1.274276,-3.706325,9.832147,-1.169824,0.417195,1,0,,38.991458,-76.936651,-12.752000,,,
2026-09-11T17:38:04.748,10.693659,1.792829,5.495570,16.600268,0.000000,33.191486,-11.419089,1.757340,-0.155598,-0.327576,-1.568728,2.516537,-3.928522,0.056126,-0.038238,-0.326092,1.366164,2.731839,7.142085,-1.096249,0.596350,1,0,,38.991458,-76.936651,-12.752000,,,
2026-09-11T17:38:04.782,10.727077,1.793128,5.555375,16.603039,0.000000,29.544712,-10.164465,1.764986,-0.136698,-0.287786,-1.579010,2.511471,-3.987363,0.015788,0.001363,-0.286303,-3.002012,-3.370055,4.962557,-1.307179,0.373722,1,0,,38.991458,-76.936651,-12.752000,,,
2026-09-11T17:38:04.817,10.760492,1.793675,5.615220,16.608099,0.000000,24.593311,-8.461001,1.774153,-0.134552,-0.283267,-1.588551,2.506171,-4.046429,0.133496,-0.041253,-0.281784,-0.282039,2.184726,10.605304,-1.342117,0.513159,1,0,,38.991458,-76.936651,-12.752000,,,
2026-09-11T17:38:04.849,10.793912,1.793958,5.676025,16.610720,0.000000,24.694934,-8.495964,1.774271,-0.127747,-0.268942,-1.597779,2.500463,-4.105610,0.018088,0.037132,-0.267458,-3.437231,-7.364990,3.644347,-1.582387,0.030645,1,0,,38.991458,-76.936651,-12.752000,,,
2026-09-11T17:38:04.883,10.827337,1.843016,5.737901,17.064967,0.000000,25.724903,-8.850311,1.821073,-0.160216,-0.337296,-1.607910,2.493724,-4.165508,0.020101,-0.158171,-0.335812,-1.742151,3.480086,11.718653,-1.711252,0.265053,1,0,,38.991458,-76.936651,-12.752000,,,
2026-09-11T17:38:04.916,10.860755,1.853293,5.799321,17.160123,0.000000,27.451816,-9.444432,1.828172,-0.159746,-0.336307,-1.619166,2.485777,-4.226198,-0.064687,-0.123952,-0.334823,-1.147770,1.770591,4.084960,-1.802077,0.386131,1,0,,38.991458,-76.936651,-12.752000,,,
2026-09-11T17:38:04.949,10.894171,1.853167,5.861210,17.158954,0.000000,29.452701,-10.132810,1.824262,-0.165848,-0.349153,-1.630618,2.477045,-4.286838,-0.074922,-0.158168,-0.347669,-1.107073,7.785696,1.461093,-1.887634,0.897165,1,0,,38.991458,-76.936651,-12.752000,,,
2026-09-11T17:38:04.983,10.927589,1.853349,5.922978,17.160640,0.000000,33.523136,-11.533189,1.815928,-0.176052,-0.370636,-1.642645,2.467345,-4.347152,-0.114698,0.034703,-0.369152,-0.686564,-1.538958,11.846531,-1.942555,0.800531,1,0,,38.991458,-76.936651,-12.752000,,,
2026-09-11T17:38:05.016,10.961006,1.882697,5.985703,17.432382,0.000000,35.907169,-12.353384,1.839107,-0.198834,-0.418597,-1.655832,2.456313,-4.407539,-0.141345,-0.027436,-0.417114,0.910547,-0.954874,5.651572,-1.890903,0.749112,1,0,,38.991458,-76.936651,-12.752000,,,
2026-09-11T17:38:05.051,10.994423,1.873256,6.048348,17.344959,0.000000,38.208118,-13.144995,1.824172,-0.202787,-0.426920,-1.669960,2.444003,-4.467870,-0.127762,-0.025363,-0.425437,-1.093147,-7.264080,12.572322,-1.964746,0.289989,1,1,11.004264,38.991465,-76.936634,-12.785000,2.517565,4.226519,4.011630
2026-09-11T17:38:05.084,11.027841,1.912411,6.112866,17.707513,0.000000,40.971179,-14.095589,1.854830,-0.224773,-0.473207,-1.685000,2.430351,-4.528227,-0.151497,-0.011420,-0.471723,0.998317,-1.303598,8.012327,-1.899916,0.228645,1,0,,38.991465,-76.936634,-12.785000,,,
2026-09-11T17:38:05.117,11.061261,1.941902,6.177968,17.980572,0.000000,46.594806,-16.030323,1.866392,-0.249159,-0.524545,-1.701672,2.414890,-4.588968,-0.181154,0.038956,-0.523061,1.126196,-5.422391,2.357028,-1.820800,-0.092270,1,0,,38.991465,-76.936634,-12.785000,,,
2026-09-11T17:38:05.150,11.094676,1.971565,6.243991,18.255230,0.000000,48.204990,-16.584285,1.889549,-0.266584,-0.561230,-1.719813,2.397601,-4.649901,-0.074836,0.030265,-0.559746,1.264862,4.648646,8.487852,-1.727123,0.248021,1,0,,38.991465,-76.936634,-12.785000,,,
2026-09-11T17:38:05.183,11.128094,2.001370,6.310418,18.531206,0.000000,48.340259,-16.630823,1.917650,-0.283013,-0.595817,-1.739146,2.378478,-4.711258,0.022076,0.135027,-0.594334,-0.328229,-2.292795,12.472392,-1.734438,0.140220,1,0,,38.991465,-76.936634,-12.785000,,,
2026-09-11T17:38:05.216,11.161510,1.962774,6.376318,18.173837,0.000000,48.313480,-16.621610,1.880759,-0.277165,-0.583505,-1.758850,2.358024,-4.772057,0.021037,-0.166223,-0.582022,1.060491,2.315056,6.435124,-1.649110,0.329203,1,0,,38.991465,-76.936634,-12.785000,,,
2026-09-11T17:38:05.250,11.194925,1.963220,6.441769,18.177961,0.000000,48.138385,-16.561371,1.881776,-0.273497,-0.575783,-1.778219,2.336655,-4.831884,0.161223,-0.205159,-0.574300,0.660772,0.662439,15.895697,-1.587979,0.408132,1,0,,38.991465,-76.936634,-12.785000,,,
2026-09-11T17:38:05.284,11.228339,1.924893,6.505993,17.823084,0.000000,48.049808,-16.530897,1.845330,-0.266608,-0.561280,-1.797216,2.314447,-4.890752,0.091632,0.014976,-0.559796,0.979880,3.106551,7.063926,-1.506571,0.641479,1,0,,38.991465,-76.936634,-12.785000,,,
2026-09-11T17:38:05.317,11.261753,1.905351,6.569431,17.642139,0.000000,48.380771,-16.644761,1.825515,-0.256660,-0.540337,-1.815620,2.291633,-4.948345,0.007941,-0.060684,-0.538854,2.214440,-0.212902,11.591951,-1.344784,0.653949,1,0,,38.991465,-76.936634,-12.785000,,,
2026-09-11T17:38:05.350,11.295172,1.895830,6.632743,17.553981,0.000000,48.708988,-16.757679,1.815319,-0.259082,-0.545436,-1.833763,2.268013,-5.005064,-0.179720,-0.081444,-0.543953,-1.291830,-4.411914,15.155393,-1.406606,0.394400,1,0,,38.991465,-76.936634,-12.785000,,,
2026-09-11T17:38:05.383,11.328589,1.847820,6.694209,17.109448,0.000000,49.056430,-16.877212,1.768233,-0.277663,-0.584555,-1.852644,2.243275,-5.060316,0.015697,-0.106959,-0.583071,-0.201036,4.263931,6.123763,-1.392571,0.702789,1,0,,38.991465,-76.936634,-12.785000,,,
2026-09-11T17:38:05.417,11.362006,1.848321,6.755897,17.114086,0.000000,49.012485,-16.862093,1.768854,-0.255618,-0.538143,-1.871402,2.217771,-5.114368,-0.123268,-0.097767,-0.536660,-0.871909,0.823759,6.767373,-1.416320,0.779540,1,0,,38.991465,-76.936634,-12.785000,,,
2026-09-11T17:38:05.450,11.395416,1.800005,6.816868,16.666709,0.000000,48.825717,-16.797839,1.723199,-0.260063,-0.547501,-1.889538,2.191796,-5.167304,-0.122344,0.037165,-0.546017,-2.449603,1.996634,9.374569,-1.539889,0.930908,1,0,,38.991465,-76.936634,-12.785000,,,
2026-09-11T17:38:05.485,11.428834,1.790579,6.876528,16.579432,0.000000,48.711734,-16.758624,1.714529,-0.236537,-0.497973,-1.907007,2.165465,-5.219024,-0.213066,0.061330,-0.496490,-0.055310,-1.163657,7.192982,-1.506940,0.869943,1,0,,38.991465,-76.936634,-12.785000,,,
2026-09-11T17:38:05.518,11.462249,1.771466,6.935589,16.402464,0.000000,48.277088,-16.609090,1.697556,-0.209681,-0.441433,-1.922702,2.139219,-5.270179,-0.110928,-0.083282,-0.439950,1.031169,-6.616253,7.243192,-1.403312,0.449529,1,0,,38.991465,-76.936634,-12.785000,,,
2026-09-11T17:38:05.551,11.495663,1.791612,6.995465,16.589000,0.000000,47.914539,-16.484360,1.717972,-0.231171,-0.486677,-1.938208,2.112241,-5.320993,-0.159902,-0.059751,-0.485193,-0.247912,0.875145,9.513824,-1.381941,0.524883,1,0,,38.991465,-76.936634,-12.785000,,,
2026-09-11T17:38:05.584,11.529085,1.763016,7.054722,16.324219,0.000000,47.677646,-16.402860,1.691261,-0.228229,-0.480483,-1.954370,2.084210,-5.371180,-0.181109,-0.041540,-0.479000,-3.182454,-8.314470,8.511584,-1.550345,0.002429,1,0,,38.991465,-76.936634,-12.785000,,,
2026-09-11T17:38:05.617,11.562503,1.753828,7.113303,16.239145,0.000000,47.666660,-16.399080,1.682479,-0.232255,-0.488958,-1.970568,2.055581,-5.420345,-0.085793,0.136857,-0.487474,-0.136999,-3.892456,5.331091,-1.520656,-0.226954,1,0,,38.991465,-76.936634,-12.785000,,,
2026-09-11T17:38:05.650,11.595909,1.724987,7.170590,15.972099,0.000000,47.687259,-16.406167,1.654751,-0.228541,-0.481138,-1.986772,2.026410,-5.468461,0.009035,-0.014207,-0.479655,-0.106696,-1.236619,10.046423,-1.488291,-0.283471,1,0,,38.991465,-76.936634,-12.785000,,,
2026-09-11T17:38:05.685,11.629331,1.715692,7.228402,15.886033,0.000000,48.210483,-16.586175,1.644304,-0.218083,-0.459122,-2.002484,1.996936,-5.515644,-0.031041,0.016228,-0.457638,1.197000,-3.094194,11.748367,-1.372576,-0.462352,1,0,,38.991465,-76.936634,-12.785000,,,
2026-09-11T17:38:05.718,11.662750,1.686727,7.285026,15.617845,0.000000,48.577838,-16.712559,1.615479,-0.241869,-0.509198,-2.018665,1.966797,-5.561656,-0.062720,0.008617,-0.507714,-0.596539,1.762941,3.036923,-1.376048,-0.320323,1,0,,38.991465,-76.936634,-12.785000,,,
2026-09-11T17:38:05.750,11.696157,1.676805,7.341341,15.525971,0.000000,49.171787,-16.916899,1.604246,-0.253555,-0.533801,-2.036086,1.935662,-5.606276,-0.085653,0.004427,-0.532317,-0.305967,-0.435906,15.652689,-1.365440,-0.320074,1,0,,38.991465,-76.936634,-12.785000,,,
2026-09-11T17:38:05.783,11.729563,1.638456,7.395824,15.170892,0.000000,48.898502,-16.822879,1.568337,-0.240869,-0.507093,-2.053473,1.904132,-5.649660,-0.174968,0.062101,-0.505609,-2.753903,-2.851185,4.376512,-1.517191,-0.480124,1,0,,38.991465,-76.936634,-12.785000,,,
2026-09-11T17:38:05.818,11.762971,1.590233,7.449569,14.724383,0.000000,48.781085,-16.782484,1.522502,-0.223053,-0.469585,-2.069787,1.872967,-5.691544,-0.075820,0.109383,-0.468102,-3.284737,-1.710280,8.113630,-1.703709,-0.569746,1,0,,38.991465,-76.936634,-12.785000,,,
2026-09-11T17:38:05.851,11.796379,1.600221,7.502985,14.816864,0.000000,48.436389,-16.663895,1.533017,-0.202271,-0.425833,-2.084744,1.841994,-5.732730,-0.059471,0.070359,-0.424350,-1.851986,-4.445551,11.510065,-1.799596,-0.839414,1,0,,38.991465,-76.936634,-12.785000,,,
2026-09-11T17:38:05.885,11.829816,1.542573,7.555510,14.283085,0.000000,48.270221,-16.606727,1.478231,-0.187049,-0.393786,-2.098447,1.811303,-5.773165,-0.054203,0.117127,-0.392303,1.211612,-0.674501,8.323002,-1.702131,-0.866630,1,0,,38.991465,-76.936634,-12.785000,,,
2026-09-11T17:38:05.918,11.863222,1.533405,7.606617,14.198190,0.000000,48.002429,-16.514597,1.470148,-0.217060,-0.456968,-2.112657,1.780402,-5.812092,0.006517,0.014647,-0.455484,-2.888353,-2.570029,8.358698,-1.878610,-1.010368,1,0,,38.991465,-76.936634,-12.785000,,,
2026-09-11T17:38:05.950,11.896628,1.504686,7.656308,13.932275,0.000000,47.717472,-16.416561,1.443343,-0.182497,-0.384204,-2.126707,1.749320,-5.850131,-0.002520,-0.099433,-0.382720,-0.759427,-1.483060,5.659124,-1.921497,-1.089764,1,0,,38.991465,-76.936634,-12.785000,,,
2026-09-11T17:38:05.986,11.930034,1.505293,7.706766,13.937902,0.000000,47.425647,-16.316163,1.444669,-0.192043,-0.404301,-2.139877,1.718304,-5.887598,-0.014634,-0.107981,-0.402818,-2.500107,-1.263489,2.582483,-2.081125,-1.152158,1,0,,38.991465,-76.936634,-12.785000,,,
2026-09-11T17:38:06.019,11.963447,1.554438,7.759981,14.392940,0.000000,47.565036,-16.364118,1.491468,-0.213462,-0.449394,-2.154140,1.685893,-5.925034,0.014285,-0.048780,-0.447911,0.021182,3.815473,9.986700,-2.081083,-0.879589,1,0,,38.991465,-76.936634,-12.785000,,,
2026-09-11T17:38:06.051,11.996875,1.574439,7.811643,14.578139,0.000000,48.261981,-16.603893,1.508790,-0.240250,-0.505790,-2.170105,1.651644,-5.962433,-0.023571,-0.011063,-0.504307,2.320842,-1.545038,14.284170,-1.937376,-0.950997,1,0,,38.991465,-76.936634,-12.785000,,,
2026-09-11T17:38:06.084,12.030280,1.584271,7.863972,14.669172,0.000000,48.402057,-16.652084,1.517830,-0.212761,-0.447919,-2.186034,1.616583,-5.999629,0.027035,0.089661,-0.446435,1.226027,-2.699182,5.363159,-1.868630,-1.101624,1,0,,38.991465,-76.936634,-12.785000,,,
2026-09-11T17:38:06.119,12.063684,1.603995,7.917721,14.851804,0.000000,48.397251,-16.650430,1.536741,-0.240803,-0.506953,-2.201982,1.580656,-6.036629,-0.007776,0.058540,-0.505470,2.121963,-1.450698,12.707948,-1.745121,-1.163381,1,0,,38.991465,-76.936634,-12.785000,,,
2026-09-11T17:38:06.151,12.097102,1.642884,7.973285,15.211886,0.000000,48.583332,-16.714449,1.573472,-0.234496,-0.493676,-2.218702,1.543265,-6.073583,0.033949,0.096387,-0.492192,1.676643,-2.214047,10.236378,-1.655482,-1.274029,1,0,,38.991465,-76.936634,-12.785000,,,
2026-09-11T17:38:06.184,12.130507,1.691412,8.029304,15.661223,0.000000,49.740329,-17.112499,1.616531,-0.240139,-0.505555,-2.235392,1.504470,-6.110955,-0.086558,-0.109733,-0.504072,3.487343,-0.024615,10.037106,-1.450471,-1.239142,1,0,,38.991465,-76.936634,-12.785000,,,
2026-09-11T17:38:06.219,12.163916,1.711315,8.086580,15.845505,0.000000,52.183414,-17.953009,1.627990,-0.231985,-0.488390,-2.251995,1.464523,-6.148422,-0.063627,0.030647,-0.486907,1.581224,-4.785547,7.661740,-1.369874,-1.514107,1,0,,38.991465,-76.936634,-12.785000,,,
2026-09-11T17:38:06.253,12.197334,1.740506,8.145196,16.115798,0.000000,54.465824,-18.738242,1.648253,-0.283710,-0.597285,-2.270136,1.423026,-6.185137,-0.094755,0.053269,-0.595801,-0.548976,-3.157545,8.149326,-1.421339,-1.668469,1,0,,38.991465,-76.936634,-12.785000,,,
2026-09-11T17:38:06.285,12.230807,1.769756,8.204568,16.386625,0.000000,58.682514,-20.188938,1.661021,-0.308429,-0.649325,-2.290999,1.379421,-6.220682,-0.100285,0.010026,-0.647841,-1.631729,2.294266,11.489373,-1.534119,-1.461901,1,1,12.215974,38.991467,-76.936615,-12.796000,4.161947,4.357914,2.780888
2026-09-11T17:38:06.319,12.264213,1.770315,8.263270,16.391809,0.000000,62.634159,-21.548449,1.646583,-0.305607,-0.643382,-2.312591,1.334905,-6.254967,-0.088696,-0.085753,-0.641899,0.062272,-1.664483,8.981126,-1.531086,-1.515359,1,0,,38.991467,-76.936615,-12.796000,,,
2026-09-11T17:38:06.352,12.297623,1.790173,8.322139,16.575674,0.000000,62.968555,-21.663494,1.663729,-0.342809,-0.721703,-2.335395,1.289185,-6.287890,-0.006968,-0.080600,-0.720219,-0.066979,-1.290555,8.728605,-1.532983,-1.534893,1,0,,38.991467,-76.936615,-12.796000,,,
2026-09-11T17:38:06.387,12.331043,1.761486,8.381715,16.310057,0.000000,62.248950,-21.415923,1.639863,-0.312992,-0.658931,-2.358466,1.242696,-6.319613,-0.003101,0.048326,-0.657448,1.498456,4.390241,6.906922,-1.430190,-1.194325,1,0,,38.991467,-76.936615,-12.796000,,,
2026-09-11T17:38:06.419,12.364455,1.771908,8.440981,16.406551,0.000000,59.840198,-20.587224,1.658750,-0.288480,-0.607327,-2.379620,1.196216,-6.350878,0.103346,-0.146602,-0.605844,-2.921205,-0.547407,6.942618,-1.606299,-1.181839,1,0,,38.991467,-76.936615,-12.796000,,,
2026-09-11T17:38:06.452,12.397861,1.704581,8.497647,15.783157,0.000000,53.937793,-18.556580,1.615960,-0.258441,-0.544086,-2.398852,1.150044,-6.381594,0.096555,-0.143802,-0.542603,-0.113267,1.372637,7.138163,-1.594699,-1.053556,1,0,,38.991467,-76.936615,-12.796000,,,
2026-09-11T17:38:06.485,12.431270,1.685395,8.553904,15.605511,0.000000,48.006549,-16.516015,1.615856,-0.222373,-0.468153,-2.415760,1.104586,-6.411807,0.035717,-0.056274,-0.466670,0.358727,-7.261334,3.380254,-1.551302,-1.493275,1,0,,38.991467,-76.936615,-12.796000,,,
2026-09-11T17:38:06.521,12.464674,1.627172,8.608043,15.066411,0.000000,47.504611,-16.343330,1.561423,-0.203855,-0.429168,-2.430748,1.059951,-6.441379,0.076422,-0.132557,-0.427684,0.065508,-1.562396,14.281032,-1.521078,-1.564958,1,0,,38.991467,-76.936615,-12.796000,,,
2026-09-11T17:38:06.554,12.498093,1.617470,8.663075,14.976571,0.000000,48.029209,-16.523810,1.550671,-0.214735,-0.452075,-2.445472,1.015774,-6.469682,0.025555,0.050244,-0.450591,-1.266333,2.906985,14.962791,-1.576522,-1.344639,1,0,,38.991467,-76.936615,-12.796000,,,
2026-09-11T17:38:06.586,12.531502,1.578031,8.714734,14.611396,0.000000,47.777210,-16.437113,1.513538,-0.182344,-0.383882,-2.459437,0.972052,-6.497116,0.007022,0.041855,-0.382398,2.079304,-3.185298,5.335798,-1.415721,-1.528746,1,0,,38.991467,-76.936615,-12.796000,,,
2026-09-11T17:38:06.619,12.564904,1.587970,8.767432,14.703422,0.000000,47.075458,-16.195685,1.524951,-0.194307,-0.409066,-2.472680,0.928518,-6.523937,-0.024033,-0.072618,-0.407583,0.055604,-1.167188,13.386960,-1.385822,-1.577464,1,0,,38.991467,-76.936615,-12.796000,,,
2026-09-11T17:38:06.654,12.598306,1.578528,8.820036,14.615998,0.000000,46.727329,-16.075916,1.516800,-0.187297,-0.394309,-2.486097,0.884538,-6.550146,-0.084951,-0.069941,-0.392826,1.401763,-2.184824,6.189663,-1.270722,-1.693125,1,0,,38.991467,-76.936615,-12.796000,,,
2026-09-11T17:38:06.688,12.631724,1.539989,8.871964,14.259162,0.000000,47.273899,-16.263956,1.478362,-0.207191,-0.436192,-2.499974,0.840678,-6.575124,-0.105315,-0.114622,-0.434708,-0.354314,4.751322,6.481509,-1.273525,-1.355679,1,0,,38.991467,-76.936615,-12.796000,,,
2026-09-11T17:38:06.719,12.665125,1.569459,8.923940,14.532026,0.000000,46.969715,-16.159305,1.507452,-0.189192,-0.398299,-2.513911,0.796594,-6.599356,-0.169660,-0.267940,-0.396816,-0.355197,-1.435399,16.803891,-1.278107,-1.425178,1,0,,38.991467,-76.936615,-12.796000,,,
2026-09-11T17:38:06.754,12.698531,1.550443,8.975305,14.355954,0.000000,47.238880,-16.251908,1.488488,-0.176178,-0.370901,-2.526758,0.752353,-6.623522,-0.042269,-0.140896,-0.369418,-0.269487,-3.418892,11.323837,-1.281697,-1.625348,1,0,,38.991467,-76.936615,-12.796000,,,
2026-09-11T17:38:06.788,12.731949,1.502648,9.025837,13.913404,0.000000,47.030826,-16.180330,1.443127,-0.214950,-0.452527,-2.540517,0.708421,-6.646139,-0.116014,-0.094080,-0.451043,-1.070886,2.107057,11.193212,-1.342023,-1.459240,1,0,,38.991467,-76.936615,-12.796000,,,
2026-09-11T17:38:06.820,12.765359,1.532292,9.076526,14.187893,0.000000,46.069522,-15.849606,1.474038,-0.155316,-0.326981,-2.553539,0.664581,-6.668312,-0.065596,-0.211660,-0.325498,-2.699869,-3.101647,10.295414,-1.508653,-1.643072,1,0,,38.991467,-76.936615,-12.796000,,,
2026-09-11T17:38:06.854,12.798769,1.513409,9.127863,14.013046,0.000000,45.146671,-15.532111,1.458140,-0.194281,-0.409012,-2.565833,0.620456,-6.690353,0.035807,-0.002464,-0.407529,2.197866,-4.261088,7.297619,-1.355753,-1.892458,1,0,,38.991467,-76.936615,-12.796000,,,
2026-09-11T17:38:06.886,12.832174,1.494595,9.177306,13.838842,0.000000,45.264087,-15.572507,1.439731,-0.174115,-0.366558,-2.578787,0.576371,-6.711263,-0.016884,0.068958,-0.365075,0.747561,-5.846136,7.807270,-1.294385,-2.245984,1,0,,38.991467,-76.936615,-12.796000,,,
2026-09-11T17:38:06.920,12.865577,1.534085,9.228594,14.204495,0.000000,45.708347,-15.725349,1.476668,-0.186478,-0.392585,-2.591466,0.531830,-6.731872,0.048934,0.057202,-0.391102,1.209258,1.094716,8.903948,-1.203122,-2.143319,1,0,,38.991467,-76.936615,-12.796000,,,
2026-09-11T17:38:06.954,12.898992,1.525060,9.279727,14.120921,0.000000,47.553363,-16.360102,1.463310,-0.191395,-0.402937,-2.604757,0.486526,-6.751869,0.056214,0.073268,-0.401454,-2.015757,5.041010,9.333479,-1.319442,-1.785791,1,0,,38.991467,-76.936615,-12.796000,,,
2026-09-11T17:38:06.987,12.932402,1.525240,9.329852,14.122590,0.000000,48.495441,-16.684211,1.461030,-0.212211,-0.446761,-2.618952,0.440966,-6.770735,0.041602,0.017142,-0.445277,1.875130,1.580930,5.613621,-1.179427,-1.652011,1,0,,38.991467,-76.936615,-12.796000,,,
2026-09-11T17:38:07.020,12.965804,1.554340,9.381334,14.392040,0.000000,51.699329,-17.786466,1.480045,-0.239251,-0.503686,-2.634825,0.394504,-6.788347,-0.058636,0.084833,-0.502203,-0.203194,-6.270470,7.453937,-1.177660,-2.021542,1,0,,38.991467,-76.936615,-12.796000,,,
2026-09-11T17:38:07.054,12.999216,1.574051,9.434236,14.574544,0.000000,60.265232,-20.733451,1.472111,-0.275905,-0.580854,-2.652943,0.347067,-6.804328,-0.204272,0.057829,-0.579370,2.039391,0.529657,16.842922,-1.031013,-1.940073,1,1,13.002711,38.991461,-76.936599,-12.712000,5.537404,3.716320,4.297954
2026-09-11T17:38:07.089,13.032635,1.584251,9.486605,14.668989,0.000000,67.150913,-23.102378,1.457202,-0.307195,-0.646727,-2.673456,0.299138,-6.818211,-0.326733,0.004601,-0.645244,1.418238,5.873987,9.034573,-0.923524,-1.507996,1,0,,38.991461,-76.936599,-12.712000,,,
2026-09-11T17:38:07.121,13.066046,1.584712,9.539204,14.673257,0.000000,73.521610,-25.294132,1.432780,-0.339909,-0.715599,-2.696214,0.251051,-6.829802,-0.433774,0.144182,-0.714115,1.484727,-4.105162,8.370074,-0.815628,-1.721061,1,0,,38.991461,-76.936599,-12.712000,,,
2026-09-11T17:38:07.153,13.099452,1.546158,9.590567,14.316273,0.000000,73.301883,-25.218538,1.398792,-0.300552,-0.632741,-2.718735,0.203642,-6.839998,-0.266128,0.209540,-0.631258,-0.619192,1.104817,7.237896,-0.847296,-1.603781,1,0,,38.991461,-76.936599,-12.712000,,,
2026-09-11T17:38:07.189,13.132866,1.508003,9.641375,13.962989,0.000000,70.459857,-24.240777,1.375039,-0.285104,-0.600219,-2.739334,0.157266,-6.849620,-0.192141,0.055382,-0.598735,0.073942,-5.234201,11.935674,-0.837220,-1.901783,1,0,,38.991461,-76.936599,-12.712000,,,
2026-09-11T17:38:07.224,13.166277,1.459851,9.690730,13.517135,0.000000,62.601886,-21.537346,1.357922,-0.268463,-0.565184,-2.758803,0.111546,-6.858543,0.015391,0.139868,-0.563701,-2.169427,-2.705851,11.332369,-0.976168,-2.036620,1,0,,38.991461,-76.936599,-12.712000,,,
2026-09-11T17:38:07.255,13.199697,1.411939,9.738226,13.073514,0.000000,55.849414,-19.214248,1.333287,-0.229787,-0.483761,-2.776331,0.066641,-6.867229,0.231964,0.111920,-0.482278,-2.079696,5.896935,9.492641,-1.108229,-1.621232,1,0,,38.991461,-76.936599,-12.712000,,,
2026-09-11T17:38:07.287,13.233108,1.383230,9.784409,12.807689,0.000000,46.947742,-16.151746,1.328632,-0.196620,-0.413937,-2.791327,0.022491,-6.876130,0.429517,0.034192,-0.412453,0.154749,-0.274586,10.312281,-1.097185,-1.615964,1,0,,38.991461,-76.936599,-12.712000,,,
2026-09-11T17:38:07.320,13.266511,1.374145,9.830315,12.723562,0.000000,46.286502,-15.924255,1.321412,-0.186863,-0.393395,-2.804811,-0.021340,-6.885008,0.357599,0.093325,-0.391911,1.248779,2.680942,9.441352,-1.020764,-1.421525,1,0,,38.991461,-76.936599,-12.712000,,,
2026-09-11T17:38:07.354,13.299920,1.355603,9.875904,12.551880,0.000000,46.563907,-16.019693,1.302961,-0.176109,-0.370756,-2.817576,-0.064774,-6.893497,0.339429,0.135035,-0.369273,1.141494,-2.851872,9.571389,-0.958278,-1.589541,1,0,,38.991461,-76.936599,-12.712000,,,
2026-09-11T17:38:07.388,13.333448,1.385145,9.922899,12.825417,0.000000,47.721591,-16.417979,1.328666,-0.194385,-0.409233,-2.830652,-0.108623,-6.901365,0.221687,-0.003842,-0.407749,1.273295,0.027851,13.565245,-0.893816,-1.565377,1,0,,38.991461,-76.936599,-12.712000,,,
2026-09-11T17:38:07.422,13.366857,1.424471,9.971219,13.189546,0.000000,51.559940,-17.738511,1.356747,-0.220461,-0.464128,-2.845240,-0.153497,-6.908160,0.215260,-0.067741,-0.462644,2.053709,0.900545,7.738722,-0.783630,-1.479544,1,0,,38.991461,-76.936599,-12.712000,,,
2026-09-11T17:38:07.456,13.400274,1.502772,10.021837,13.914559,0.000000,60.235706,-20.723293,1.405543,-0.273494,-0.575776,-2.862616,-0.200090,-6.913331,0.099372,-0.073048,-0.574293,0.995179,-1.269667,10.388577,-0.744674,-1.523459,1,0,,38.991461,-76.936599,-12.712000,,,
2026-09-11T17:38:07.488,13.433695,1.531937,10.073301,14.184598,0.000000,69.660602,-23.965803,1.399865,-0.309891,-0.652403,-2.883139,-0.247867,-6.916378,0.063008,-0.039789,-0.650919,0.916628,-1.081281,4.931274,-0.709626,-1.547969,1,0,,38.991461,-76.936599,-12.712000,,,
2026-09-11T17:38:07.521,13.467094,1.599891,10.126555,14.813803,0.000000,77.719074,-26.738213,1.428817,-0.346495,-0.729463,-2.906216,-0.296342,-6.917287,-0.064990,-0.015992,-0.727979,3.714759,-4.821440,11.566159,-0.491844,-1.805740,1,0,,38.991461,-76.936599,-12.712000,,,
2026-09-11T17:38:07.556,13.500510,1.658684,10.183156,15.358183,0.000000,83.104434,-28.590975,1.456421,-0.398714,-0.839397,-2.932429,-0.346094,-6.915761,0.067130,0.061406,-0.837913,0.576337,-4.464968,2.363501,-0.476570,-2.026039,1,0,,38.991461,-76.936599,-12.712000,,,
2026-09-11T17:38:07.588,13.533929,1.707574,10.240636,15.810874,0.000000,85.516620,-29.420856,1.487357,-0.419139,-0.882397,-2.961199,-0.396989,-6.911867,-0.058343,-0.093060,-0.880913,-0.096497,-3.243353,8.287012,-0.500743,-2.159045,1,0,,38.991461,-76.936599,-12.712000,,,
2026-09-11T17:38:07.621,13.567329,1.736824,10.298475,16.081702,0.000000,85.491901,-29.412351,1.512961,-0.438072,-0.922257,-2.991337,-0.448758,-6.905986,-0.085235,-0.051519,-0.920773,0.130330,1.673407,7.012049,-0.505785,-1.967180,1,0,,38.991461,-76.936599,-12.712000,,,
2026-09-11T17:38:07.655,13.600734,1.747006,10.357007,16.175977,0.000000,85.255008,-29.330851,1.523049,-0.424038,-0.892711,-3.021651,-0.500942,-6.898546,-0.200400,0.001866,-0.891227,0.303025,1.403920,8.286914,-0.494762,-1.797145,1,0,,38.991461,-76.936599,-12.712000,,,
2026-09-11T17:38:07.689,13.634143,1.737558,10.415101,16.088499,0.000000,85.381351,-29.374318,1.514167,-0.403901,-0.850318,-3.050767,-0.552849,-6.890133,-0.090032,0.030474,-0.848834,1.633396,3.185592,4.308552,-0.392630,-1.518368,1,0,,38.991461,-76.936599,-12.712000,,,
2026-09-11T17:38:07.723,13.667553,1.728629,10.473662,16.005824,0.000000,85.404010,-29.382114,1.506270,-0.409216,-0.861508,-3.079363,-0.604189,-6.880450,-0.289432,-0.017602,-0.860025,-1.215927,0.247912,10.143312,-0.473181,-1.432058,1,0,,38.991461,-76.936599,-12.712000,,,
2026-09-11T17:38:07.755,13.700972,1.661366,10.529705,15.383018,0.000000,85.426670,-29.389909,1.447549,-0.399627,-0.841321,-3.107816,-0.654134,-6.869334,-0.222756,-0.018071,-0.839837,-2.429990,0.605168,12.222715,-0.630857,-1.328724,1,0,,38.991461,-76.936599,-12.712000,,,
2026-09-11T17:38:07.788,13.734379,1.623441,10.583385,15.031862,0.000000,79.272266,-27.272569,1.442974,-0.352603,-0.742322,-3.134269,-0.702671,-6.857766,-0.118067,-0.001866,-0.740839,-4.416229,8.005169,6.336959,-0.912350,-0.757203,1,0,,38.991461,-76.936599,-12.712000,,,
2026-09-11T17:38:07.822,13.767779,1.526877,10.633674,14.137751,0.000000,70.663791,-24.310937,1.391481,-0.287376,-0.605003,-3.156769,-0.749972,-6.846903,0.054293,-0.005746,-0.603519,-3.758889,6.779631,11.943519,-1.144762,-0.286121,1,0,,38.991461,-76.936599,-12.712000,,,
2026-09-11T17:38:07.857,13.801199,1.440484,10.682173,13.337816,0.000000,58.903613,-20.265005,1.351319,-0.230620,-0.485515,-3.174992,-0.795587,-6.837143,0.033046,-0.014376,-0.484032,-0.055898,-1.611625,10.301886,-1.131472,-0.375360,1,0,,38.991461,-76.936599,-12.712000,,,
2026-09-11T17:38:07.889,13.834619,1.401673,10.728458,12.978452,0.000000,51.991840,-17.887101,1.333921,-0.220751,-0.464739,-3.190871,-0.840108,-6.827755,0.163424,0.053556,-0.463256,0.212314,1.790400,10.330521,-1.098697,-0.245633,1,0,,38.991461,-76.936599,-12.712000,,,
2026-09-11T17:38:07.922,13.868018,1.391980,10.774268,12.888701,0.000000,49.834400,-17.144862,1.330124,-0.204571,-0.430676,-3.205824,-0.884123,-6.818141,0.017533,-0.014872,-0.429192,-0.450321,2.261414,12.031681,-1.110836,-0.089965,1,0,,38.991461,-76.936599,-12.712000,,,
2026-09-11T17:38:07.955,13.901424,1.392142,10.820459,12.890201,0.000000,49.655872,-17.083442,1.330718,-0.198520,-0.417936,-3.219998,-0.927974,-6.808258,-0.016413,0.046393,-0.416452,2.346633,1.984866,8.160702,-0.944576,0.045039,1,0,,38.991461,-76.936599,-12.712000,,,
2026-09-11T17:38:07.990,13.934832,1.392304,10.866656,12.891701,0.000000,49.910617,-17.171084,1.330245,-0.213379,-0.449219,-3.234483,-0.971668,-6.797602,-0.153499,-0.096449,-0.447735,1.674486,-2.636126,7.033231,-0.829987,-0.117983,1,0,,38.991461,-76.936599,-12.712000,,,
2026-09-11T17:38:08.023,13.968243,1.411933,10.913944,13.073452,0.000000,51.347080,-17.665280,1.345354,-0.204364,-0.430241,-3.249175,-1.015442,-6.786183,-0.137248,-0.000909,-0.428757,0.790612,2.617395,7.267218,-0.781145,0.059782,1,0,,38.991461,-76.936599,-12.712000,,,
2026-09-11T17:38:08.057,14.001667,1.412573,10.961415,13.079383,0.000000,52.635913,-18.108686,1.342607,-0.192950,-0.406210,-3.263154,-1.059310,-6.774452,-0.053745,-0.072837,-0.404726,0.257425,-1.676447,6.283709,-0.776007,-0.044695,1,1,14.002126,38.991450,-76.936590,-12.669000,6.271009,2.488542,2.808324
2026-09-11T17:38:08.089,14.035076,1.422573,11.008325,13.171973,0.000000,52.863193,-18.186878,1.351506,-0.241823,-0.509101,-3.278443,-1.102995,-6.761452,-0.055512,-0.013143,-0.507618,0.225847,1.414413,10.883616,-0.784537,0.061422,1,0,,38.991450,-76.936590,-12.669000,,,
2026-09-11T17:38:08.122,14.068476,1.413210,11.055307,13.085282,0.000000,53.023181,-18.241920,1.342187,-0.209799,-0.441683,-3.294322,-1.146425,-6.747499,0.076766,-0.035421,-0.440200,0.009611,-1.294576,5.938319,-0.815205,-0.015208,1,0,,38.991450,-76.936590,-12.669000,,,
2026-09-11T17:38:08.158,14.101893,1.423388,11.103362,13.179518,0.000000,52.964130,-18.221604,1.352011,-0.232989,-0.490503,-3.309897,-1.189675,-6.733000,0.053160,0.002501,-0.489020,-0.693526,-4.384553,11.560471,-0.894719,-0.286578,1,0,,38.991450,-76.936590,-12.669000,,,
2026-09-11T17:38:08.190,14.135327,1.443330,11.151380,13.364166,0.000000,53.486667,-18.401376,1.369530,-0.240952,-0.507267,-3.326577,-1.233067,-6.717204,-0.138853,-0.056341,-0.505784,3.753790,3.038198,7.640263,-0.685401,-0.072072,1,0,,38.991450,-76.936590,-12.669000,,,
2026-09-11T17:38:08.223,14.168728,1.453434,11.199317,13.457726,0.000000,54.614139,-18.789268,1.375980,-0.237706,-0.500433,-3.343406,-1.276526,-6.700547,-0.029392,0.021684,-0.498949,1.800501,-0.229378,11.783671,-0.604425,-0.072062,1,0,,38.991450,-76.936590,-12.669000,,,
2026-09-11T17:38:08.258,14.202135,1.483061,11.249126,13.732050,0.000000,55.473133,-19.084793,1.401546,-0.251913,-0.530343,-3.360623,-1.320184,-6.682856,-0.147904,-0.035590,-0.528860,0.621153,-1.172189,10.204996,-0.600358,-0.129553,1,0,,38.991450,-76.936590,-12.669000,,,
2026-09-11T17:38:08.291,14.235557,1.512572,11.299680,14.005294,0.000000,56.619831,-19.479299,1.425995,-0.243718,-0.513091,-3.378060,-1.364345,-6.664115,-0.075669,-0.021949,-0.511607,3.134696,-1.045291,13.790896,-0.434173,-0.178966,1,0,,38.991450,-76.936590,-12.669000,,,
2026-09-11T17:38:08.323,14.268964,1.571274,11.351996,14.548835,0.000000,57.099796,-19.644425,1.479821,-0.266864,-0.561819,-3.396015,-1.409347,-6.644043,-0.130603,0.084945,-0.560336,2.370758,-8.700068,5.184874,-0.320253,-0.716828,1,0,,38.991450,-76.936590,-12.669000,,,
2026-09-11T17:38:08.356,14.302367,1.610270,11.405635,14.909905,0.000000,58.012348,-19.958376,1.513558,-0.287640,-0.605557,-3.415512,-1.455182,-6.622045,-0.061834,0.007328,-0.604074,1.822272,1.030483,7.637811,-0.245444,-0.613398,1,0,,38.991450,-76.936590,-12.669000,,,
2026-09-11T17:38:08.391,14.335774,1.649137,11.461526,15.269786,0.000000,57.980075,-19.947274,1.550200,-0.278972,-0.587309,-3.435437,-1.501655,-6.598622,-0.083339,-0.030481,-0.585826,0.108069,-2.824217,10.799181,-0.284136,-0.760972,1,0,,38.991450,-76.936590,-12.669000,,,
2026-09-11T17:38:08.423,14.369188,1.649077,11.516198,15.269235,0.000000,58.157916,-20.008458,1.549543,-0.287967,-0.606247,-3.455378,-1.548234,-6.574092,-0.121374,-0.009922,-0.604764,1.211514,2.043902,9.664748,-0.250271,-0.589937,1,0,,38.991450,-76.936590,-12.669000,,,
2026-09-11T17:38:08.457,14.402599,1.649689,11.571827,15.274897,0.000000,59.566226,-20.492968,1.545289,-0.283445,-0.596725,-3.475474,-1.594209,-6.548593,0.015147,0.085229,-0.595242,1.152478,4.359448,12.304110,-0.218636,-0.271995,1,0,,38.991450,-76.936590,-12.669000,,,
2026-09-11T17:38:08.490,14.436007,1.649970,11.626828,15.277500,0.000000,60.645633,-20.864323,1.541776,-0.297935,-0.627233,-3.495919,-1.639472,-6.522057,-0.022576,0.029334,-0.625749,-0.125133,2.623867,7.865424,-0.265522,-0.067007,1,0,,38.991450,-76.936590,-12.669000,,,
2026-09-11T17:38:08.524,14.469410,1.670051,11.682683,15.463433,0.000000,61.878162,-21.288358,1.556095,-0.295083,-0.621228,-3.516770,-1.684271,-6.494347,0.157610,0.005797,-0.619744,0.640374,-3.794095,5.665400,-0.255175,-0.279816,1,0,,38.991450,-76.936590,-12.669000,,,
2026-09-11T17:38:08.561,14.502833,1.679959,11.740187,15.555180,0.000000,62.802387,-21.606326,1.561919,-0.300547,-0.632731,-3.537725,-1.728802,-6.465525,0.107156,0.057075,-0.631247,-1.069906,1.936715,6.053547,-0.348197,-0.117792,1,0,,38.991450,-76.936590,-12.669000,,,
2026-09-11T17:38:08.591,14.536248,1.699757,11.797127,15.738493,0.000000,63.784290,-21.944136,1.576608,-0.320859,-0.675494,-3.559583,-1.772837,-6.435231,0.071631,-0.004912,-0.674010,-0.625566,-4.436725,11.114171,-0.402418,-0.365352,1,0,,38.991450,-76.936590,-12.669000,,,
2026-09-11T17:38:08.623,14.569649,1.729440,11.853738,16.013334,0.000000,65.305896,-22.467625,1.598168,-0.336326,-0.708054,-3.582689,-1.816463,-6.403172,0.054633,-0.018423,-0.706571,-0.321854,2.343789,7.500126,-0.428233,-0.166867,1,0,,38.991450,-76.936590,-12.669000,,,
2026-09-11T17:38:08.657,14.603058,1.739733,11.912161,16.108636,0.000000,66.000781,-22.706691,1.604891,-0.333944,-0.703039,-3.606260,-1.859672,-6.369694,0.009854,-0.088548,-0.701556,-0.492686,1.668994,5.425627,-0.462012,-0.014413,1,0,,38.991450,-76.936590,-12.669000,,,
2026-09-11T17:38:08.692,14.636474,1.749918,11.970596,16.202948,0.000000,66.046100,-22.722282,1.614104,-0.326614,-0.687609,-3.629495,-1.902407,-6.335227,-0.076876,-0.068698,-0.686125,-0.587909,1.431281,9.692108,-0.503059,0.119810,1,0,,38.991450,-76.936590,-12.669000,,,
2026-09-11T17:38:08.724,14.669885,1.731069,12.028455,16.028417,0.000000,65.644412,-22.584087,1.598325,-0.317485,-0.668390,-3.652148,-1.944371,-6.300092,-0.115608,-0.058533,-0.666906,-1.074515,-2.481377,8.956708,-0.577189,-0.003559,1,0,,38.991450,-76.936590,-12.669000,,,
2026-09-11T17:38:08.757,14.703418,1.702289,12.084823,15.761933,0.000000,64.396778,-22.154855,1.576605,-0.327014,-0.688451,-3.674897,-1.985127,-6.264192,-0.199271,-0.004653,-0.686968,0.708040,4.835169,5.847117,-0.535476,0.350710,1,0,,38.991450,-76.936590,-12.669000,,,
2026-09-11T17:38:08.792,14.736836,1.644222,12.140093,15.224276,0.000000,60.494571,-20.812352,1.536935,-0.265170,-0.558253,-3.695729,-2.024541,-6.228813,-0.167176,0.024175,-0.556770,-0.574572,-5.168693,9.552462,-0.578168,0.037017,1,0,,38.991450,-76.936590,-12.669000,,,
2026-09-11T17:38:08.825,14.770253,1.624891,12.194533,15.045289,0.000000,54.097782,-18.611622,1.539915,-0.227886,-0.479761,-3.713072,-2.063627,-6.194414,0.059206,-0.043047,-0.478277,-0.386186,1.731462,13.014994,-0.609120,0.166086,1,0,,38.991450,-76.936590,-12.669000,,,
2026-09-11T17:38:08.858,14.803674,1.547520,12.245782,14.328886,0.000000,47.470279,-16.331518,1.485078,-0.193515,-0.407400,-3.727897,-2.102095,-6.160868,-0.098674,0.005865,-0.405917,0.830819,4.366803,11.081319,-0.559951,0.455866,1,0,,38.991450,-76.936590,-12.669000,,,
2026-09-11T17:38:08.891,14.837121,1.538101,12.297117,14.241680,0.000000,44.247165,-15.222649,1.484134,-0.181995,-0.383148,-3.741118,-2.139766,-6.127914,0.123765,0.045142,-0.381665,2.296717,-4.832619,8.351539,-0.414419,0.143739,1,0,,38.991450,-76.936590,-12.669000,,,
2026-09-11T17:38:08.926,14.870528,1.519412,12.348022,14.068628,0.000000,39.176288,-13.478081,1.477566,-0.155064,-0.326450,-3.752971,-2.177241,-6.095128,0.102489,-0.065699,-0.324966,-1.066473,-0.683524,9.319554,-0.484171,0.098593,1,0,,38.991450,-76.936590,-12.669000,,,
