timestamp,time_s,speed_mps,distance_m,wheel_omega_rad_s,motor_current_A,steer_motor_deg,steer_column_deg,vx_mps,vy_mps,yaw_rate_rad_s,heading_rad,x_m,y_m,gyro_x_rad_s,gyro_y_rad_s,gyro_z_rad_s,accel_x_mps2,accel_y_mps2,accel_z_mps2,grade_deg,bank_deg,moving,gps_new_fix,gps_time_s,gps_latitude_deg,gps_longitude_deg,gps_altitude_m,gps_east_m,gps_north_m,gps_sigma_m
2026-09-11T17:41:03.079,0.000009,-0.000000,-0.000000,-0.000000,0.000000,-15.809326,5.438988,-0.000000,0.000358,0.000754,0.000000,0.000000,0.000000,0.004005,0.000475,0.002238,0.704412,0.070706,9.688186,0.000000,0.000000,0,1,-0.003400,38.991404,-76.936684,-9.602000,0.000000,0.000000,3.455007
2026-09-11T17:41:03.112,0.033430,-0.000000,-0.000000,-0.000000,0.000000,-15.809326,5.438988,-0.000000,-0.001890,-0.003978,-0.000054,-0.000000,-0.000026,-0.000323,0.001290,-0.002495,0.705883,0.074432,9.691128,0.000000,0.000000,0,0,,38.991404,-76.936684,-9.602000,,,
2026-09-11T17:41:03.145,0.066845,-0.000000,-0.000000,-0.000000,0.000000,-15.809326,5.438988,-0.000000,0.000080,0.000169,-0.000118,-0.000000,-0.000056,0.003775,0.001996,0.001653,0.697057,0.079042,9.688186,0.000000,0.000000,0,0,,38.991404,-76.936684,-9.602000,,,
2026-09-11T17:41:03.178,0.100258,-0.000000,-0.000000,-0.000000,0.000000,-15.809326,5.438988,-0.000000,-0.000381,-0.000803,-0.000128,-0.000000,-0.000061,0.002591,0.000261,0.000681,0.696959,0.072275,9.679948,0.000000,0.000000,0,0,,38.991404,-76.936684,-9.602000,,,
2026-09-11T17:41:03.213,0.133670,-0.000000,-0.000000,-0.000000,0.000000,-15.809326,5.438988,-0.000000,-0.000060,-0.000127,-0.000144,-0.000000,-0.000068,0.001516,0.002625,0.001357,0.694899,0.076786,9.692010,0.000000,0.000000,0,0,,38.991404,-76.936684,-9.602000,,,
2026-09-11T17:41:03.246,0.167088,-0.000000,-0.000000,-0.000000,0.000000,-15.809326,5.438988,-0.000000,-0.002100,-0.004421,-0.000220,-0.000000,-0.000104,-0.001525,0.001671,-0.002937,0.699999,0.074531,9.694168,0.000000,0.000000,0,0,,38.991404,-76.936684,-9.602000,,,
2026-09-11T17:41:03.279,0.200499,-0.000000,-0.000000,-0.000000,0.000000,-15.809326,5.438988,-0.000000,-0.000240,-0.000504,-0.000302,-0.000000,-0.000143,-0.000164,-0.000576,0.000979,0.705196,0.072961,9.687401,0.000000,0.000000,0,0,,38.991404,-76.936684,-9.602000,,,
2026-09-11T17:41:03.312,0.233913,-0.000000,-0.000000,-0.000000,0.000000,-15.809326,5.438988,-0.000000,0.000261,0.000549,-0.000301,-0.000000,-0.000143,0.000204,0.003000,0.002032,0.702156,0.073746,9.684459,0.000000,0.000000,0,0,,38.991404,-76.936684,-9.602000,,,
2026-09-11T17:41:03.346,0.267323,-0.000000,-0.000000,-0.000000,0.000000,-15.809326,5.438988,-0.000000,-0.000801,-0.001686,-0.000320,-0.000000,-0.000152,0.000239,0.002083,-0.000203,0.699999,0.071490,9.688186,0.000000,0.000000,0,0,,38.991404,-76.936684,-9.602000,,,
2026-09-11T17:41:03.379,0.300735,-0.000000,-0.000000,-0.000000,0.000000,-15.809326,5.438988,-0.000000,0.001447,0.003047,-0.000297,-0.000000,-0.000141,-0.005440,-0.000671,0.004531,0.692644,0.068548,9.691226,0.000000,0.000000,0,0,,38.991404,-76.936684,-9.602000,,,
2026-09-11T17:41:03.413,0.334148,-0.000000,-0.000000,-0.000000,0.000000,-15.809326,5.438988,-0.000000,-0.000837,-0.001762,-0.000276,-0.000000,-0.000131,0.000781,0.000900,-0.000278,0.695586,0.074531,9.692697,0.000000,0.000000,0,0,,38.991404,-76.936684,-9.602000,,,
2026-09-11T17:41:03.446,0.367560,-0.000000,-0.000000,-0.000000,0.000000,-15.809326,5.438988,-0.000000,-0.001439,-0.003030,-0.000356,-0.000000,-0.000169,0.002093,-0.000266,-0.001546,0.699116,0.064822,9.680733,0.000000,0.000000,0,0,,38.991404,-76.936684,-9.602000,,,
2026-09-11T17:41:03.480,0.400974,-0.000000,-0.000000,-0.000000,0.000000,-15.809326,5.438988,-0.000000,0.000628,0.001322,-0.000384,-0.000000,-0.000183,-0.004029,-0.000113,0.002806,0.706667,0.076688,9.684361,0.000000,0.000000,0,0,,38.991404,-76.936684,-9.602000,,,
2026-09-11T17:41:03.514,0.434403,-0.000000,-0.000000,-0.000000,0.000000,-15.809326,5.438988,-0.000000,-0.001149,-0.002420,-0.000403,-0.000000,-0.000191,0.000900,0.000905,-0.000936,0.702156,0.068548,9.689657,0.000000,0.000000,0,0,,38.991404,-76.936684,-9.602000,,,
2026-09-11T17:41:03.547,0.467820,-0.000000,-0.000000,-0.000000,0.000000,-15.765381,5.423870,-0.000000,-0.000781,-0.001645,-0.000471,-0.000000,-0.000224,0.001839,0.000982,-0.000161,0.697743,0.073844,9.680733,0.000000,0.000000,0,0,,38.991404,-76.936684,-9.602000,,,
2026-09-11T17:41:03.580,0.501243,-0.000000,-0.000000,-0.000000,0.000000,-15.765381,5.423870,-0.000000,0.001361,0.002865,-0.000450,-0.000000,-0.000214,-0.006441,-0.000156,0.004349,0.698528,0.073060,9.682204,0.000000,0.000000,0,0,,38.991404,-76.936684,-9.602000,,,
2026-09-11T17:41:03.614,0.534655,-0.000000,-0.000000,-0.000000,0.000000,-15.765381,5.423870,-0.000000,-0.001458,-0.003070,-0.000454,-0.000000,-0.000216,0.000366,0.000436,-0.001587,0.697057,0.071490,9.692697,0.000000,0.000000,0,0,,38.991404,-76.936684,-9.602000,,,
2026-09-11T17:41:03.646,0.568069,-0.000000,-0.000000,-0.000000,0.000000,-15.765381,5.423870,-0.000000,0.000395,0.000831,-0.000491,-0.000000,-0.000233,-0.001666,0.000124,0.002314,0.699214,0.070804,9.682204,0.000000,0.000000,0,0,,38.991404,-76.936684,-9.602000,,,
2026-09-11T17:41:03.680,0.601482,-0.000000,-0.000000,-0.000000,0.000000,-15.765381,5.423870,-0.000000,-0.000943,-0.001984,-0.000510,-0.000000,-0.000242,-0.002373,-0.000471,-0.000501,0.696959,0.064822,9.688186,0.000000,0.000000,0,0,,38.991404,-76.936684,-9.602000,,,
2026-09-11T17:41:03.713,0.634892,-0.000000,-0.000000,-0.000000,0.000000,-15.765381,5.423870,-0.000000,0.000968,0.002037,-0.000510,-0.000000,-0.000242,0.001269,-0.000367,0.003521,0.697841,0.076002,9.692697,0.000000,0.000000,0,0,,38.991404,-76.936684,-9.602000,,,
2026-09-11T17:41:03.747,0.668307,-0.000000,-0.000000,-0.000000,0.000000,-15.765381,5.423870,-0.000000,-0.000201,-0.000423,-0.000483,-0.000000,-0.000229,-0.001468,-0.001655,0.001060,0.697743,0.067764,9.691912,0.000000,0.000000,0,0,,38.991404,-76.936684,-9.602000,,,
2026-09-11T17:41:03.780,0.701719,-0.000000,-0.000000,-0.000000,0.000000,-15.765381,5.423870,-0.000000,-0.001701,-0.003581,-0.000550,-0.000000,-0.000261,-0.000576,0.001020,-0.002098,0.695488,0.067862,9.673280,0.000000,0.000000,0,0,,38.991404,-76.936684,-9.602000,,,
2026-09-11T17:41:03.813,0.735129,-0.000000,-0.000000,-0.000000,0.000000,-15.765381,5.423870,-0.000000,0.000793,0.001669,-0.000581,-0.000000,-0.000276,-0.000773,-0.001190,0.003153,0.702941,0.067764,9.691128,0.000000,0.000000,0,0,,38.991404,-76.936684,-9.602000,,,
2026-09-11T17:41:03.847,0.768542,-0.000000,-0.000000,-0.000000,0.000000,-15.765381,5.423870,-0.000000,-0.000642,-0.001351,-0.000576,-0.000000,-0.000274,-0.000703,-0.000978,0.000132,0.702941,0.072275,9.679164,0.000000,0.000000,0,0,,38.991404,-76.936684,-9.602000,,,
2026-09-11T17:41:03.880,0.801954,-0.000000,-0.000000,-0.000000,0.000000,-15.765381,5.423870,-0.000000,0.000228,0.000480,-0.000591,-0.000000,-0.000281,0.000343,0.002340,0.001963,0.703627,0.066979,9.684361,0.000000,0.000000,0,0,,38.991404,-76.936684,-9.602000,,,
2026-09-11T17:41:03.917,0.835364,-0.000000,-0.000000,-0.000000,0.000000,-15.765381,5.423870,-0.000000,-0.000237,-0.000500,-0.000591,-0.000000,-0.000281,-0.000497,-0.000383,0.000984,0.704412,0.068450,9.685930,0.000000,0.000000,0,0,,38.991404,-76.936684,-9.602000,,,
2026-09-11T17:41:03.947,0.868779,-0.000000,-0.000000,-0.000000,0.000000,-15.765381,5.423870,-0.000000,0.000587,0.001236,-0.000579,-0.000000,-0.000275,-0.002574,-0.000488,0.002719,0.696272,0.064822,9.688186,0.000000,0.000000,0,0,,38.991404,-76.936684,-9.602000,,,
2026-09-11T17:41:03.980,0.902191,-0.000000,-0.000000,-0.000000,0.000000,-15.765381,5.423870,-0.000000,-0.001550,-0.003263,-0.000613,-0.000000,-0.000291,0.000219,0.001295,-0.001780,0.693330,0.074531,9.686715,0.000000,0.000000,0,0,,38.991404,-76.936684,-9.602000,,,
2026-09-11T17:41:04.014,0.935604,-0.000000,-0.000000,-0.000000,0.000000,-15.765381,5.423870,-0.000000,0.000712,0.001500,-0.000642,-0.000000,-0.000305,-0.002881,-0.001751,0.002983,0.692644,0.072275,9.693481,0.000000,0.000000,0,0,,38.991404,-76.936684,-9.602000,,,
2026-09-11T17:41:04.049,0.969021,-0.000000,-0.000000,-0.000000,0.000000,-15.765381,5.423870,-0.000000,-0.000186,-0.000392,-0.000624,-0.000000,-0.000296,-0.003350,0.000832,0.001091,0.701470,0.075217,9.689657,0.000000,0.000000,0,0,,38.991404,-76.936684,-9.602000,,,
2026-09-11T17:41:04.080,1.002425,-0.000000,-0.000000,-0.000000,0.000000,-15.765381,5.423870,-0.000000,-0.001683,-0.003543,-0.000689,-0.000000,-0.000327,0.001529,0.001581,-0.002060,0.702156,0.069235,9.680635,0.000000,0.000000,0,1,1.002365,38.991403,-76.936684,-9.587000,-0.002017,-0.019459,3.455007
2026-09-11T17:41:04.114,1.035839,-0.000000,-0.000000,-0.000000,0.000000,-15.765381,5.423870,-0.000000,0.000527,0.001110,-0.000730,-0.000000,-0.000347,-0.003096,-0.001091,0.002594,0.699901,0.070019,9.681419,0.000000,0.000000,0,0,,38.991403,-76.936684,-9.587000,,,
2026-09-11T17:41:04.147,1.069252,-0.000000,-0.000000,-0.000000,0.000000,-15.765381,5.423870,-0.000000,-0.000796,-0.001676,-0.000739,-0.000000,-0.000351,-0.000607,0.001210,-0.000193,0.702941,0.077473,9.680635,0.000000,0.000000,0,0,,38.991403,-76.936684,-9.587000,,,
2026-09-11T17:41:04.180,1.102665,-0.000000,-0.000000,-0.000000,0.000000,-15.765381,5.423870,-0.000000,-0.000934,-0.001966,-0.000800,-0.000000,-0.000380,0.006246,0.001646,-0.000483,0.703627,0.070019,9.682890,0.000000,0.000000,0,0,,38.991403,-76.936684,-9.587000,,,
2026-09-11T17:41:04.216,1.136079,-0.000000,-0.000000,-0.000000,0.000000,-15.765381,5.423870,-0.000000,-0.000706,-0.001487,-0.000858,-0.000000,-0.000408,-0.000258,0.000089,-0.000003,0.696272,0.076100,9.679948,0.000000,0.000000,0,0,,38.991403,-76.936684,-9.587000,,,
2026-09-11T17:41:04.248,1.169494,-0.000000,-0.000000,-0.000000,0.000000,-15.765381,5.423870,-0.000000,-0.000499,-0.001051,-0.000900,-0.000000,-0.000428,0.001587,0.000909,0.000433,0.693428,0.079826,9.692010,0.000000,0.000000,0,0,,38.991403,-76.936684,-9.587000,,,
2026-09-11T17:41:04.281,1.202904,-0.000000,-0.000000,-0.000000,0.000000,-15.765381,5.423870,-0.000000,0.000047,0.000099,-0.000916,-0.000000,-0.000435,0.004108,0.001671,0.001582,0.693428,0.076786,9.692010,0.000000,0.000000,0,0,,38.991403,-76.936684,-9.587000,,,
2026-09-11T17:41:04.315,1.236318,-0.000000,-0.000000,-0.000000,0.000000,-15.765381,5.423870,-0.000000,0.000307,0.000647,-0.000904,-0.000000,-0.000429,-0.002477,0.001238,0.002131,0.699312,0.079042,9.686715,0.000000,0.000000,0,0,,38.991403,-76.936684,-9.587000,,,
2026-09-11T17:41:04.348,1.269732,-0.000000,-0.000000,-0.000000,0.000000,-15.765381,5.423870,-0.000000,-0.001012,-0.002131,-0.000929,-0.000000,-0.000441,-0.000765,0.002401,-0.000648,0.705883,0.081984,9.680635,0.000000,0.000000,0,0,,38.991403,-76.936684,-9.587000,,,
2026-09-11T17:41:04.381,1.303143,-0.000000,-0.000000,-0.000000,0.000000,-15.765381,5.423870,-0.000000,-0.000931,-0.001960,-0.000997,-0.000000,-0.000474,0.000905,0.001234,-0.000476,0.709609,0.080415,9.690343,0.000000,0.000000,0,0,,38.991403,-76.936684,-9.587000,,,
2026-09-11T17:41:04.415,1.336553,-0.000000,-0.000000,-0.000000,0.000000,-15.765381,5.423870,-0.000000,-0.000070,-0.000148,-0.001032,-0.000000,-0.000490,-0.001779,0.002179,0.001335,0.702941,0.076002,9.685146,0.000000,0.000000,0,0,,38.991403,-76.936684,-9.587000,,,
2026-09-11T17:41:04.448,1.369971,-0.000000,-0.000000,-0.000000,0.000000,-15.765381,5.423870,-0.000000,-0.000527,-0.001109,-0.001053,-0.000000,-0.000500,0.001363,0.002760,0.000374,0.697057,0.070804,9.683675,0.000000,0.000000,0,0,,38.991403,-76.936684,-9.587000,,,
2026-09-11T17:41:04.482,1.403384,-0.000000,-0.000000,-0.000000,0.000000,-15.765381,5.423870,-0.000000,-0.000190,-0.000401,-0.001078,-0.000000,-0.000512,-0.002876,-0.000022,0.001083,0.689702,0.071589,9.688284,0.000000,0.000000,0,0,,38.991403,-76.936684,-9.587000,,,
2026-09-11T17:41:04.515,1.436797,-0.000000,-0.000000,-0.000000,0.000000,-15.765381,5.423870,-0.000000,-0.001247,-0.002626,-0.001129,-0.000000,-0.000536,0.001739,0.002044,-0.001142,0.688231,0.072373,9.692010,0.000000,0.000000,0,0,,38.991403,-76.936684,-9.587000,,,
2026-09-11T17:41:04.549,1.470219,-0.000000,-0.000000,-0.000000,0.000000,-15.765381,5.423870,-0.000000,-0.000611,-0.001285,-0.001194,-0.000000,-0.000567,0.004538,0.002014,0.000198,0.699999,0.068548,9.685930,0.000000,0.000000,0,0,,38.991403,-76.936684,-9.587000,,,
2026-09-11T17:41:04.583,1.503644,-0.000000,-0.000000,-0.000000,0.000000,-15.765381,5.423870,-0.000000,0.000231,0.000486,-0.001208,-0.000000,-0.000574,-0.000544,-0.000321,0.001970,0.704412,0.082768,9.682106,0.000000,0.000000,0,0,,38.991403,-76.936684,-9.587000,,,
2026-09-11T17:41:04.615,1.537063,-0.000000,-0.000000,-0.000000,0.000000,-15.765381,5.423870,-0.000000,-0.000603,-0.001269,-0.001221,-0.000000,-0.000580,0.003351,0.001930,0.000214,0.709511,0.073746,9.679066,0.000000,0.000000,0,0,,38.991403,-76.936684,-9.587000,,,
2026-09-11T17:41:04.648,1.570478,-0.000000,-0.000000,-0.000000,0.000000,-15.765381,5.423870,-0.000000,-0.000756,-0.001592,-0.001269,-0.000000,-0.000603,0.002825,0.001328,-0.000108,0.700783,0.083553,9.684459,0.000000,0.000000,0,0,,38.991403,-76.936684,-9.587000,,,
2026-09-11T17:41:04.684,1.603901,-0.000000,-0.000000,-0.000000,0.000000,-15.765381,5.423870,-0.000000,0.000274,0.000578,-0.001285,-0.000000,-0.000611,-0.002151,0.001441,0.002061,0.697057,0.082082,9.680733,0.000000,0.000000,0,0,,38.991403,-76.936684,-9.587000,,,
2026-09-11T17:41:04.718,1.637313,-0.000000,-0.000000,-0.000000,0.000000,-15.765381,5.423870,-0.000000,-0.001184,-0.002492,-0.001317,-0.000000,-0.000626,0.001481,0.001775,-0.001008,0.702941,0.079728,9.686617,0.000000,0.000000,0,0,,38.991403,-76.936684,-9.587000,,,
2026-09-11T17:41:04.749,1.670723,-0.000000,-0.000000,-0.000000,0.000000,-15.765381,5.423870,-0.000000,-0.000865,-0.001821,-0.001390,-0.000000,-0.000660,0.000381,0.001159,-0.000338,0.698528,0.074531,9.682204,0.000000,0.000000,0,0,,38.991403,-76.936684,-9.587000,,,
2026-09-11T17:41:04.782,1.704149,-0.000000,-0.000000,-0.000000,0.000000,-15.765381,5.423870,-0.000000,-0.000600,-0.001263,-0.001441,-0.000000,-0.000684,-0.001870,0.002381,0.000221,0.696272,0.069333,9.691226,0.000000,0.000000,0,0,,38.991403,-76.936684,-9.587000,,,
2026-09-11T17:41:04.816,1.737560,-0.000000,-0.000000,-0.000000,0.000000,-15.765381,5.423870,-0.000000,0.000090,0.000188,-0.001459,-0.000001,-0.000693,0.002388,0.002042,0.001672,0.696370,0.076100,9.684459,0.000000,0.000000,0,0,,38.991403,-76.936684,-9.587000,,,
2026-09-11T17:41:04.849,1.770969,-0.000000,-0.000000,-0.000000,0.000000,-15.765381,5.423870,-0.000000,-0.000317,-0.000668,-0.001467,-0.000001,-0.000697,0.002388,0.000853,0.000816,0.699214,0.073746,9.681419,0.000000,0.000000,0,0,,38.991403,-76.936684,-9.587000,,,
2026-09-11T17:41:04.883,1.804392,-0.000000,-0.000000,-0.000000,0.000000,-15.765381,5.423870,-0.000000,-0.001049,-0.002209,-0.001515,-0.000001,-0.000720,-0.000029,0.001618,-0.000725,0.704510,0.082670,9.694168,0.000000,0.000000,0,0,,38.991403,-76.936684,-9.587000,,,
2026-09-11T17:41:04.916,1.837805,-0.000000,-0.000000,-0.000000,0.000000,-15.765381,5.423870,-0.000000,-0.000215,-0.000453,-0.001560,-0.000001,-0.000741,0.000953,-0.000096,0.001031,0.707354,0.075217,9.681419,0.000000,0.000000,0,0,,38.991403,-76.936684,-9.587000,,,
2026-09-11T17:41:04.949,1.871214,-0.000000,-0.000000,-0.000000,0.000000,-15.765381,5.423870,-0.000000,0.000136,0.000287,-0.001562,-0.000001,-0.000742,-0.000355,0.000013,0.001771,0.701568,0.080513,9.691128,0.000000,0.000000,0,0,,38.991403,-76.936684,-9.587000,,,
2026-09-11T17:41:04.982,1.904637,-0.000000,-0.000000,-0.000000,0.000000,-15.765381,5.423870,-0.000000,-0.000791,-0.001665,-0.001585,-0.000001,-0.000753,-0.001345,0.002059,-0.000181,0.695586,0.073060,9.688186,0.000000,0.000000,0,0,,38.991403,-76.936684,-9.587000,,,
2026-09-11T17:41:05.016,1.938049,-0.000000,-0.000000,-0.000000,0.000000,-15.765381,5.423870,-0.000000,0.000082,0.000173,-0.001610,-0.000001,-0.000765,-0.001672,-0.000337,0.001657,0.691957,0.073844,9.692795,0.000000,0.000000,0,0,,38.991403,-76.936684,-9.587000,,,
2026-09-11T17:41:05.049,1.971459,-0.000000,-0.000000,-0.000000,0.000000,-15.765381,5.423870,-0.000000,0.000367,0.000772,-0.001594,-0.000001,-0.000757,-0.002377,-0.001078,0.002256,0.693330,0.075315,9.685244,0.000000,0.000000,0,0,,38.991403,-76.936684,-9.587000,,,
2026-09-11T17:41:05.083,2.004878,-0.000000,-0.000000,-0.000000,0.000000,-15.765381,5.423870,-0.000000,-0.000785,-0.001653,-0.001609,-0.000001,-0.000764,0.002738,0.002783,-0.000170,0.701470,0.077473,9.690441,0.000000,0.000000,0,1,1.998535,38.991403,-76.936684,-9.568000,-0.008066,-0.031505,3.455007
2026-09-11T17:41:05.116,2.038290,-0.000000,-0.000000,-0.000000,0.000000,-15.765381,5.423870,-0.000000,-0.000240,-0.000505,-0.001645,-0.000001,-0.000781,-0.000281,-0.001703,0.000978,0.707354,0.070019,9.684361,0.000000,0.000000,0,0,,38.991403,-76.936684,-9.568000,,,
2026-09-11T17:41:05.149,2.071704,-0.000000,-0.000000,-0.000000,0.000000,-15.765381,5.423870,-0.000000,-0.000388,-0.000818,-0.001667,-0.000001,-0.000792,-0.001291,-0.000658,0.000666,0.703627,0.078257,9.676908,0.000000,0.000000,0,0,,38.991403,-76.936684,-9.568000,,,
2026-09-11T17:41:05.183,2.105127,-0.000000,-0.000000,-0.000000,0.000000,-15.765381,5.423870,-0.000000,-0.000350,-0.000737,-0.001693,-0.000001,-0.000804,0.002715,0.000991,0.000746,0.693330,0.073844,9.686028,0.000000,0.000000,0,0,,38.991403,-76.936684,-9.568000,,,
2026-09-11T17:41:05.216,2.138536,-0.000000,-0.000000,-0.000000,0.000000,-15.765381,5.423870,-0.000000,0.000461,0.000970,-0.001689,-0.000001,-0.000802,-0.002317,-0.000350,0.002453,0.691957,0.080611,9.692795,0.000000,0.000000,0,0,,38.991403,-76.936684,-9.568000,,,
2026-09-11T17:41:05.250,2.171949,-0.000000,-0.000000,-0.000000,0.000000,-15.765381,5.423870,-0.000000,-0.000057,-0.000121,-0.001675,-0.000001,-0.000796,-0.004064,0.000356,0.001363,0.697841,0.079826,9.686715,0.000000,0.000000,0,0,,38.991403,-76.936684,-9.568000,,,
2026-09-11T17:41:05.283,2.205369,-0.000000,-0.000000,-0.000000,0.000000,-15.721436,5.408751,-0.000000,-0.000718,-0.001511,-0.001702,-0.000001,-0.000809,0.001585,0.000382,-0.000028,0.704314,0.070804,9.679164,0.000000,0.000000,0,0,,38.991403,-76.936684,-9.568000,,,
2026-09-11T17:41:05.316,2.238782,-0.000000,-0.000000,-0.000000,0.000000,-15.721436,5.408751,-0.000000,0.000246,0.000519,-0.001719,-0.000001,-0.000817,-0.002920,-0.000291,0.002002,0.699999,0.070804,9.682890,0.000000,0.000000,0,0,,38.991403,-76.936684,-9.568000,,,
2026-09-11T17:41:05.350,2.272192,-0.000000,-0.000000,-0.000000,0.000000,-15.721436,5.408751,-0.000000,0.000026,0.000055,-0.001709,-0.000001,-0.000812,-0.002661,-0.000616,0.001538,0.701470,0.073060,9.684459,0.000000,0.000000,0,0,,38.991403,-76.936684,-9.568000,,,
2026-09-11T17:41:05.384,2.305616,-0.000000,-0.000000,-0.000000,0.000000,-15.721436,5.408751,-0.000000,-0.000868,-0.001827,-0.001739,-0.000001,-0.000826,0.000656,0.000303,-0.000343,0.690486,0.076884,9.688970,0.000000,0.000000,0,0,,38.991403,-76.936684,-9.568000,,,
2026-09-11T17:41:05.417,2.339025,-0.000000,-0.000000,-0.000000,0.000000,-15.721436,5.408751,-0.000000,0.000182,0.000384,-0.001763,-0.000001,-0.000838,-0.002658,-0.000353,0.001867,0.690388,0.070118,9.683773,0.000000,0.000000,0,0,,38.991403,-76.936684,-9.568000,,,
2026-09-11T17:41:05.450,2.372439,-0.000000,-0.000000,-0.000000,0.000000,-15.721436,5.408751,-0.000000,-0.000477,-0.001005,-0.001774,-0.000001,-0.000842,-0.001654,0.001456,0.000478,0.701470,0.081297,9.679164,0.000000,0.000000,0,0,,38.991403,-76.936684,-9.568000,,,
2026-09-11T17:41:05.484,2.405859,-0.000000,-0.000000,-0.000000,0.000000,-15.721436,5.408751,-0.000000,0.000579,0.001218,-0.001770,-0.000001,-0.000841,-0.001255,-0.000401,0.002702,0.711767,0.069921,9.687303,0.000000,0.000000,0,0,,38.991403,-76.936684,-9.568000,,,
2026-09-11T17:41:05.517,2.439271,-0.000000,-0.000000,-0.000000,0.000000,-15.721436,5.408751,-0.000000,-0.000267,-0.000563,-0.001759,-0.000001,-0.000836,-0.005330,0.000604,0.000921,0.702941,0.074531,9.681419,0.000000,0.000000,0,0,,38.991403,-76.936684,-9.568000,,,
2026-09-11T17:41:05.551,2.472696,-0.000000,-0.000000,-0.000000,0.000000,-15.721436,5.408751,-0.000000,-0.001009,-0.002125,-0.001804,-0.000001,-0.000857,-0.001348,0.001664,-0.000641,0.696272,0.073060,9.684459,0.000000,0.000000,0,0,,38.991403,-76.936684,-9.568000,,,
2026-09-11T17:41:05.584,2.506122,-0.000000,-0.000000,-0.000000,0.000000,-15.721436,5.408751,-0.000000,-0.000651,-0.001371,-0.001862,-0.000001,-0.000885,0.000808,-0.000491,0.000112,0.688917,0.063351,9.686813,0.000000,0.000000,0,0,,38.991403,-76.936684,-9.568000,,,
2026-09-11T17:41:05.618,2.539537,-0.000000,-0.000000,-0.000000,0.000000,-15.721436,5.408751,-0.000000,0.000272,0.000573,-0.001876,-0.000001,-0.000891,-0.001639,0.002641,0.002057,0.696272,0.074531,9.683675,0.000000,0.000000,0,0,,38.991403,-76.936684,-9.568000,,,
2026-09-11T17:41:05.651,2.572949,-0.000000,-0.000000,-0.000000,0.000000,-15.721436,5.408751,-0.000000,-0.000663,-0.001396,-0.001890,-0.000001,-0.000898,0.003079,0.002324,0.000087,0.699214,0.072275,9.678477,0.000000,0.000000,0,0,,38.991403,-76.936684,-9.568000,,,
2026-09-11T17:41:05.684,2.606370,-0.000000,-0.000000,-0.000000,0.000000,-15.721436,5.408751,-0.000000,-0.000196,-0.000412,-0.001920,-0.000001,-0.000912,-0.002324,-0.001801,0.001072,0.705981,0.081984,9.691128,0.000000,0.000000,0,0,,38.991403,-76.936684,-9.568000,,,
2026-09-11T17:41:05.718,2.639784,-0.000000,-0.000000,-0.000000,0.000000,-15.721436,5.408751,-0.000000,-0.000365,-0.000769,-0.001939,-0.000001,-0.000921,0.000508,0.003010,0.000715,0.705098,0.077473,9.679164,0.000000,0.000000,0,0,,38.991403,-76.936684,-9.568000,,,
2026-09-11T17:41:05.751,2.673197,-0.000000,-0.000000,-0.000000,0.000000,-15.721436,5.408751,-0.000000,-0.000000,-0.000000,-0.001952,-0.000001,-0.000927,0.001789,0.002099,0.001483,0.698528,0.076786,9.688186,0.000000,0.000000,0,0,,38.991403,-76.936684,-9.568000,,,
2026-09-11T17:41:05.784,2.706621,-0.000000,-0.000000,-0.000000,0.000000,-15.721436,5.408751,-0.000000,-0.000615,-0.001296,-0.001974,-0.000001,-0.000938,0.000267,0.000559,0.000188,0.691957,0.082866,9.689755,0.000000,0.000000,0,0,,38.991403,-76.936684,-9.568000,,,
2026-09-11T17:41:05.818,2.740034,-0.000000,-0.000000,-0.000000,0.000000,-15.721436,5.408751,-0.000000,-0.001206,-0.002539,-0.002038,-0.000001,-0.000968,0.000160,0.001755,-0.001056,0.700685,0.072275,9.679948,0.000000,0.000000,0,0,,38.991403,-76.936684,-9.568000,,,
2026-09-11T17:41:05.851,2.773446,-0.000000,-0.000000,-0.000000,0.000000,-15.721436,5.408751,-0.000000,-0.000489,-0.001029,-0.002098,-0.000001,-0.000996,0.005127,0.002750,0.000454,0.706569,0.072177,9.687401,0.000000,0.000000,0,0,,38.991403,-76.936684,-9.568000,,,
2026-09-11T17:41:05.885,2.806870,-0.000000,-0.000000,-0.000000,0.000000,-15.721436,5.408751,-0.000000,-0.000828,-0.001744,-0.002144,-0.000001,-0.001018,-0.000599,0.000482,-0.000260,0.703039,0.084239,9.694168,0.000000,0.000000,0,0,,38.991403,-76.936684,-9.568000,,,
2026-09-11T17:41:05.918,2.840282,-0.000000,-0.000000,-0.000000,0.000000,-15.721436,5.408751,-0.000000,-0.001537,-0.003235,-0.002227,-0.000001,-0.001058,0.003171,0.002664,-0.001752,0.697743,0.073060,9.682988,0.000000,0.000000,0,0,,38.991403,-76.936684,-9.568000,,,
2026-09-11T17:41:05.951,2.873697,-0.000000,-0.000000,-0.000000,0.000000,-15.721436,5.408751,-0.000000,0.001007,0.002120,-0.002246,-0.000001,-0.001067,0.005136,0.001744,0.003604,0.694899,0.074531,9.688970,0.000000,0.000000,0,0,,38.991403,-76.936684,-9.568000,,,
2026-09-11T17:41:05.985,2.907116,-0.000000,-0.000000,-0.000000,0.000000,-15.721436,5.408751,-0.000000,0.000843,0.001776,-0.002181,-0.000001,-0.001036,-0.003499,0.000357,0.003259,0.694899,0.082082,9.688186,0.000000,0.000000,0,0,,38.991403,-76.936684,-9.568000,,,
2026-09-11T17:41:06.018,2.940529,-0.000000,-0.000000,-0.000000,0.000000,-15.721436,5.408751,-0.000000,-0.001091,-0.002297,-0.002189,-0.000001,-0.001040,0.001683,0.001777,-0.000814,0.706667,0.080415,9.687401,0.000000,0.000000,0,0,,38.991403,-76.936684,-9.568000,,,
2026-09-11T17:41:06.052,2.973943,-0.000000,-0.000000,-0.000000,0.000000,-15.677490,5.393632,-0.000000,-0.000654,-0.001377,-0.002251,-0.000001,-0.001069,-0.003490,0.000039,0.000107,0.708138,0.079728,9.686617,0.000000,0.000000,0,0,,38.991403,-76.936684,-9.568000,,,
2026-09-11T17:41:06.085,3.007368,-0.000000,-0.000000,-0.000000,0.000000,-15.677490,5.393632,-0.000000,-0.001154,-0.002430,-0.002314,-0.000001,-0.001099,-0.003192,0.000909,-0.000946,0.702254,0.079728,9.682204,0.000000,0.000000,0,1,2.995217,38.991403,-76.936684,-9.552000,-0.010947,-0.043366,3.454411
2026-09-11T17:41:06.119,3.040780,-0.000000,-0.000000,-0.000000,0.000000,-15.677490,5.393632,-0.000000,-0.001239,-0.002609,-0.002399,-0.000001,-0.001139,0.000428,0.001428,-0.001126,0.695586,0.076100,9.684459,0.000000,0.000000,0,0,,38.991403,-76.936684,-9.552000,,,
2026-09-11T17:41:06.152,3.074193,-0.000000,-0.000000,-0.000000,0.000000,-15.677490,5.393632,-0.000000,-0.000721,-0.001518,-0.002468,-0.000001,-0.001172,-0.002461,0.001843,-0.000035,0.692742,0.080513,9.692795,0.000000,0.000000,0,0,,38.991403,-76.936684,-9.552000,,,
2026-09-11T17:41:06.186,3.107617,-0.000000,-0.000000,-0.000000,0.000000,-15.677490,5.393632,-0.000000,0.000107,0.000225,-0.002489,-0.000001,-0.001182,-0.000196,0.002797,0.001709,0.692644,0.077571,9.683773,0.000000,0.000000,0,0,,38.991403,-76.936684,-9.552000,,,
2026-09-11T17:41:06.219,3.141028,-0.000000,-0.000000,-0.000000,0.000000,-15.677490,5.393632,-0.000000,0.000330,0.000695,-0.002474,-0.000001,-0.001175,0.003358,-0.000594,0.002179,0.699214,0.069235,9.687401,0.000000,0.000000,0,0,,38.991403,-76.936684,-9.552000,,,
2026-09-11T17:41:06.252,3.174440,-0.000000,-0.000000,-0.000000,0.000000,-15.677490,5.393632,-0.000000,-0.000094,-0.000198,-0.002466,-0.000001,-0.001171,-0.003207,0.000303,0.001285,0.704412,0.081984,9.679948,0.000000,0.000000,0,0,,38.991403,-76.936684,-9.552000,,,
2026-09-11T17:41:06.286,3.207905,-0.000000,-0.000000,-0.000000,0.000000,-15.677490,5.393632,-0.000000,-0.000639,-0.001346,-0.002491,-0.000001,-0.001183,-0.000554,0.002599,0.000138,0.708040,0.069235,9.686617,0.000000,0.000000,0,0,,38.991403,-76.936684,-9.552000,,,
2026-09-11T17:41:06.319,3.241316,-0.000000,-0.000000,-0.000000,0.000000,-15.677490,5.393632,-0.000000,0.000364,0.000767,-0.002501,-0.000001,-0.001188,0.003261,0.001787,0.002251,0.697057,0.079042,9.687499,0.000000,0.000000,0,0,,38.991403,-76.936684,-9.552000,,,
2026-09-11T17:41:06.352,3.274727,-0.000000,-0.000000,-0.000000,0.000000,-15.677490,5.393632,-0.000000,0.000388,0.000818,-0.002475,-0.000001,-0.001175,-0.000437,0.001930,0.002301,0.692546,0.073844,9.677006,0.000000,0.000000,0,0,,38.991403,-76.936684,-9.552000,,,
2026-09-11T17:41:06.386,3.308151,-0.000000,-0.000000,-0.000000,0.000000,-15.677490,5.393632,-0.000000,-0.001765,-0.003716,-0.002523,-0.000002,-0.001198,-0.000258,0.001687,-0.002232,0.695586,0.073060,9.689755,0.000000,0.000000,0,0,,38.991403,-76.936684,-9.552000,,,
2026-09-11T17:41:06.419,3.341565,-0.000000,-0.000000,-0.000000,0.000000,-15.677490,5.393632,-0.000000,-0.001115,-0.002348,-0.002624,-0.000002,-0.001247,0.000320,0.000035,-0.000865,0.697841,0.080513,9.685244,0.000000,0.000000,0,0,,38.991403,-76.936684,-9.552000,,,
2026-09-11T17:41:06.453,3.374972,-0.000000,-0.000000,-0.000000,0.000000,-15.677490,5.393632,-0.000000,-0.002049,-0.004315,-0.002736,-0.000002,-0.001299,0.000507,0.002827,-0.002831,0.704412,0.066979,9.686617,0.000000,0.000000,0,0,,38.991403,-76.936684,-9.552000,,,
2026-09-11T17:41:06.486,3.408397,-0.000000,-0.000000,-0.000000,0.000000,-15.677490,5.393632,-0.000000,-0.001185,-0.002494,-0.002849,-0.000002,-0.001353,0.001679,0.001778,-0.001011,0.700685,0.073060,9.687401,0.000000,0.000000,0,0,,38.991403,-76.936684,-9.552000,,,
2026-09-11T17:41:06.520,3.441809,-0.000000,-0.000000,-0.000000,0.000000,-15.677490,5.393632,-0.000000,0.001109,0.002335,-0.002852,-0.000002,-0.001355,-0.001603,-0.002331,0.003818,0.698528,0.076786,9.684459,0.000000,0.000000,0,0,,38.991403,-76.936684,-9.552000,,,
2026-09-11T17:41:06.554,3.475226,-0.000000,-0.000000,-0.000000,0.000000,-15.677490,5.393632,-0.000000,0.000551,0.001161,-0.002794,-0.000002,-0.001327,0.003329,0.002250,0.002645,0.690388,0.069333,9.679262,0.000000,0.000000,0,0,,38.991403,-76.936684,-9.552000,,,
2026-09-11T17:41:06.587,3.508655,-0.000000,-0.000000,-0.000000,0.000000,-15.677490,5.393632,-0.000000,0.000247,0.000520,-0.002766,-0.000002,-0.001314,0.002072,0.001506,0.002004,0.702254,0.074531,9.685930,0.000000,0.000000,0,0,,38.991403,-76.936684,-9.552000,,,
2026-09-11T17:41:06.620,3.542080,-0.000000,-0.000000,-0.000000,0.000000,-15.677490,5.393632,-0.000000,0.001274,0.002683,-0.002712,-0.000002,-0.001288,-0.002989,-0.001824,0.004167,0.704412,0.073746,9.682890,0.000000,0.000000,0,0,,38.991403,-76.936684,-9.552000,,,
2026-09-11T17:41:06.653,3.575493,-0.000000,-0.000000,-0.000000,0.000000,-15.677490,5.393632,-0.000000,0.000532,0.001121,-0.002648,-0.000002,-0.001258,0.001538,0.002819,0.002605,0.702156,0.070804,9.686617,0.000000,0.000000,0,0,,38.991403,-76.936684,-9.552000,,,
2026-09-11T17:41:06.687,3.608914,-0.000000,-0.000000,-0.000000,0.000000,-15.677490,5.393632,-0.000000,-0.000396,-0.000833,-0.002644,-0.000002,-0.001256,0.000077,0.000621,0.000650,0.699312,0.076002,9.691912,0.000000,0.000000,0,0,,38.991403,-76.936684,-9.552000,,,
2026-09-11T17:41:06.720,3.642334,-0.000000,-0.000000,-0.000000,0.000000,-15.677490,5.393632,-0.000000,-0.000234,-0.000493,-0.002666,-0.000002,-0.001266,-0.005720,0.000267,0.000991,0.691859,0.065606,9.686715,0.000000,0.000000,0,0,,38.991403,-76.936684,-9.552000,,,
2026-09-11T17:41:06.754,3.675747,-0.000000,-0.000000,-0.000000,0.000000,-15.677490,5.393632,-0.000000,-0.000122,-0.000257,-0.002678,-0.000002,-0.001272,0.001265,0.001497,0.001227,0.688917,0.068647,9.681517,0.000000,0.000000,0,0,,38.991403,-76.936684,-9.552000,,,
2026-09-11T17:41:06.787,3.709167,-0.000000,-0.000000,-0.000000,0.000000,-15.677490,5.393632,-0.000000,-0.000537,-0.001130,-0.002701,-0.000002,-0.001283,0.002459,-0.000203,0.000353,0.692644,0.073844,9.683773,0.000000,0.000000,0,0,,38.991403,-76.936684,-9.552000,,,
2026-09-11T17:41:06.824,3.742592,-0.000000,-0.000000,-0.000000,0.000000,-15.677490,5.393632,-0.000000,-0.001625,-0.003421,-0.002778,-0.000002,-0.001319,0.002437,0.002985,-0.001938,0.706667,0.077473,9.684361,0.000000,0.000000,0,0,,38.991403,-76.936684,-9.552000,,,
2026-09-11T17:41:06.856,3.776006,-0.000000,-0.000000,-0.000000,0.000000,-15.677490,5.393632,-0.000000,-0.000735,-0.001548,-0.002861,-0.000002,-0.001359,-0.000587,-0.000114,-0.000065,0.710296,0.069921,9.687303,0.000000,0.000000,0,0,,38.991403,-76.936684,-9.552000,,,
2026-09-11T17:41:06.888,3.809437,-0.000000,-0.000000,-0.000000,0.000000,-15.677490,5.393632,-0.000000,-0.000509,-0.001072,-0.002904,-0.000002,-0.001380,-0.001949,-0.001196,0.000411,0.699214,0.065508,9.685930,0.000000,0.000000,0,0,,38.991403,-76.936684,-9.552000,,,
2026-09-11T17:41:06.921,3.842859,-0.000000,-0.000000,-0.000000,0.000000,-15.106888,5.197324,-0.000000,0.000038,0.000080,-0.002921,-0.000002,-0.001387,-0.004269,0.001147,0.001564,0.697743,0.063253,9.691226,0.000000,0.000000,0,0,,38.991403,-76.936684,-9.552000,,,
2026-09-11T17:41:06.954,3.876271,-0.000000,-0.000000,-0.000000,0.000000,-14.933853,5.137794,-0.000000,-0.000930,-0.001957,-0.002952,-0.000002,-0.001402,0.000464,-0.000295,-0.000473,0.708825,0.069235,9.693383,0.000000,0.000000,0,0,,38.991403,-76.936684,-9.552000,,,
2026-09-11T17:41:06.987,3.909697,-0.000000,-0.000000,-0.000000,0.000000,-14.658508,5.043065,-0.000000,-0.001437,-0.003025,-0.003036,-0.000002,-0.001442,-0.003118,-0.000544,-0.001541,0.684602,0.075413,9.695050,0.000000,0.000000,0,0,,38.991403,-76.936684,-9.552000,,,
2026-09-11T17:41:07.021,3.943116,-0.000000,-0.000000,-0.000000,0.000000,-14.371490,4.944320,-0.000000,-0.002128,-0.004480,-0.003161,-0.000002,-0.001501,-0.002051,0.001399,-0.002996,0.697547,0.046091,9.676222,0.000000,0.000000,0,0,,38.991403,-76.936684,-9.552000,,,
2026-09-11T17:41:07.054,3.976530,-0.000000,-0.000000,-0.000000,0.000000,-14.137344,4.863765,-0.000000,-0.001580,-0.003326,-0.003291,-0.000003,-0.001563,-0.000288,-0.000367,-0.001842,0.692546,0.062566,9.692697,0.000000,0.000000,0,0,,38.991403,-76.936684,-9.552000,,,
2026-09-11T17:41:07.088,4.009956,-0.000000,-0.000000,-0.000000,0.000000,-13.872986,4.772816,-0.000000,-0.001978,-0.004165,-0.003417,-0.000003,-0.001623,-0.001422,-0.000712,-0.002681,0.698430,0.058055,9.692697,0.000000,0.000000,0,0,,38.991403,-76.936684,-9.552000,,,
2026-09-11T17:41:07.121,4.043376,-0.000000,-0.000000,-0.000000,0.000000,-13.670425,4.703128,-0.000000,-0.002646,-0.005570,-0.003579,-0.000003,-0.001700,0.000953,0.002243,-0.004086,0.704412,0.070706,9.691128,0.000000,0.000000,0,0,,38.991403,-76.936684,-9.552000,,,
2026-09-11T17:41:07.154,4.076786,-0.000000,-0.000000,-0.000000,0.000000,-13.568115,4.667930,-0.000000,-0.000693,-0.001459,-0.003697,-0.000003,-0.001756,-0.002484,-0.001269,0.000024,0.705981,0.078159,9.700836,0.000000,0.000000,0,0,,38.991403,-76.936684,-9.552000,,,
2026-09-11T17:41:07.188,4.110211,-0.000000,-0.000000,-0.000000,0.000000,-13.386841,4.605565,-0.000000,-0.000623,-0.001312,-0.003743,-0.000003,-0.001778,-0.003543,-0.000822,0.000171,0.695586,0.074531,9.682988,0.000000,0.000000,0,0,,38.991403,-76.936684,-9.552000,,,
2026-09-11T17:41:07.222,4.143631,-0.000000,-0.000000,-0.000000,0.000000,-13.216553,4.546979,-0.000000,-0.002328,-0.004901,-0.003847,-0.000004,-0.001827,-0.000136,0.000768,-0.003418,0.693330,0.073060,9.686715,0.000000,0.000000,0,0,,38.991403,-76.936684,-9.552000,,,
2026-09-11T17:41:07.255,4.177043,-0.000000,-0.000000,-0.000000,0.000000,-13.172607,4.531860,-0.000000,-0.001604,-0.003377,-0.003985,-0.000004,-0.001893,-0.006222,-0.000986,-0.001894,0.692055,0.098557,9.687499,0.000000,0.000000,0,0,,38.991403,-76.936684,-9.552000,,,
2026-09-11T17:41:07.288,4.210493,-0.000000,-0.000000,-0.000000,0.000000,-13.040771,4.486504,-0.000000,-0.001350,-0.002842,-0.004089,-0.000004,-0.001942,-0.006694,0.000527,-0.001359,0.691173,0.075315,9.686028,0.000000,0.000000,0,1,4.204786,38.991403,-76.936685,-9.544000,-0.014548,-0.055968,3.454411
2026-09-11T17:41:07.324,4.243919,-0.000000,-0.000000,-0.000000,0.000000,-12.996826,4.471385,-0.000000,-0.001012,-0.002129,-0.004172,-0.000004,-0.001982,-0.001322,-0.000256,-0.000646,0.704412,0.077473,9.679948,0.000000,0.000000,0,0,,38.991403,-76.936685,-9.544000,,,
2026-09-11T17:41:07.356,4.277331,-0.000000,-0.000000,-0.000000,0.000000,-12.996826,4.471385,-0.000000,-0.000242,-0.000509,-0.004216,-0.000004,-0.002003,-0.004346,0.001082,0.000974,0.706569,0.074432,9.682106,0.000000,0.000000,0,0,,38.991403,-76.936685,-9.544000,,,
2026-09-11T17:41:07.389,4.310756,-0.000000,-0.000000,-0.000000,0.000000,-12.996826,4.471385,-0.000000,-0.000344,-0.000725,-0.004237,-0.000004,-0.002013,-0.002906,0.001700,0.000759,0.711669,0.065410,9.686617,0.000000,0.000000,0,0,,38.991403,-76.936685,-9.544000,,,
2026-09-11T17:41:07.422,4.344173,-0.000000,-0.000000,-0.000000,0.000000,-12.996826,4.471385,-0.000000,0.000330,0.000694,-0.004237,-0.000004,-0.002013,-0.001274,0.000262,0.002178,0.726477,0.072765,9.687990,0.000000,0.000000,0,0,,38.991403,-76.936685,-9.544000,,,
2026-09-11T17:41:07.455,4.377584,-0.000000,-0.000000,-0.000000,0.000000,-12.996826,4.471385,-0.000000,-0.001273,-0.002679,-0.004271,-0.000004,-0.002029,-0.004245,0.000298,-0.001196,0.704216,0.053544,9.682106,0.000000,0.000000,0,0,,38.991403,-76.936685,-9.544000,,,
2026-09-11T17:41:07.489,4.411005,-0.000000,-0.000000,-0.000000,0.000000,-12.952881,4.456266,-0.000000,-0.000966,-0.002034,-0.004349,-0.000004,-0.002066,-0.003254,0.001171,-0.000551,0.668421,0.076296,9.693678,0.000000,0.000000,0,0,,38.991403,-76.936685,-9.544000,,,
2026-09-11T17:41:07.523,4.444426,-0.000000,-0.000000,-0.000000,0.000000,-12.952881,4.456266,-0.000000,0.000229,0.000481,-0.004375,-0.000005,-0.002078,-0.000273,-0.000847,0.001965,0.697939,0.087279,9.692697,0.000000,0.000000,0,0,,38.991403,-76.936685,-9.544000,,,
2026-09-11T17:41:07.556,4.477849,-0.000000,-0.000000,-0.000000,0.000000,-12.952881,4.456266,-0.000000,-0.000842,-0.001774,-0.004397,-0.000005,-0.002089,0.001701,0.001245,-0.000290,0.698332,0.043836,9.688186,0.000000,0.000000,0,0,,38.991403,-76.936685,-9.544000,,,
2026-09-11T17:41:07.589,4.511264,-0.000000,-0.000000,-0.000000,0.000000,-12.952881,4.456266,-0.000000,-0.001222,-0.002573,-0.004470,-0.000005,-0.002123,0.002666,0.001925,-0.001090,0.676267,0.048445,9.683184,0.000000,0.000000,0,0,,38.991403,-76.936685,-9.544000,,,
2026-09-11T17:41:07.623,4.544685,-0.000000,-0.000000,-0.000000,0.000000,-12.952881,4.456266,-0.000000,-0.000658,-0.001385,-0.004536,-0.000005,-0.002154,0.001923,-0.000011,0.000098,0.686858,0.097086,9.679360,0.000000,0.000000,0,0,,38.991403,-76.936685,-9.544000,,,
2026-09-11T17:41:07.656,4.578104,-0.000000,-0.000000,-0.000000,0.000000,-12.952881,4.456266,-0.000000,0.000064,0.000135,-0.004557,-0.000005,-0.002164,0.006469,0.002832,0.001618,0.695978,0.122485,9.694952,0.000000,0.000000,0,0,,38.991403,-76.936685,-9.544000,,,
2026-09-11T17:41:07.689,4.611526,-0.000000,-0.000000,-0.000000,0.000000,-12.952881,4.456266,-0.000000,0.002515,0.005296,-0.004466,-0.000005,-0.002121,0.003475,0.002234,0.006779,0.764036,0.175931,9.675633,0.000000,0.000000,0,0,,38.991403,-76.936685,-9.544000,,,
2026-09-11T17:41:07.723,4.644951,-0.000000,-0.000000,-0.000000,0.000000,-13.335342,4.587847,-0.000000,0.004252,0.008952,-0.004228,-0.000004,-0.002008,-0.000062,0.000642,0.010435,0.708432,0.102087,9.703876,0.000000,0.000000,0,0,,38.991403,-76.936685,-9.544000,,,
2026-09-11T17:41:07.756,4.678373,-0.000000,-0.000000,-0.000000,0.000000,-14.628983,5.032907,-0.000000,0.004981,0.010487,-0.003903,-0.000004,-0.001854,0.003420,0.004065,0.011971,0.684700,0.091888,9.695835,0.000000,0.000000,0,0,,38.991403,-76.936685,-9.544000,,,
2026-09-11T17:41:07.789,4.711788,-0.000000,-0.000000,-0.000000,0.000000,-16.029053,5.514582,-0.000000,0.004345,0.009147,-0.003575,-0.000003,-0.001698,-0.004502,0.002163,0.010630,0.732165,-0.048543,9.682596,0.000000,0.000000,0,0,,38.991403,-76.936685,-9.544000,,,
2026-09-11T17:41:07.823,4.745213,-0.000000,-0.000000,-0.000000,0.000000,-16.183548,5.567734,-0.000000,-0.000182,-0.000383,-0.003428,-0.000003,-0.001628,-0.037860,-0.000154,0.001101,0.695095,0.009414,9.679164,0.000000,0.000000,0,0,,38.991403,-76.936685,-9.544000,,,
2026-09-11T17:41:07.856,4.778631,-0.000000,-0.000000,-0.000000,0.000000,-16.136169,5.551434,-0.000000,-0.001983,-0.004174,-0.003504,-0.000003,-0.001665,-0.029121,0.002246,-0.002691,0.676659,0.101695,9.684655,0.000000,0.000000,0,0,,38.991403,-76.936685,-9.544000,,,
2026-09-11T17:41:07.890,4.812043,-0.000000,-0.000000,-0.000000,0.000000,-16.116943,5.544820,-0.000000,0.001625,0.003422,-0.003517,-0.000003,-0.001671,-0.013135,0.002587,0.004905,0.712061,0.105912,9.697110,0.000000,0.000000,0,0,,38.991403,-76.936685,-9.544000,,,
2026-09-11T17:41:07.923,4.845466,-0.000000,-0.000000,-0.000000,0.000000,-16.193848,5.571278,-0.000000,-0.000015,-0.000032,-0.003460,-0.000003,-0.001644,-0.000778,0.001531,0.001452,0.710982,-0.044718,9.700738,0.000000,0.000000,0,0,,38.991403,-76.936685,-9.544000,,,
2026-09-11T17:41:07.957,4.878884,-0.000000,-0.000000,-0.000000,0.000000,-16.183548,5.567734,-0.000000,-0.002225,-0.004685,-0.003539,-0.000003,-0.001681,0.012933,0.001163,-0.003201,0.653417,0.029126,9.710349,0.000000,0.000000,0,0,,38.991403,-76.936685,-9.544000,,,
2026-09-11T17:41:07.991,4.912307,-0.000000,-0.000000,-0.000000,0.000000,-16.183548,5.567734,-0.000000,-0.000800,-0.001684,-0.003646,-0.000003,-0.001732,0.023953,0.000920,-0.000201,0.624978,0.074334,9.694854,0.000000,0.000000,0,0,,38.991403,-76.936685,-9.544000,,,
2026-09-11T17:41:08.024,4.945727,-0.000000,-0.000000,-0.000000,0.000000,-16.183548,5.567734,-0.000000,-0.000756,-0.001593,-0.003700,-0.000003,-0.001758,0.022224,0.001952,-0.000109,0.676953,0.038736,9.703386,0.000000,0.000000,0,0,,38.991403,-76.936685,-9.544000,,,
2026-09-11T17:41:08.057,4.979147,-0.000000,-0.000000,-0.000000,0.000000,-16.183548,5.567734,-0.000000,-0.002014,-0.004241,-0.003798,-0.000003,-0.001804,0.018945,0.001385,-0.002757,0.679797,0.131605,9.680144,0.000000,0.000000,0,0,,38.991403,-76.936685,-9.544000,,,
2026-09-11T17:41:08.090,5.012568,-0.000000,-0.000000,-0.000000,0.000000,-16.183548,5.567734,-0.000000,-0.000643,-0.001354,-0.003891,-0.000004,-0.001848,0.009375,0.000631,0.000129,0.705687,0.051289,9.682106,0.000000,0.000000,0,1,4.996081,38.991403,-76.936685,-9.535000,-0.017861,-0.065234,3.454411
2026-09-11T17:41:08.124,5.045992,-0.000000,-0.000000,-0.000000,0.000000,-16.183548,5.567734,-0.000000,-0.000101,-0.000214,-0.003918,-0.000004,-0.001861,-0.001782,0.002311,0.001270,0.740010,0.116993,9.671318,0.000000,0.000000,0,0,,38.991403,-76.936685,-9.535000,,,
2026-09-11T17:41:08.157,5.079412,-0.000000,-0.000000,-0.000000,0.000000,-16.183548,5.567734,-0.000000,-0.000429,-0.000904,-0.003936,-0.000004,-0.001870,-0.004472,0.000089,0.000580,0.743442,0.074138,9.690834,0.000000,0.000000,0,0,,38.991403,-76.936685,-9.535000,,,
2026-09-11T17:41:08.191,5.112839,-0.000000,-0.000000,-0.000000,0.000000,-16.183548,5.567734,-0.000000,0.000806,0.001697,-0.003923,-0.000004,-0.001863,-0.007393,0.000166,0.003181,0.765605,0.080709,9.686126,0.000000,0.000000,0,0,,38.991403,-76.936685,-9.535000,,,
2026-09-11T17:41:08.224,5.146262,-0.000000,-0.000000,-0.000000,0.000000,-16.183548,5.567734,-0.000000,0.001135,0.002389,-0.003855,-0.000004,-0.001831,-0.009774,0.001517,0.003872,0.760800,0.044816,9.676418,0.000000,0.000000,0,0,,38.991403,-76.936685,-9.535000,,,
2026-09-11T17:41:08.257,5.179679,-0.000000,-0.000000,-0.000000,0.000000,-16.183548,5.567734,-0.000000,-0.000336,-0.000707,-0.003827,-0.000003,-0.001818,-0.014163,-0.000522,0.000776,0.675972,0.019319,9.682400,0.000000,0.000000,0,0,,38.991403,-76.936685,-9.535000,,,
2026-09-11T17:41:08.291,5.213104,-0.000000,-0.000000,-0.000000,0.000000,-16.116943,5.544820,-0.000000,-0.000342,-0.000720,-0.003850,-0.000004,-0.001829,-0.008480,-0.001032,0.000763,0.609385,0.050406,9.712899,0.000000,0.000000,0,0,,38.991403,-76.936685,-9.535000,,,
2026-09-11T17:41:08.324,5.246526,-0.000000,-0.000000,-0.000000,0.000000,-16.116943,5.544820,-0.000000,-0.000013,-0.000027,-0.003863,-0.000004,-0.001835,0.008586,0.002269,0.001457,0.666068,0.050798,9.703484,0.000000,0.000000,0,0,,38.991403,-76.936685,-9.535000,,,
2026-09-11T17:41:08.358,5.279943,-0.000000,-0.000000,-0.000000,0.000000,-16.116943,5.544820,-0.000000,-0.000959,-0.002018,-0.003897,-0.000004,-0.001851,0.009648,-0.001017,-0.000535,0.677149,-0.030204,9.686126,0.000000,0.000000,0,0,,38.991403,-76.936685,-9.535000,,,
2026-09-11T17:41:08.391,5.313362,-0.000000,-0.000000,-0.000000,0.000000,-16.116943,5.544820,-0.000000,-0.001188,-0.002502,-0.003973,-0.000004,-0.001887,0.011360,-0.001386,-0.001018,0.654692,0.117582,9.683381,0.000000,0.000000,0,0,,38.991403,-76.936685,-9.535000,,,
2026-09-11T17:41:08.425,5.346787,-0.000000,-0.000000,-0.000000,0.000000,-16.116943,5.544820,-0.000000,-0.000222,-0.000467,-0.004022,-0.000004,-0.001911,0.016702,0.001864,0.001017,0.732949,0.051093,9.678870,0.000000,0.000000,0,0,,38.991403,-76.936685,-9.535000,,,
2026-09-11T17:41:08.458,5.380207,-0.000000,-0.000000,-0.000000,0.000000,-16.116943,5.544820,-0.000000,-0.000148,-0.000312,-0.004035,-0.000004,-0.001917,0.009744,-0.000758,0.001172,0.748640,0.077865,9.683283,0.000000,0.000000,0,0,,38.991403,-76.936685,-9.535000,,,
2026-09-11T17:41:08.492,5.413630,-0.000000,-0.000000,-0.000000,0.000000,-16.116943,5.544820,-0.000000,-0.000672,-0.001415,-0.004064,-0.000004,-0.001930,0.009039,0.000957,0.000069,0.744913,0.083160,9.668278,0.000000,0.000000,0,0,,38.991403,-76.936685,-9.535000,,,
2026-09-11T17:41:08.525,5.447050,-0.000000,-0.000000,-0.000000,0.000000,-16.116943,5.544820,-0.000000,0.000502,0.001058,-0.004070,-0.000004,-0.001933,0.000916,-0.000103,0.002541,0.726575,0.107383,9.654941,0.000000,0.000000,0,0,,38.991403,-76.936685,-9.535000,,,
2026-09-11T17:41:08.558,5.480468,-0.000000,-0.000000,-0.000000,0.000000,-16.116943,5.544820,-0.000000,0.000214,0.000451,-0.004045,-0.000004,-0.001921,-0.007608,-0.000362,0.001935,0.695586,0.065508,9.697992,0.000000,0.000000,0,0,,38.991403,-76.936685,-9.535000,,,
2026-09-11T17:41:08.592,5.513891,-0.000000,-0.000000,-0.000000,0.000000,-16.116943,5.544820,-0.000000,-0.001337,-0.002816,-0.004084,-0.000004,-0.001940,-0.003855,0.000504,-0.001332,0.686171,0.082866,9.704073,0.000000,0.000000,0,0,,38.991403,-76.936685,-9.535000,,,
2026-09-11T17:41:08.625,5.547305,-0.000000,-0.000000,-0.000000,0.000000,-16.116943,5.544820,-0.000000,-0.000572,-0.001204,-0.004152,-0.000004,-0.001972,-0.001709,0.000397,0.000280,0.651358,0.062174,9.702798,0.000000,0.000000,0,0,,38.991403,-76.936685,-9.535000,,,
2026-09-11T17:41:08.658,5.580722,-0.000000,-0.000000,-0.000000,0.000000,-16.116943,5.544820,-0.000000,0.000275,0.000579,-0.004162,-0.000004,-0.001977,-0.002405,0.000709,0.002063,0.669794,0.073256,9.680242,0.000000,0.000000,0,0,,38.991403,-76.936685,-9.535000,,,
2026-09-11T17:41:08.693,5.614150,-0.000000,-0.000000,-0.000000,0.000000,-16.116943,5.544820,-0.000000,0.000376,0.000792,-0.004139,-0.000004,-0.001966,0.006115,0.000705,0.002275,0.762761,0.106991,9.672691,0.000000,0.000000,0,0,,38.991403,-76.936685,-9.535000,,,
2026-09-11T17:41:08.725,5.647563,-0.000000,-0.000000,-0.000000,0.000000,-16.463699,5.664117,-0.000000,0.001865,0.003927,-0.004060,-0.000004,-0.001929,0.007361,0.000975,0.005410,0.764723,0.063547,9.679360,0.000000,0.000000,0,0,,38.991403,-76.936685,-9.535000,,,
2026-09-11T17:41:08.759,5.680980,-0.000000,-0.000000,-0.000000,0.000000,-17.282181,5.945704,-0.000000,0.001850,0.003894,-0.003930,-0.000004,-0.001867,0.004980,0.001204,0.005378,0.701960,0.150238,9.674751,0.000000,0.000000,0,0,,38.991403,-76.936685,-9.535000,,,
2026-09-11T17:41:08.792,5.714401,-0.000000,-0.000000,-0.000000,0.000000,-18.056030,6.211937,-0.000000,0.002592,0.005456,-0.003773,-0.000003,-0.001792,0.001062,0.000343,0.006939,0.690682,0.016867,9.683773,0.000000,0.000000,0,0,,38.991403,-76.936685,-9.535000,,,
2026-09-11T17:41:08.826,5.747850,-0.000000,-0.000000,-0.000000,0.000000,-19.027634,6.546204,-0.000000,0.002018,0.004248,-0.003611,-0.000003,-0.001715,0.002890,0.000112,0.005732,0.665773,0.139254,9.674260,0.000000,0.000000,0,0,,38.991403,-76.936685,-9.535000,,,
2026-09-11T17:41:08.859,5.781268,-0.000000,-0.000000,-0.000000,0.000000,-20.757980,7.141507,-0.000000,0.002503,0.005269,-0.003452,-0.000003,-0.001640,0.005453,0.002397,0.006753,0.660576,0.116013,9.696031,0.000000,0.000000,0,0,,38.991403,-76.936685,-9.535000,,,
2026-09-11T17:41:08.893,5.814691,-0.000000,-0.000000,-0.000000,0.000000,-23.103561,7.948473,-0.000000,0.004314,0.009082,-0.003212,-0.000002,-0.001526,0.009460,-0.000340,0.010566,0.613602,0.144158,9.687499,0.000000,0.000000,0,0,,38.991403,-76.936685,-9.535000,,,
2026-09-11T17:41:08.926,5.848218,-0.000000,-0.000000,-0.000000,0.000000,-24.406128,8.396604,-0.000000,0.005871,0.012360,-0.002853,-0.000002,-0.001355,0.000400,0.000701,0.013843,0.677541,0.011670,9.712310,0.000000,0.000000,0,0,,38.991403,-76.936685,-9.535000,,,
2026-09-11T17:41:08.959,5.881639,-0.000000,-0.000000,-0.000000,0.000000,-25.450516,8.755911,-0.000000,0.002399,0.005051,-0.002562,-0.000002,-0.001217,-0.002486,0.003337,0.006535,0.776098,0.012553,9.676222,0.000000,0.000000,0,0,,38.991403,-76.936685,-9.535000,,,
2026-09-11T17:41:08.994,5.915060,-0.000000,-0.000000,-0.000000,0.000000,-26.474304,9.108132,-0.000000,0.003721,0.007834,-0.002346,-0.000001,-0.001115,-0.005013,-0.000951,0.009318,0.784826,0.094830,9.685244,0.000000,0.000000,0,0,,38.991403,-76.936685,-9.535000,,,
2026-09-11T17:41:09.026,5.948474,-0.000000,-0.000000,-0.000000,0.000000,-27.604523,9.496969,-0.000000,0.001933,0.004070,-0.002148,-0.000001,-0.001020,0.001687,0.000955,0.005553,0.722554,0.023340,9.701425,0.000000,0.000000,0,0,,38.991403,-76.936685,-9.535000,,,
2026-09-11T17:41:09.060,5.981895,-0.000000,-0.000000,-0.000000,0.000000,-28.700409,9.873994,-0.000000,0.002037,0.004287,-0.002008,-0.000001,-0.000954,0.000476,0.002922,0.005771,0.703235,0.121701,9.675437,0.000000,0.000000,0,0,,38.991403,-76.936685,-9.535000,,,
2026-09-11T17:41:09.093,6.015319,-0.000000,-0.000000,-0.000000,0.000000,-30.452042,10.476620,-0.000000,0.004277,0.009004,-0.001786,-0.000001,-0.000848,0.000867,0.000325,0.010488,0.686367,0.120328,9.691324,0.000000,0.000000,0,1,5.996684,38.991403,-76.936685,-9.532000,-0.021174,-0.079875,3.453816
2026-09-11T17:41:09.126,6.048732,-0.000000,-0.000000,-0.000000,0.000000,-34.624786,11.912197,-0.000000,0.005769,0.012146,-0.001432,-0.000000,-0.000680,0.006346,-0.000003,0.013629,0.614387,0.153082,9.676222,0.000000,0.000000,0,0,,38.991403,-76.936685,-9.532000,,,
2026-09-11T17:41:09.160,6.082151,-0.000000,-0.000000,-0.000000,0.000000,-37.594528,12.933897,-0.000000,0.007237,0.015236,-0.000975,-0.000000,-0.000463,0.011377,0.003370,0.016720,0.588203,0.184757,9.698973,0.000000,0.000000,0,0,,38.991403,-76.936685,-9.532000,,,
2026-09-11T17:41:09.194,6.115579,-0.000000,-0.000000,-0.000000,0.000000,-38.379364,13.203910,-0.000000,0.007970,0.016778,-0.000440,-0.000000,-0.000209,-0.010546,0.001310,0.018262,0.707059,-0.068647,9.697796,0.000000,0.000000,0,0,,38.991403,-76.936685,-9.532000,,,
2026-09-11T17:41:09.227,6.148992,-0.000000,-0.000000,-0.000000,0.000000,-39.431305,13.565816,-0.000000,0.004653,0.009797,0.000004,-0.000000,0.000002,-0.018479,0.001816,0.011280,0.825622,0.045895,9.670632,0.000000,0.000000,0,0,,38.991403,-76.936685,-9.532000,,,
2026-09-11T17:41:09.260,6.182411,-0.000000,-0.000000,-0.000000,0.000000,-40.891800,14.068280,-0.000000,0.003734,0.007861,0.000299,-0.000000,0.000142,-0.001750,0.001813,0.009344,0.773745,0.103950,9.666611,0.000000,0.000000,0,0,,38.991403,-76.936685,-9.532000,,,
2026-09-11T17:41:09.294,6.215835,-0.000000,-0.000000,-0.000000,0.000000,-42.105789,14.485937,-0.000000,0.004290,0.009031,0.000581,-0.000000,0.000276,-0.005747,0.001350,0.010514,0.700391,0.017554,9.702405,0.000000,0.000000,0,0,,38.991403,-76.936685,-9.532000,,,
2026-09-11T17:41:09.327,6.249248,-0.000000,-0.000000,-0.000000,0.000000,-43.503799,14.966903,-0.000000,0.001858,0.003912,0.000798,-0.000000,0.000379,-0.005672,0.003029,0.005396,0.685289,0.177991,9.679360,0.000000,0.000000,0,0,,38.991403,-76.936685,-9.532000,,,
2026-09-11T17:41:09.360,6.282666,-0.000000,-0.000000,-0.000000,0.000000,-45.258179,15.570474,-0.000000,0.004496,0.009465,0.001021,-0.000000,0.000485,-0.003648,0.002903,0.010949,0.692742,0.098557,9.672495,0.000000,0.000000,0,0,,38.991403,-76.936685,-9.532000,,,
2026-09-11T17:41:09.394,6.316089,-0.000000,-0.000000,-0.000000,0.000000,-48.674240,16.745725,-0.000000,0.006116,0.012877,0.001395,-0.000000,0.000662,0.006067,0.002175,0.014360,0.634098,0.123760,9.687303,0.000000,0.000000,0,0,,38.991403,-76.936685,-9.532000,,,
2026-09-11T17:41:09.427,6.349503,-0.000000,-0.000000,-0.000000,0.000000,-50.088730,17.232361,-0.000000,0.008791,0.018507,0.001919,-0.000001,0.000911,0.007476,0.003694,0.019991,0.623605,0.096105,9.699365,0.000000,0.000000,0,0,,38.991403,-76.936685,-9.532000,,,
2026-09-11T17:41:09.461,6.382924,-0.000000,-0.000000,-0.000000,0.000000,-51.719513,17.793410,-0.000000,0.005697,0.011994,0.002429,-0.000001,0.001154,-0.006045,0.003253,0.013477,0.725398,-0.056781,9.665434,0.000000,0.000000,0,0,,38.991403,-76.936685,-9.532000,,,
2026-09-11T17:41:09.494,6.416347,-0.000000,-0.000000,-0.000000,0.000000,-52.440491,18.041453,-0.000000,-0.000381,-0.000801,0.002616,-0.000002,0.001242,-0.011569,0.002761,0.000682,0.772372,0.012553,9.668082,0.000000,0.000000,0,0,,38.991403,-76.936685,-9.532000,,,
2026-09-11T17:41:09.528,6.449767,-0.000000,-0.000000,-0.000000,0.000000,-52.526321,18.070982,-0.000000,0.001398,0.002943,0.002651,-0.000002,0.001259,-0.007061,0.001820,0.004427,0.716572,0.027164,9.679752,0.000000,0.000000,0,0,,38.991403,-76.936685,-9.532000,,,
2026-09-11T17:41:09.561,6.483200,-0.000000,-0.000000,-0.000000,0.000000,-52.197418,17.957827,-0.000000,0.000560,0.001179,0.002720,-0.000002,0.001292,-0.008053,-0.000570,0.002663,0.679111,0.028930,9.704073,0.000000,0.000000,0,0,,38.991403,-76.936685,-9.532000,,,
2026-09-11T17:41:09.595,6.516622,-0.000000,-0.000000,-0.000000,0.000000,-51.665268,17.774748,-0.000000,-0.003868,-0.008142,0.002604,-0.000002,0.001237,-0.007869,0.001658,-0.006659,0.647435,0.018731,9.707309,0.000000,0.000000,0,0,,38.991403,-76.936685,-9.532000,,,
2026-09-11T17:41:09.628,6.550031,-0.000000,-0.000000,-0.000000,0.000000,-51.027374,17.555289,-0.000000,-0.004868,-0.010249,0.002297,-0.000001,0.001091,-0.002875,0.000352,-0.008765,0.613896,-0.028243,9.695639,0.000000,0.000000,0,0,,38.991403,-76.936685,-9.532000,,,
2026-09-11T17:41:09.661,6.583450,-0.000000,-0.000000,-0.000000,0.000000,-50.228806,17.280552,-0.000000,-0.005406,-0.011380,0.001935,-0.000001,0.000919,-0.002197,-0.002612,-0.009897,0.612229,0.059428,9.686715,0.000000,0.000000,0,0,,38.991403,-76.936685,-9.532000,,,
2026-09-11T17:41:09.695,6.616873,-0.000000,-0.000000,-0.000000,0.000000,-48.989410,16.854155,-0.000000,-0.006210,-0.013074,0.001527,-0.000001,0.000725,0.007086,0.001574,-0.011591,0.683033,-0.046778,9.711526,0.000000,0.000000,0,0,,38.991403,-76.936685,-9.532000,,,
2026-09-11T17:41:09.728,6.650283,-0.000000,-0.000000,-0.000000,0.000000,-47.688217,16.406497,-0.000000,-0.009959,-0.020966,0.000958,-0.000000,0.000455,0.017447,0.000177,-0.019483,0.689309,0.004805,9.720450,0.000000,0.000000,0,0,,38.991403,-76.936685,-9.532000,,,
2026-09-11T17:41:09.761,6.683701,-0.000000,-0.000000,-0.000000,0.000000,-44.875717,15.438894,-0.000000,-0.007649,-0.016104,0.000339,-0.000000,0.000161,0.021604,-0.002430,-0.014621,0.679601,0.011768,9.668082,0.000000,0.000000,0,0,,38.991403,-76.936685,-9.532000,,,
2026-09-11T17:41:09.795,6.717111,-0.000000,-0.000000,-0.000000,0.000000,-38.619003,13.286354,-0.000000,-0.011670,-0.024568,-0.000341,-0.000000,-0.000162,0.011779,-0.000754,-0.023084,0.687544,-0.009316,9.682988,0.000000,0.000000,0,0,,38.991403,-76.936685,-9.532000,,,
2026-09-11T17:41:09.828,6.750485,-0.000000,-0.000000,-0.000000,0.000000,-37.322617,12.840350,-0.000000,-0.014727,-0.031003,-0.001268,-0.000000,-0.000602,0.011850,-0.000659,-0.029520,0.757368,0.177500,9.666023,0.000000,0.000000,0,0,,38.991403,-76.936685,-9.532000,,,
2026-09-11T17:41:09.862,6.783902,-0.000000,-0.000000,-0.000000,0.000000,-35.582657,12.241740,-0.000000,-0.006183,-0.013018,-0.002004,-0.000001,-0.000952,0.022082,0.000874,-0.011534,0.659399,0.066587,9.682498,0.000000,0.000000,0,0,,38.991403,-76.936685,-9.532000,,,
2026-09-11T17:41:09.895,6.817314,-0.000000,-0.000000,-0.000000,0.000000,-33.296814,11.455326,-0.000000,-0.006615,-0.013926,-0.002454,-0.000001,-0.001166,0.016516,0.001125,-0.012442,0.657046,-0.033735,9.654745,0.000000,0.000000,0,0,,38.991403,-76.936685,-9.532000,,,
2026-09-11T17:41:09.928,6.850722,-0.000000,-0.000000,-0.000000,0.000000,-30.329132,10.434334,-0.000000,-0.011294,-0.023778,-0.003084,-0.000002,-0.001465,0.002265,0.000952,-0.022294,0.734420,0.155239,9.667690,0.000000,0.000000,0,0,,38.991403,-76.936685,-9.532000,,,
2026-09-11T17:41:09.962,6.884140,-0.000000,-0.000000,-0.000000,0.000000,-27.273560,9.383105,-0.000000,-0.006737,-0.014184,-0.003718,-0.000003,-0.001766,0.001785,0.001499,-0.012700,0.734126,0.106500,9.682694,0.000000,0.000000,0,0,,38.991403,-76.936685,-9.532000,,,
2026-09-11T17:41:09.995,6.917550,-0.000000,-0.000000,-0.000000,0.000000,-25.171051,8.659765,-0.000000,-0.007618,-0.016038,-0.004223,-0.000004,-0.002006,0.002633,-0.000400,-0.014554,0.709707,0.100714,9.680635,0.000000,0.000000,0,0,,38.991403,-76.936685,-9.532000,,,
2026-09-11T17:41:10.029,6.950961,-0.000000,-0.000000,-0.000000,0.000000,-23.002625,7.913747,-0.000000,-0.007312,-0.015393,-0.004748,-0.000005,-0.002255,-0.006194,-0.000867,-0.013910,0.728242,0.114051,9.675928,0.000000,0.000000,0,0,,38.991403,-76.936685,-9.532000,,,
2026-09-11T17:41:10.062,6.984381,-0.000000,-0.000000,-0.000000,0.000000,-21.104736,7.260804,-0.000000,-0.007287,-0.015340,-0.005261,-0.000007,-0.002499,-0.009781,0.000866,-0.013857,0.715101,0.138862,9.668573,0.000000,0.000000,0,0,,38.991403,-76.936685,-9.532000,,,
2026-09-11T17:41:10.095,7.017845,-0.000000,-0.000000,-0.000000,0.000000,-18.638992,6.412497,-0.000000,-0.003575,-0.007526,-0.005644,-0.000008,-0.002681,-0.010070,-0.000629,-0.006043,0.647043,0.083160,9.680439,0.000000,0.000000,0,1,6.998013,38.991403,-76.936685,-9.532000,-0.033274,-0.084323,3.453816
2026-09-11T17:41:10.129,7.051254,-0.000000,-0.000000,-0.000000,0.000000,-12.625351,4.343584,-0.000000,-0.007531,-0.015855,-0.006035,-0.000009,-0.002866,-0.025341,-0.001222,-0.014371,0.678914,-0.072863,9.676320,0.000000,0.000000,0,0,,38.991403,-76.936685,-9.532000,,,
2026-09-11T17:41:10.163,7.084684,-0.000000,-0.000000,-0.000000,0.000000,-12.224350,4.205625,-0.000000,-0.011914,-0.025082,-0.006719,-0.000011,-0.003191,-0.027266,0.000842,-0.023599,0.808166,0.058644,9.698483,0.000000,0.000000,0,0,,38.991403,-76.936685,-9.532000,,,
2026-09-11T17:41:10.197,7.118197,-0.000000,-0.000000,-0.000000,0.000000,-10.690384,3.677884,-0.000000,-0.008302,-0.017478,-0.007432,-0.000013,-0.003530,-0.012419,-0.002343,-0.015995,0.655476,0.226141,9.692403,0.000000,0.000000,0,0,,38.991403,-76.936685,-9.532000,,,
2026-09-11T17:41:10.229,7.151620,-0.000000,-0.000000,-0.000000,0.000000,-8.600235,2.958796,-0.000000,-0.005756,-0.012118,-0.007927,-0.000015,-0.003765,-0.015361,-0.001616,-0.010634,0.549663,-0.052466,9.705936,0.000000,0.000000,0,0,,38.991403,-76.936685,-9.532000,,,
2026-09-11T17:41:10.263,7.185035,-0.000000,-0.000000,-0.000000,0.000000,-5.241165,1.803153,-0.000000,-0.012299,-0.025893,-0.008562,-0.000017,-0.004067,-0.025080,0.003990,-0.024410,0.708923,0.080415,9.694854,0.000000,0.000000,0,0,,38.991403,-76.936685,-9.532000,,,
2026-09-11T17:41:10.296,7.218485,-0.000000,-0.000000,-0.000000,0.000000,-0.133896,0.046065,-0.000000,-0.013584,-0.028598,-0.009473,-0.000021,-0.004500,-0.019929,-0.000025,-0.027115,0.782375,-0.020496,9.673182,0.000000,0.000000,0,0,,38.991403,-76.936685,-9.532000,,,
2026-09-11T17:41:10.330,7.251906,-0.000000,-0.000000,-0.000000,0.000000,1.707001,-0.587271,-0.000000,-0.011566,-0.024350,-0.010358,-0.000026,-0.004920,0.000872,0.000602,-0.022867,0.746973,0.075021,9.649548,0.000000,0.000000,0,0,,38.991403,-76.936685,-9.532000,,,
2026-09-11T17:41:10.363,7.285318,-0.000000,-0.000000,-0.000000,0.000000,4.661637,-1.603774,-0.000000,-0.009984,-0.021018,-0.011116,-0.000029,-0.005280,0.011817,0.001548,-0.019534,0.585359,0.071589,9.725157,0.000000,0.000000,0,0,,38.991403,-76.936685,-9.532000,,,
2026-09-11T17:41:10.397,7.318740,-0.000000,-0.000000,-0.000000,0.000000,10.627213,-3.656151,-0.000000,-0.010498,-0.022101,-0.011836,-0.000033,-0.005622,-0.000523,-0.000355,-0.020618,0.697253,-0.147786,9.628954,0.000000,0.000000,0,0,,38.991403,-76.936685,-9.532000,,,
2026-09-11T17:41:10.430,7.352160,-0.000000,-0.000000,-0.000000,0.000000,14.189531,-4.881719,-0.000000,-0.014556,-0.030644,-0.012718,-0.000038,-0.006041,0.014547,0.000506,-0.029160,0.878578,0.118857,9.691128,0.000000,0.000000,0,0,,38.991403,-76.936685,-9.532000,,,
2026-09-11T17:41:10.463,7.385569,-0.000000,-0.000000,-0.000000,0.000000,14.818498,-5.098107,-0.000000,-0.006480,-0.013643,-0.013457,-0.000043,-0.006392,0.038912,0.000139,-0.012159,0.624684,0.180835,9.632680,0.000000,0.000000,0,0,,38.991403,-76.936685,-9.532000,,,
2026-09-11T17:41:10.497,7.418989,-0.000000,-0.000000,-0.000000,0.000000,16.121751,-5.546474,-0.000000,-0.004548,-0.009576,-0.013845,-0.000046,-0.006576,0.024734,0.000105,-0.008092,0.491117,0.118562,9.804689,0.000000,0.000000,0,0,,38.991403,-76.936685,-9.532000,,,
2026-09-11T17:41:10.530,7.452412,-0.000000,-0.000000,-0.000000,0.000000,17.273942,-5.942870,-0.000000,-0.005928,-0.012480,-0.014214,-0.000048,-0.006751,0.006712,0.000838,-0.010996,0.634883,0.236831,9.679850,0.000000,0.000000,0,0,,38.991403,-76.936685,-9.532000,,,
2026-09-11T17:41:10.564,7.485827,-0.000000,-0.000000,-0.000000,0.000000,17.545167,-6.036181,-0.000000,0.001082,0.002278,-0.014384,-0.000049,-0.006832,-0.002020,-0.000881,0.003762,0.677836,0.187111,9.654647,0.000000,0.000000,0,0,,38.991403,-76.936685,-9.532000,,,
2026-09-11T17:41:10.597,7.519256,-0.000000,-0.000000,-0.000000,0.000000,17.589113,-6.051300,-0.000000,0.001394,0.002935,-0.014297,-0.000049,-0.006791,-0.016161,0.001153,0.004418,0.671657,0.116699,9.699660,0.000000,0.000000,0,0,,38.991403,-76.936685,-9.532000,,,
2026-09-11T17:41:10.630,7.552681,-0.000000,-0.000000,-0.000000,0.000000,17.589113,-6.051300,-0.000000,-0.000255,-0.000538,-0.014257,-0.000048,-0.006772,-0.021206,0.003078,0.000946,0.801498,0.056486,9.691030,0.000000,0.000000,0,0,,38.991403,-76.936685,-9.532000,,,
2026-09-11T17:41:10.664,7.586095,-0.000000,-0.000000,-0.000000,0.000000,17.633058,-6.066419,-0.000000,0.001460,0.003074,-0.014215,-0.000048,-0.006752,-0.021935,-0.001252,0.004558,0.839547,0.030695,9.689166,0.000000,0.000000,0,0,,38.991403,-76.936685,-9.532000,,,
2026-09-11T17:41:10.697,7.619522,-0.000000,-0.000000,-0.000000,0.000000,17.633058,-6.066419,-0.000000,0.000747,0.001572,-0.014137,-0.000047,-0.006715,-0.017250,0.001606,0.003055,0.776392,-0.039227,9.679948,0.000000,0.000000,0,0,,38.991403,-76.936685,-9.532000,,,
2026-09-11T17:41:10.731,7.652941,-0.000000,-0.000000,-0.000000,0.000000,17.633058,-6.066419,-0.000000,-0.002183,-0.004595,-0.014188,-0.000048,-0.006739,-0.012634,0.002762,-0.003112,0.730595,0.132684,9.688676,0.000000,0.000000,0,0,,38.991403,-76.936685,-9.532000,,,
2026-09-11T17:41:10.764,7.686354,-0.000000,-0.000000,-0.000000,0.000000,17.633058,-6.066419,-0.000000,0.000273,0.000575,-0.014255,-0.000048,-0.006771,-0.007197,-0.001283,0.002058,0.656849,0.005884,9.691520,0.000000,0.000000,0,0,,38.991403,-76.936685,-9.532000,,,
2026-09-11T17:41:10.797,7.719780,-0.000000,-0.000000,-0.000000,0.000000,17.633058,-6.066419,-0.000000,-0.001039,-0.002188,-0.014282,-0.000048,-0.006784,-0.001486,0.001993,-0.000705,0.617721,0.083357,9.706917,0.000000,0.000000,0,0,,38.991403,-76.936685,-9.532000,,,
2026-09-11T17:41:10.831,7.753203,-0.000000,-0.000000,-0.000000,0.000000,17.633058,-6.066419,-0.000000,-0.000917,-0.001931,-0.014351,-0.000049,-0.006816,0.003791,0.002602,-0.000447,0.630175,0.082572,9.691814,0.000000,0.000000,0,0,,38.991403,-76.936685,-9.532000,,,
2026-09-11T17:41:10.864,7.786614,-0.000000,-0.000000,-0.000000,0.000000,17.633058,-6.066419,-0.000000,0.000191,0.000402,-0.014376,-0.000049,-0.006828,0.005656,-0.000095,0.001886,0.669402,0.011768,9.692207,0.000000,0.000000,0,0,,38.991403,-76.936685,-9.532000,,,
2026-09-11T17:41:10.898,7.820039,-0.000000,-0.000000,-0.000000,0.000000,17.633058,-6.066419,-0.000000,-0.000946,-0.001991,-0.014403,-0.000049,-0.006841,0.013093,0.002941,-0.000508,0.687642,0.089633,9.688284,0.000000,0.000000,0,0,,38.991403,-76.936685,-9.532000,,,
2026-09-11T17:41:10.931,7.853461,-0.000000,-0.000000,-0.000000,0.000000,17.633058,-6.066419,-0.000000,0.000713,0.001501,-0.014411,-0.000049,-0.006845,0.016871,0.001990,0.002985,0.728928,0.108069,9.678183,0.000000,0.000000,0,0,,38.991403,-76.936685,-9.532000,,,
2026-09-11T17:41:10.965,7.886872,-0.000000,-0.000000,-0.000000,0.000000,17.105714,-5.884993,-0.000000,0.002123,0.004470,-0.014311,-0.000049,-0.006798,0.001234,0.000814,0.005953,0.730497,0.126015,9.678183,0.000000,0.000000,0,0,,38.991403,-76.936685,-9.532000,,,
2026-09-11T17:41:10.998,7.920298,-0.000000,-0.000000,-0.000000,0.000000,16.362077,-5.629155,-0.000000,0.001779,0.003745,-0.014174,-0.000048,-0.006732,0.001479,0.001218,0.005228,0.748738,0.098165,9.684067,0.000000,0.000000,0,0,,38.991403,-76.936685,-9.532000,,,
2026-09-11T17:41:11.031,7.953717,-0.000000,-0.000000,-0.000000,0.000000,15.926057,-5.479148,-0.000000,0.002021,0.004254,-0.014040,-0.000047,-0.006669,-0.002081,0.001559,0.005737,0.747071,0.076394,9.670534,0.000000,0.000000,0,0,,38.991403,-76.936685,-9.532000,,,
2026-09-11T17:41:11.065,7.987128,-0.000000,-0.000000,-0.000000,0.000000,15.687791,-5.397176,-0.000000,0.003569,0.007515,-0.013844,-0.000046,-0.006576,-0.010253,0.000428,0.008998,0.730399,0.092281,9.693874,0.000000,0.000000,0,0,,38.991403,-76.936685,-9.532000,,,
2026-09-11T17:41:11.099,8.020554,-0.000000,-0.000000,-0.000000,0.000000,14.817125,-5.097635,-0.000000,0.003459,0.007283,-0.013596,-0.000044,-0.006458,-0.002683,0.001669,0.008766,0.712845,0.126898,9.679066,0.000000,0.000000,0,1,8.013795,38.991403,-76.936685,-9.550000,-0.050127,-0.088029,3.453816
2026-09-11T17:41:11.132,8.053975,-0.000000,-0.000000,-0.000000,0.000000,13.916932,-4.787935,-0.000000,0.007054,0.014851,-0.013226,-0.000042,-0.006282,-0.009049,0.000083,0.016335,0.665872,0.030597,9.702700,0.000000,0.000000,0,0,,38.991403,-76.936685,-9.550000,,,
2026-09-11T17:41:11.165,8.087386,-0.000000,-0.000000,-0.000000,0.000000,13.026353,-4.481544,-0.000000,0.002750,0.005789,-0.012882,-0.000039,-0.006119,-0.003780,0.002520,0.007273,0.698626,-0.016083,9.685930,0.000000,0.000000,0,0,,38.991403,-76.936685,-9.550000,,,
2026-09-11T17:41:11.199,8.120812,-0.000000,-0.000000,-0.000000,0.000000,11.759492,-4.045697,-0.000000,0.002927,0.006163,-0.012682,-0.000038,-0.006024,0.007136,0.001293,0.007646,0.719612,0.145531,9.681321,0.000000,0.000000,0,0,,38.991403,-76.936685,-9.550000,,,
2026-09-11T17:41:11.232,8.154234,-0.000000,-0.000000,-0.000000,0.000000,9.438630,-3.247235,-0.000000,0.006263,0.013184,-0.012359,-0.000036,-0.005870,0.016983,0.000816,0.014668,0.646651,0.120622,9.695443,0.000000,0.000000,0,0,,38.991403,-76.936685,-9.550000,,,
2026-09-11T17:41:11.265,8.187647,-0.000000,-0.000000,-0.000000,0.000000,5.719072,-1.967571,-0.000000,0.007922,0.016679,-0.011860,-0.000033,-0.005633,0.020990,0.002450,0.018162,0.612916,0.152395,9.680733,0.000000,0.000000,0,0,,38.991403,-76.936685,-9.550000,,,
2026-09-11T17:41:11.299,8.221070,-0.000000,-0.000000,-0.000000,0.000000,1.084215,-0.373010,-0.000000,0.009369,0.019725,-0.011251,-0.000030,-0.005344,0.014194,0.001738,0.021208,0.629783,0.029322,9.700052,0.000000,0.000000,0,0,,38.991403,-76.936685,-9.550000,,,
2026-09-11T17:41:11.332,8.254493,-0.000000,-0.000000,-0.000000,0.000000,0.787584,-0.270958,-0.000000,0.004702,0.009899,-0.010756,-0.000027,-0.005109,-0.011426,0.002717,0.011383,0.760702,-0.078747,9.686813,0.000000,0.000000,0,0,,38.991403,-76.936685,-9.550000,,,
2026-09-11T17:41:11.366,8.287905,-0.000000,-0.000000,-0.000000,0.000000,-1.018982,0.350567,-0.000000,0.004079,0.008586,-0.010447,-0.000026,-0.004962,0.007821,0.002948,0.010070,0.820130,0.190445,9.678968,0.000000,0.000000,0,0,,38.991403,-76.936685,-9.550000,,,
2026-09-11T17:41:11.400,8.321331,-0.000000,-0.000000,-0.000000,0.000000,-3.952332,1.359747,-0.000000,0.008009,0.016860,-0.010022,-0.000024,-0.004760,0.012117,-0.000135,0.018344,0.707942,0.070019,9.656608,0.000000,0.000000,0,0,,38.991403,-76.936685,-9.550000,,,
2026-09-11T17:41:11.432,8.354747,-0.000000,-0.000000,-0.000000,0.000000,-9.501114,3.268732,-0.000000,0.006327,0.013320,-0.009518,-0.000022,-0.004521,0.007321,0.002787,0.014804,0.629979,0.154455,9.695541,0.000000,0.000000,0,0,,38.991403,-76.936685,-9.550000,,,
2026-09-11T17:41:11.466,8.388160,-0.000000,-0.000000,-0.000000,0.000000,-12.064362,4.150583,-0.000000,0.007639,0.016082,-0.009027,-0.000019,-0.004288,-0.002654,0.002426,0.017566,0.658811,0.182011,9.675829,0.000000,0.000000,0,0,,38.991403,-76.936685,-9.550000,,,
2026-09-11T17:41:11.499,8.421583,-0.000000,-0.000000,-0.000000,0.000000,-12.096634,4.161686,-0.000000,0.006854,0.014429,-0.008517,-0.000017,-0.004045,-0.011703,0.000508,0.015912,0.726182,-0.067274,9.688676,0.000000,0.000000,0,0,,38.991403,-76.936685,-9.550000,,,
2026-09-11T17:41:11.533,8.455006,-0.000000,-0.000000,-0.000000,0.000000,-13.103256,4.508001,-0.000000,0.003273,0.006890,-0.008161,-0.000016,-0.003876,-0.002822,0.001603,0.008374,0.745600,0.081689,9.668278,0.000000,0.000000,0,0,,38.991403,-76.936685,-9.550000,,,
2026-09-11T17:41:11.567,8.488419,-0.000000,-0.000000,-0.000000,0.000000,-13.987656,4.812267,-0.000000,0.003227,0.006793,-0.007932,-0.000015,-0.003768,-0.005331,0.001499,0.008277,0.718631,-0.000588,9.691716,0.000000,0.000000,0,0,,38.991403,-76.936685,-9.550000,,,
2026-09-11T17:41:11.602,8.521849,-0.000000,-0.000000,-0.000000,0.000000,-14.475174,4.979991,-0.000000,0.000817,0.001720,-0.007790,-0.000014,-0.003700,-0.008863,0.001533,0.003203,0.712845,0.032460,9.676026,0.000000,0.000000,0,0,,38.991403,-76.936685,-9.550000,,,
2026-09-11T17:41:11.634,8.555274,-0.000000,-0.000000,-0.000000,0.000000,-14.513626,4.993220,-0.000000,-0.000884,-0.001861,-0.007792,-0.000014,-0.003701,-0.001473,0.001462,-0.000378,0.715199,0.042169,9.689559,0.000000,0.000000,0,0,,38.991403,-76.936685,-9.550000,,,
2026-09-11T17:41:11.666,8.588687,-0.000000,-0.000000,-0.000000,0.000000,-14.513626,4.993220,-0.000000,-0.002052,-0.004320,-0.007895,-0.000015,-0.003750,0.005480,0.001181,-0.002837,0.669304,0.000588,9.695933,0.000000,0.000000,0,0,,38.991403,-76.936685,-9.550000,,,
2026-09-11T17:41:11.700,8.622114,-0.000000,-0.000000,-0.000000,0.000000,-14.403076,4.955187,-0.000000,-0.001899,-0.003998,-0.008034,-0.000015,-0.003816,0.005339,-0.002530,-0.002514,0.623311,0.048837,9.698581,0.000000,0.000000,0,0,,38.991403,-76.936685,-9.550000,,,
2026-09-11T17:41:11.733,8.655529,-0.000000,-0.000000,-0.000000,0.000000,-14.124985,4.859513,-0.000000,-0.003230,-0.006800,-0.008215,-0.000016,-0.003902,0.009315,0.002044,-0.005317,0.637825,0.029322,9.687205,0.000000,0.000000,0,0,,38.991403,-76.936685,-9.550000,,,
2026-09-11T17:41:11.767,8.688940,-0.000000,-0.000000,-0.000000,0.000000,-13.531036,4.655173,-0.000000,-0.005528,-0.011637,-0.008523,-0.000017,-0.004048,0.007461,0.000382,-0.010154,0.689015,-0.013043,9.684459,0.000000,0.000000,0,0,,38.991403,-76.936685,-9.550000,,,
2026-09-11T17:41:11.800,8.722364,-0.000000,-0.000000,-0.000000,0.000000,-13.101196,4.507292,-0.000000,-0.006036,-0.012708,-0.008930,-0.000019,-0.004242,0.004078,0.000005,-0.011225,0.699214,0.055800,9.703190,0.000000,0.000000,0,0,,38.991403,-76.936685,-9.550000,,,
2026-09-11T17:41:11.837,8.755786,-0.000000,-0.000000,-0.000000,0.000000,-12.532654,4.311693,-0.000000,-0.005621,-0.011833,-0.009340,-0.000021,-0.004436,0.021906,0.000933,-0.010350,0.724613,0.115522,9.694756,0.000000,0.000000,0,0,,38.991403,-76.936685,-9.550000,,,
2026-09-11T17:41:11.868,8.789199,-0.000000,-0.000000,-0.000000,0.000000,-12.145386,4.178458,-0.000000,-0.003996,-0.008412,-0.009678,-0.000022,-0.004597,0.030651,-0.001333,-0.006928,0.677345,0.196819,9.683969,0.000000,0.000000,0,0,,38.991403,-76.936685,-9.550000,,,
2026-09-11T17:41:11.901,8.822624,-0.000000,-0.000000,-0.000000,0.000000,-12.073975,4.153890,-0.000000,-0.001624,-0.003420,-0.009876,-0.000023,-0.004691,0.026032,0.000826,-0.001936,0.645768,0.104931,9.688676,0.000000,0.000000,0,0,,38.991403,-76.936685,-9.550000,,,
2026-09-11T17:41:11.934,8.856044,-0.000000,-0.000000,-0.000000,0.000000,-12.073975,4.153890,-0.000000,0.000080,0.000169,-0.009930,-0.000023,-0.004717,0.013292,0.001147,0.001653,0.704019,0.235654,9.658276,0.000000,0.000000,0,0,,38.991403,-76.936685,-9.550000,,,
2026-09-11T17:41:11.967,8.889457,-0.000000,-0.000000,-0.000000,0.000000,-12.030029,4.138772,-0.000000,0.001806,0.003803,-0.009864,-0.000023,-0.004685,0.001645,-0.001229,0.005287,0.740108,0.016475,9.699758,0.000000,0.000000,0,0,,38.991403,-76.936685,-9.550000,,,
2026-09-11T17:41:12.001,8.922878,-0.000000,-0.000000,-0.000000,0.000000,-12.030029,4.138772,-0.000000,-0.000171,-0.000360,-0.009806,-0.000023,-0.004658,-0.015362,0.000782,0.001124,0.740304,0.155141,9.672887,0.000000,0.000000,0,0,,38.991403,-76.936685,-9.550000,,,
2026-09-11T17:41:12.034,8.956301,-0.000000,-0.000000,-0.000000,0.000000,-12.030029,4.138772,-0.000000,0.000379,0.000798,-0.009799,-0.000023,-0.004654,-0.028376,-0.001671,0.002281,0.750405,0.113071,9.692305,0.000000,0.000000,0,0,,38.991403,-76.936685,-9.550000,,,
2026-09-11T17:41:12.067,8.989714,-0.000000,-0.000000,-0.000000,0.000000,-12.030029,4.138772,-0.000000,0.000534,0.001125,-0.009767,-0.000023,-0.004639,-0.037759,-0.000556,0.002609,0.734714,0.100518,9.677399,0.000000,0.000000,0,0,,38.991403,-76.936685,-9.550000,,,
2026-09-11T17:41:12.101,9.023139,-0.000000,-0.000000,-0.000000,0.000000,-12.030029,4.138772,-0.000000,0.000470,0.000990,-0.009731,-0.000022,-0.004622,-0.037192,0.001240,0.002473,0.730890,0.072079,9.684950,0.000000,0.000000,0,0,,38.991403,-76.936685,-9.550000,,,
2026-09-11T17:41:12.135,9.056559,-0.000000,-0.000000,-0.000000,0.000000,-12.030029,4.138772,-0.000000,0.000586,0.001233,-0.009694,-0.000022,-0.004605,-0.031224,-0.000392,0.002717,0.741775,0.036677,9.710251,0.000000,0.000000,0,0,,38.991403,-76.936685,-9.550000,,,
2026-09-11T17:41:12.168,9.089972,-0.000000,-0.000000,-0.000000,0.000000,-12.030029,4.138772,-0.000000,0.002074,0.004366,-0.009601,-0.000022,-0.004560,-0.024967,0.000285,0.005850,0.723633,0.096105,9.671515,0.000000,0.000000,0,0,,38.991403,-76.936685,-9.550000,,,
2026-09-11T17:41:12.201,9.123394,-0.000000,-0.000000,-0.000000,0.000000,-12.019043,4.134992,-0.000000,-0.000745,-0.001568,-0.009554,-0.000022,-0.004538,0.001287,0.002827,-0.000084,0.684406,-0.040011,9.689068,0.000000,0.000000,0,0,,38.991403,-76.936685,-9.550000,,,
2026-09-11T17:41:12.235,9.156816,-0.000000,-0.000000,-0.000000,0.000000,-11.986084,4.123653,-0.000000,-0.001451,-0.003056,-0.009631,-0.000022,-0.004575,0.023097,-0.001206,-0.001572,0.635079,0.028439,9.738984,0.000000,0.000000,0,0,,38.991403,-76.936685,-9.550000,,,
2026-09-11T17:41:12.268,9.190224,-0.000000,-0.000000,-0.000000,0.000000,-11.986084,4.123653,-0.000000,-0.000622,-0.001308,-0.009704,-0.000022,-0.004609,0.024918,-0.001583,0.000175,0.623016,0.097576,9.709074,0.000000,0.000000,0,0,,38.991403,-76.936685,-9.550000,,,
2026-09-11T17:41:12.301,9.223650,-0.000000,-0.000000,-0.000000,0.000000,-11.986084,4.123653,-0.000000,-0.001953,-0.004112,-0.009795,-0.000023,-0.004652,0.024024,0.001858,-0.002629,0.601638,0.117974,9.691324,0.000000,0.000000,0,0,,38.991403,-76.936685,-9.550000,,,
2026-09-11T17:41:12.339,9.257074,-0.000000,-0.000000,-0.000000,0.000000,-11.942139,4.108534,-0.000000,-0.000804,-0.001692,-0.009892,-0.000023,-0.004698,0.000458,0.000498,-0.000209,0.669402,0.127977,9.679458,0.000000,0.000000,0,0,,38.991403,-76.936685,-9.550000,,,
2026-09-11T17:41:12.369,9.290485,-0.000000,-0.000000,-0.000000,0.000000,-11.898193,4.093415,-0.000000,-0.000885,-0.001864,-0.009951,-0.000024,-0.004727,-0.006091,0.001260,-0.000381,0.758544,0.140039,9.665925,0.000000,0.000000,0,0,,38.991403,-76.936685,-9.550000,,,
2026-09-11T17:41:12.402,9.323907,-0.000000,-0.000000,-0.000000,0.000000,-11.898193,4.093415,-0.000000,-0.001069,-0.002251,-0.010020,-0.000024,-0.004759,-0.016442,-0.000219,-0.000768,0.814540,0.036971,9.670730,0.000000,0.000000,0,0,,38.991403,-76.936685,-9.550000,,,
2026-09-11T17:41:12.435,9.357327,-0.000000,-0.000000,-0.000000,0.000000,-11.898193,4.093415,-0.000000,0.000276,0.000582,-0.010048,-0.000024,-0.004773,-0.022054,-0.000912,0.002065,0.817090,0.084828,9.675928,0.000000,0.000000,0,0,,38.991403,-76.936685,-9.550000,,,
2026-09-11T17:41:12.469,9.390741,-0.000000,-0.000000,-0.000000,0.000000,-11.898193,4.093415,-0.000000,0.001151,0.002423,-0.009998,-0.000024,-0.004749,-0.017039,0.001870,0.003907,0.763154,0.058350,9.682400,0.000000,0.000000,0,0,,38.991403,-76.936685,-9.550000,,,
2026-09-11T17:41:12.502,9.424166,-0.000000,-0.000000,-0.000000,0.000000,-11.898193,4.093415,-0.000000,-0.000726,-0.001529,-0.009983,-0.000024,-0.004742,-0.006793,-0.000010,-0.000045,0.678522,0.061978,9.684655,0.000000,0.000000,0,0,,38.991403,-76.936685,-9.550000,,,
2026-09-11T17:41:12.535,9.457589,-0.000000,-0.000000,-0.000000,0.000000,-11.898193,4.093415,-0.000000,-0.000110,-0.000232,-0.010012,-0.000024,-0.004756,-0.005459,0.000865,0.001251,0.644101,0.080218,9.690932,0.000000,0.000000,0,0,,38.991403,-76.936685,-9.550000,,,
2026-09-11T17:41:12.569,9.490998,-0.000000,-0.000000,-0.000000,0.000000,-11.854248,4.078296,-0.000000,-0.000899,-0.001893,-0.010048,-0.000024,-0.004772,-0.004037,0.000695,-0.000410,0.611249,0.019025,9.693383,0.000000,0.000000,0,0,,38.991403,-76.936685,-9.550000,,,
2026-09-11T17:41:12.602,9.524427,-0.000000,-0.000000,-0.000000,0.000000,-11.854248,4.078296,-0.000000,0.000439,0.000923,-0.010064,-0.000024,-0.004780,0.000809,-0.002156,0.002407,0.619094,0.078159,9.697110,0.000000,0.000000,0,0,,38.991403,-76.936685,-9.550000,,,
2026-09-11T17:41:12.636,9.557849,-0.000000,-0.000000,-0.000000,0.000000,-11.854248,4.078296,-0.000000,-0.001145,-0.002410,-0.010089,-0.000024,-0.004792,0.005297,0.002825,-0.000927,0.669598,0.044032,9.685440,0.000000,0.000000,0,0,,38.991403,-76.936685,-9.550000,,,
2026-09-11T17:41:12.669,9.591264,-0.000000,-0.000000,-0.000000,0.000000,-11.854248,4.078296,-0.000000,-0.001874,-0.003944,-0.010195,-0.000025,-0.004842,0.006989,0.002394,-0.002461,0.722064,0.070608,9.678968,0.000000,0.000000,0,0,,38.991403,-76.936685,-9.550000,,,
2026-09-11T17:41:12.702,9.624689,-0.000000,-0.000000,-0.000000,0.000000,-11.854248,4.078296,-0.000000,0.000250,0.000526,-0.010252,-0.000025,-0.004870,0.001310,-0.000691,0.002009,0.741089,0.055506,9.680341,0.000000,0.000000,0,0,,38.991403,-76.936685,-9.550000,,,
2026-09-11T17:41:12.737,9.658112,-0.000000,-0.000000,-0.000000,0.000000,-11.854248,4.078296,-0.000000,-0.002292,-0.004826,-0.010324,-0.000025,-0.004904,0.004142,0.001759,-0.003343,0.757564,0.082278,9.694462,0.000000,0.000000,0,0,,38.991403,-76.936685,-9.550000,,,
2026-09-11T17:41:12.769,9.691522,-0.000000,-0.000000,-0.000000,0.000000,-11.854248,4.078296,-0.000000,-0.001623,-0.003418,-0.010461,-0.000026,-0.004969,0.002051,0.002251,-0.001934,0.737558,0.072765,9.690834,0.000000,0.000000,0,0,,38.991403,-76.936685,-9.550000,,,
2026-09-11T17:41:12.803,9.724948,-0.000000,-0.000000,-0.000000,0.000000,-11.854248,4.078296,-0.000000,-0.000170,-0.000359,-0.010525,-0.000026,-0.004999,-0.005914,0.000131,0.001125,0.696468,0.085024,9.690441,0.000000,0.000000,0,0,,38.991403,-76.936685,-9.550000,,,
2026-09-11T17:41:12.839,9.758369,-0.000000,-0.000000,-0.000000,0.000000,-11.854248,4.078296,-0.000000,0.000786,0.001654,-0.010503,-0.000026,-0.004989,-0.003865,0.002801,0.003138,0.690388,0.073158,9.672495,0.000000,0.000000,0,0,,38.991403,-76.936685,-9.550000,,,
2026-09-11T17:41:12.871,9.791781,-0.000000,-0.000000,-0.000000,0.000000,-11.854248,4.078296,-0.000000,-0.000275,-0.000580,-0.010485,-0.000026,-0.004980,-0.003896,0.001884,0.000904,0.683720,0.063449,9.689853,0.000000,0.000000,0,0,,38.991403,-76.936685,-9.550000,,,
2026-09-11T17:41:12.903,9.825206,-0.000000,-0.000000,-0.000000,0.000000,-11.854248,4.078296,-0.000000,0.000331,0.000697,-0.010483,-0.000026,-0.004979,-0.006109,0.001447,0.002181,0.682935,0.058153,9.691324,0.000000,0.000000,0,0,,38.991403,-76.936685,-9.550000,,,
2026-09-11T17:41:12.937,9.858624,-0.000000,-0.000000,-0.000000,0.000000,-11.854248,4.078296,-0.000000,-0.000510,-0.001075,-0.010489,-0.000026,-0.004982,-0.001329,0.001726,0.000409,0.705000,0.049033,9.684361,0.000000,0.000000,0,0,,38.991403,-76.936685,-9.550000,,,
2026-09-11T17:41:12.970,9.892037,-0.000000,-0.000000,-0.000000,0.000000,-11.854248,4.078296,-0.000000,-0.001009,-0.002124,-0.010543,-0.000026,-0.005008,0.003281,0.001006,-0.000640,0.705687,0.052760,9.684361,0.000000,0.000000,0,0,,38.991403,-76.936685,-9.550000,,,
2026-09-11T17:41:13.003,9.925462,-0.000000,-0.000000,-0.000000,0.000000,-11.854248,4.078296,-0.000000,-0.000164,-0.000346,-0.010584,-0.000027,-0.005027,0.002920,0.000993,0.001137,0.685191,0.060409,9.684557,0.000000,0.000000,0,1,9.903309,38.991403,-76.936685,-9.563000,-0.054736,-0.100075,3.453220
2026-09-11T17:41:13.037,9.958882,-0.000000,-0.000000,-0.000000,0.000000,-11.854248,4.078296,-0.000000,-0.002032,-0.004277,-0.010661,-0.000027,-0.005064,0.007129,0.001338,-0.002793,0.684504,0.067862,9.688284,0.000000,0.000000,0,0,,38.991403,-76.936685,-9.563000,,,
2026-09-11T17:41:13.070,9.992295,-0.000000,-0.000000,-0.000000,0.000000,-11.854248,4.078296,-0.000000,-0.000725,-0.001527,-0.010758,-0.000027,-0.005110,0.007648,0.001136,-0.000043,0.702156,0.066293,9.681419,0.000000,0.000000,0,0,,38.991403,-76.936685,-9.563000,,,
2026-09-11T17:41:13.104,10.025719,-0.000000,-0.000000,-0.000000,0.000000,-11.854248,4.078296,-0.000000,-0.001640,-0.003453,-0.010841,-0.000028,-0.005150,-0.000313,0.001288,-0.001970,0.705196,0.075217,9.692599,0.000000,0.000000,0,0,,38.991403,-76.936685,-9.563000,,,
2026-09-11T17:41:13.137,10.059138,-0.000000,-0.000000,-0.000000,0.000000,-11.854248,4.078296,-0.000000,0.000610,0.001285,-0.010878,-0.000028,-0.005167,0.003741,0.001197,0.002768,0.717651,0.069137,9.691030,0.000000,0.000000,0,0,,38.991403,-76.936685,-9.563000,,,
2026-09-11T17:41:13.170,10.092552,-0.000000,-0.000000,-0.000000,0.000000,-11.854248,4.078296,-0.000000,0.000033,0.000069,-0.010855,-0.000028,-0.005156,-0.003719,-0.000500,0.001553,0.722064,0.067568,9.683479,0.000000,0.000000,0,0,,38.991403,-76.936685,-9.563000,,,
2026-09-11T17:41:13.204,10.125975,-0.000000,-0.000000,-0.000000,0.000000,-11.854248,4.078296,-0.000000,-0.000192,-0.000404,-0.010861,-0.000028,-0.005159,-0.002188,0.002769,0.001079,0.710296,0.066195,9.686617,0.000000,0.000000,0,0,,38.991403,-76.936685,-9.563000,,,
2026-09-11T17:41:13.238,10.159394,-0.000000,-0.000000,-0.000000,0.000000,-11.854248,4.078296,-0.000000,-0.001011,-0.002128,-0.010903,-0.000028,-0.005179,-0.001271,0.000804,-0.000644,0.702843,0.061782,9.683675,0.000000,0.000000,0,0,,38.991403,-76.936685,-9.563000,,,
2026-09-11T17:41:13.271,10.192806,-0.000000,-0.000000,-0.000000,0.000000,-11.854248,4.078296,-0.000000,0.000370,0.000779,-0.010926,-0.000028,-0.005190,-0.002781,-0.000489,0.002262,0.688819,0.056584,9.688284,0.000000,0.000000,0,0,,38.991403,-76.936685,-9.563000,,,
2026-09-11T17:41:13.304,10.226230,-0.000000,-0.000000,-0.000000,0.000000,-11.854248,4.078296,-0.000000,-0.000169,-0.000355,-0.010918,-0.000028,-0.005186,0.003639,0.001533,0.001129,0.677149,0.060409,9.692893,0.000000,0.000000,0,1,10.221982,38.991403,-76.936685,-9.581000,-0.057185,-0.104709,3.453220
2026-09-11T17:41:13.337,10.259652,-0.000000,-0.000000,-0.000000,0.000000,-11.854248,4.078296,-0.000000,0.000806,0.001698,-0.010896,-0.000028,-0.005175,0.002059,-0.000684,0.003181,0.682935,0.059624,9.686126,0.000000,0.000000,0,0,,38.991403,-76.936685,-9.581000,,,
2026-09-11T17:41:13.371,10.293064,-0.000000,-0.000000,-0.000000,0.000000,-11.854248,4.078296,-0.000000,-0.000290,-0.000610,-0.010878,-0.000028,-0.005167,0.002742,-0.000863,0.000873,0.694801,0.061782,9.686715,0.000000,0.000000,0,0,,38.991403,-76.936685,-9.581000,,,
2026-09-11T17:41:13.405,10.326493,-0.000000,-0.000000,-0.000000,0.000000,-11.854248,4.078296,-0.000000,-0.001389,-0.002924,-0.010937,-0.000028,-0.005195,0.004252,0.001289,-0.001441,0.708040,0.068450,9.690343,0.000000,0.000000,0,0,,38.991403,-76.936685,-9.581000,,,
2026-09-11T17:41:13.438,10.359915,-0.000000,-0.000000,-0.000000,0.000000,-11.854248,4.078296,-0.000000,0.000362,0.000762,-0.010973,-0.000029,-0.005212,-0.001708,-0.001730,0.002245,0.711767,0.070706,9.685832,0.000000,0.000000,0,0,,38.991403,-76.936685,-9.581000,,,
2026-09-11T17:41:13.471,10.393327,-0.000000,-0.000000,-0.000000,0.000000,-11.854248,4.078296,-0.000000,0.000994,0.002092,-0.010925,-0.000028,-0.005189,-0.002939,-0.001490,0.003576,0.711767,0.070706,9.686617,0.000000,0.000000,0,0,,38.991403,-76.936685,-9.581000,,,
2026-09-11T17:41:13.506,10.426750,-0.000000,-0.000000,-0.000000,0.000000,-11.854248,4.078296,-0.000000,-0.000737,-0.001552,-0.010916,-0.000028,-0.005185,-0.000200,0.000553,-0.000069,0.702156,0.064724,9.684459,0.000000,0.000000,0,0,,38.991403,-76.936685,-9.581000,,,
2026-09-11T17:41:13.538,10.460172,-0.000000,-0.000000,-0.000000,0.000000,-11.854248,4.078296,-0.000000,0.000981,0.002066,-0.010908,-0.000028,-0.005181,-0.005903,-0.002064,0.003549,0.702156,0.066293,9.693383,0.000000,0.000000,0,0,,38.991403,-76.936685,-9.581000,,,
2026-09-11T17:41:13.571,10.493591,-0.000000,-0.000000,-0.000000,0.000000,-11.854248,4.078296,-0.000000,0.000336,0.000707,-0.010861,-0.000028,-0.005159,-0.007135,-0.000753,0.002190,0.696959,0.061095,9.688970,0.000000,0.000000,0,0,,38.991403,-76.936685,-9.581000,,,
2026-09-11T17:41:13.605,10.527037,-0.000000,-0.000000,-0.000000,0.000000,-11.854248,4.078296,-0.000000,0.000014,0.000030,-0.010849,-0.000028,-0.005153,-0.000695,0.000407,0.001514,0.695488,0.058840,9.684459,0.000000,0.000000,0,0,,38.991403,-76.936685,-9.581000,,,
2026-09-11T17:41:13.638,10.560459,-0.000000,-0.000000,-0.000000,0.000000,-11.854248,4.078296,-0.000000,0.000937,0.001973,-0.010816,-0.000028,-0.005137,-0.003679,-0.000706,0.003456,0.691761,0.058153,9.686028,0.000000,0.000000,0,0,,38.991403,-76.936685,-9.581000,,,
2026-09-11T17:41:13.672,10.593872,-0.000000,-0.000000,-0.000000,0.000000,-11.854248,4.078296,-0.000000,-0.001479,-0.003114,-0.010835,-0.000028,-0.005146,0.003596,0.000684,-0.001630,0.697743,0.064822,9.688186,0.000000,0.000000,0,0,,38.991403,-76.936685,-9.581000,,,
2026-09-11T17:41:13.705,10.627290,-0.000000,-0.000000,-0.000000,0.000000,-11.854248,4.078296,-0.000000,-0.000192,-0.000405,-0.010893,-0.000028,-0.005174,0.001966,-0.001736,0.001079,0.698430,0.064037,9.684459,0.000000,0.000000,0,0,,38.991403,-76.936685,-9.581000,,,
2026-09-11T17:41:13.738,10.660711,-0.000000,-0.000000,-0.000000,0.000000,-11.854248,4.078296,-0.000000,-0.000264,-0.000555,-0.010910,-0.000028,-0.005182,-0.001224,-0.000393,0.000928,0.700685,0.065508,9.685930,0.000000,0.000000,0,0,,38.991403,-76.936685,-9.581000,,,
2026-09-11T17:41:13.772,10.694125,-0.000000,-0.000000,-0.000000,0.000000,-11.854248,4.078296,-0.000000,-0.001198,-0.002522,-0.010961,-0.000029,-0.005206,0.003419,0.000017,-0.001038,0.702156,0.071490,9.679164,0.000000,0.000000,0,0,,38.991403,-76.936685,-9.581000,,,
2026-09-11T17:41:13.805,10.727546,-0.000000,-0.000000,-0.000000,0.000000,-11.854248,4.078296,-0.000000,-0.000241,-0.000508,-0.011012,-0.000029,-0.005230,0.000040,-0.001036,0.000975,0.704412,0.072275,9.690441,0.000000,0.000000,0,0,,38.991403,-76.936685,-9.581000,,,
2026-09-11T17:41:13.839,10.760966,-0.000000,-0.000000,-0.000000,0.000000,-11.854248,4.078296,-0.000000,-0.000582,-0.001225,-0.011041,-0.000029,-0.005244,-0.004947,0.000612,0.000259,0.705098,0.064724,9.689657,0.000000,0.000000,0,0,,38.991403,-76.936685,-9.581000,,,
2026-09-11T17:41:13.872,10.794378,-0.000000,-0.000000,-0.000000,0.000000,-11.854248,4.078296,-0.000000,-0.000603,-0.001270,-0.011082,-0.000029,-0.005264,-0.001645,0.000398,0.000213,0.697743,0.065508,9.690441,0.000000,0.000000,0,0,,38.991403,-76.936685,-9.581000,,,
2026-09-11T17:41:13.905,10.827880,-0.000000,-0.000000,-0.000000,0.000000,-11.854248,4.078296,-0.000000,-0.000809,-0.001704,-0.011132,-0.000029,-0.005288,-0.003624,-0.000292,-0.000221,0.694017,0.064037,9.687499,0.000000,0.000000,0,0,,38.991403,-76.936685,-9.581000,,,
2026-09-11T17:41:13.939,10.861302,-0.000000,-0.000000,-0.000000,0.000000,-11.854248,4.078296,-0.000000,0.000141,0.000296,-0.011156,-0.000030,-0.005299,-0.000893,0.000800,0.001780,0.693232,0.058840,9.690441,0.000000,0.000000,0,0,,38.991403,-76.936685,-9.581000,,,
2026-09-11T17:41:13.973,10.894712,-0.000000,-0.000000,-0.000000,0.000000,-11.854248,4.078296,-0.000000,-0.000495,-0.001041,-0.011168,-0.000030,-0.005305,0.000805,0.000235,0.000442,0.692448,0.061095,9.678477,0.000000,0.000000,0,0,,38.991403,-76.936685,-9.581000,,,
2026-09-11T17:41:14.006,10.928131,-0.000000,-0.000000,-0.000000,0.000000,-11.854248,4.078296,-0.000000,0.000544,0.001146,-0.011166,-0.000030,-0.005304,-0.000916,-0.001190,0.002630,0.696272,0.064822,9.689755,0.000000,0.000000,0,0,,38.991403,-76.936685,-9.581000,,,
2026-09-11T17:41:14.039,10.961552,-0.000000,-0.000000,-0.000000,0.000000,-11.854248,4.078296,-0.000000,-0.000282,-0.000594,-0.011157,-0.000030,-0.005299,0.002041,0.002172,0.000889,0.700685,0.066979,9.685930,0.000000,0.000000,0,0,,38.991403,-76.936685,-9.581000,,,
2026-09-11T17:41:14.073,10.994965,-0.000000,-0.000000,-0.000000,0.000000,-11.854248,4.078296,-0.000000,-0.000144,-0.000303,-0.011172,-0.000030,-0.005307,-0.000371,0.000347,0.001181,0.703627,0.063253,9.690441,0.000000,0.000000,0,0,,38.991403,-76.936685,-9.581000,,,
2026-09-11T17:41:14.107,11.028387,-0.000000,-0.000000,-0.000000,0.000000,-11.854248,4.078296,-0.000000,-0.000374,-0.000788,-0.011190,-0.000030,-0.005315,-0.003285,0.000371,0.000695,0.703627,0.064724,9.688872,0.000000,0.000000,0,1,11.022155,38.991403,-76.936685,-9.596000,-0.062658,-0.107488,3.453220
2026-09-11T17:41:14.140,11.061804,-0.000000,-0.000000,-0.000000,0.000000,-11.854248,4.078296,-0.000000,-0.000803,-0.001690,-0.011232,-0.000030,-0.005335,0.000503,0.002021,-0.000206,0.703627,0.064724,9.685930,0.000000,0.000000,0,0,,38.991403,-76.936685,-9.596000,,,
2026-09-11T17:41:14.173,11.095214,-0.000000,-0.000000,-0.000000,0.000000,-11.854248,4.078296,-0.000000,-0.000431,-0.000906,-0.011275,-0.000030,-0.005356,-0.004275,0.000158,0.000577,0.699901,0.059526,9.679948,0.000000,0.000000,0,0,,38.991403,-76.936685,-9.596000,,,
2026-09-11T17:41:14.208,11.128639,-0.000000,-0.000000,-0.000000,0.000000,-11.854248,4.078296,-0.000000,0.000100,0.000210,-0.011287,-0.000030,-0.005361,-0.004258,0.000550,0.001694,0.698430,0.064037,9.687401,0.000000,0.000000,0,0,,38.991403,-76.936685,-9.596000,,,
2026-09-11T17:41:14.241,11.162059,-0.000000,-0.000000,-0.000000,0.000000,-11.854248,4.078296,-0.000000,-0.000838,-0.001764,-0.011313,-0.000030,-0.005373,0.001159,0.002230,-0.000280,0.699116,0.061095,9.680733,0.000000,0.000000,0,0,,38.991403,-76.936685,-9.596000,,,
2026-09-11T17:41:14.273,11.195471,-0.000000,-0.000000,-0.000000,0.000000,-11.854248,4.078296,-0.000000,0.000029,0.000061,-0.011341,-0.000031,-0.005387,-0.002940,0.000505,0.001545,0.699214,0.063253,9.687401,0.000000,0.000000,0,0,,38.991403,-76.936685,-9.596000,,,
2026-09-11T17:41:14.307,11.228893,-0.000000,-0.000000,-0.000000,0.000000,-11.854248,4.078296,-0.000000,-0.000196,-0.000412,-0.011347,-0.000031,-0.005390,-0.001837,0.001252,0.001071,0.696272,0.064037,9.686715,0.000000,0.000000,0,0,,38.991403,-76.936685,-9.596000,,,
2026-09-11T17:41:14.340,11.262312,-0.000000,-0.000000,-0.000000,0.000000,-11.854248,4.078296,-0.000000,-0.000290,-0.000611,-0.011364,-0.000031,-0.005398,0.003231,0.001992,0.000872,0.699214,0.065508,9.691912,0.000000,0.000000,0,0,,38.991403,-76.936685,-9.596000,,,
2026-09-11T17:41:14.373,11.295721,-0.000000,-0.000000,-0.000000,0.000000,-11.854248,4.078296,-0.000000,-0.000234,-0.000494,-0.011382,-0.000031,-0.005407,-0.000592,0.001801,0.000990,0.698430,0.064822,9.688970,0.000000,0.000000,0,0,,38.991403,-76.936685,-9.596000,,,
2026-09-11T17:41:14.407,11.329142,-0.000000,-0.000000,-0.000000,0.000000,-11.854248,4.078296,-0.000000,-0.000803,-0.001691,-0.011419,-0.000031,-0.005424,0.000510,0.001558,-0.000208,0.699214,0.067764,9.690441,0.000000,0.000000,0,0,,38.991403,-76.936685,-9.596000,,,
2026-09-11T17:41:14.440,11.362557,-0.000000,-0.000000,-0.000000,0.000000,-11.854248,4.078296,-0.000000,-0.001218,-0.002563,-0.011490,-0.000031,-0.005458,0.001879,0.001582,-0.001080,0.700685,0.066979,9.692697,0.000000,0.000000,0,0,,38.991403,-76.936685,-9.596000,,,
2026-09-11T17:41:14.474,11.395972,-0.000000,-0.000000,-0.000000,0.000000,-11.854248,4.078296,-0.000000,-0.000972,-0.002047,-0.011567,-0.000032,-0.005494,-0.002268,0.001451,-0.000564,0.701372,0.064822,9.684459,0.000000,0.000000,0,0,,38.991403,-76.936685,-9.596000,,,
2026-09-11T17:41:14.509,11.429396,-0.000000,-0.000000,-0.000000,0.000000,-11.854248,4.078296,-0.000000,-0.000982,-0.002068,-0.011636,-0.000032,-0.005527,-0.000627,0.002072,-0.000585,0.699214,0.069235,9.689657,0.000000,0.000000,0,0,,38.991403,-76.936685,-9.596000,,,
2026-09-11T17:41:14.541,11.462814,-0.000000,-0.000000,-0.000000,0.000000,-11.854248,4.078296,-0.000000,0.000039,0.000083,-0.011669,-0.000032,-0.005543,0.000353,0.001084,0.001566,0.701372,0.064037,9.690441,0.000000,0.000000,0,0,,38.991403,-76.936685,-9.596000,,,
2026-09-11T17:41:14.574,11.496226,-0.000000,-0.000000,-0.000000,0.000000,-11.854248,4.078296,-0.000000,-0.000116,-0.000243,-0.011672,-0.000032,-0.005544,0.000396,0.002278,0.001240,0.699116,0.061782,9.682988,0.000000,0.000000,0,0,,38.991403,-76.936685,-9.596000,,,
2026-09-11T17:41:14.608,11.529648,-0.000000,-0.000000,-0.000000,0.000000,-11.854248,4.078296,-0.000000,-0.001129,-0.002377,-0.011715,-0.000033,-0.005565,0.002794,0.002456,-0.000893,0.699214,0.064037,9.685930,0.000000,0.000000,0,0,,38.991403,-76.936685,-9.596000,,,
