timestamp,time_s,drive_pos_turns,drive_encoder_count,drive_wheel_angle_deg,drive_distance_m,drive_distance_since_start_m,drive_velocity_turns_s,drive_velocity_mps,drive_velocity_mph,drive_acceleration_mps2,drive_iq_A,steer_pos_turns,steer_encoder_count,steer_angle_deg,steer_velocity_turns_s,steer_velocity_deg_s,steer_acceleration_deg_s2,gps_received,gps_ros_stamp_s,gps_latitude_deg,gps_longitude_deg,gps_altitude_m,gps_status,gps_service,gps_cov_x_m2,gps_cov_y_m2,gps_cov_z_m2,gps_covariance_type,imu_received,imu_ros_stamp_s,imu_qx,imu_qy,imu_qz,imu_qw,imu_roll_deg,imu_pitch_deg,imu_yaw_deg,imu_gyro_x_rad_s,imu_gyro_y_rad_s,imu_gyro_z_rad_s,imu_accel_x_mps2,imu_accel_y_mps2,imu_accel_z_mps2
2026-09-11T16:28:33.678,7.615999948029639e-06,-859.6736450195312,-77370.62805175781,-309482.51220703125,-588.8764468383789,-0.0039300537109375,-1.5958887338638306,-1.0931837826967241,-2.4453824773996127,0.0,0.0,0.3027935326099396,2480.484619140625,109.00567173957825,0.0,0.0,-4599.469612960211,1,1789158513.0414479,38.99079870166667,-76.93788163333333,-3.774000000000001,0,1,14.722569000000002,35.95201600000001,99.58044099999998,1,1,1789158513.669353,-0.6853690179168196,0.7264188748337836,0.031602837013163645,-0.03982697901766373,174.23107028566466,-0.833277761224205,-93.28899720870301,0.002880142331641043,0.0550654869662715,0.41700488592784757,-0.2612491603088379,-0.14964948146820067,-11.00266921546936
2026-09-11T16:28:33.712,0.03341571199985083,-859.7257690429688,-77375.31921386719,-309501.27685546875,-588.9121517944336,-0.039635009765625,-1.5967475175857544,-1.0937720495462417,-2.4466983928647115,-0.01760851170684311,0.0,0.3027649223804474,2480.250244140625,108.99537205696106,0.0,0.0,0.0,1,1789158513.0414479,38.99079870166667,-76.93788163333333,-3.774000000000001,0,1,14.722569000000002,35.95201600000001,99.58044099999998,1,1,1789158513.701353,-0.6812598306795516,0.7301867673442792,0.03243489247553961,-0.04074684831836993,174.0939537330901,-0.8773724858229502,-93.92539598080876,-0.024915098670994652,0.06180978826182799,0.41107129006984244,0.0381478691291809,0.2160405030632019,-8.79303480102539
2026-09-11T16:28:33.745,0.0668242559997907,-859.7772827148438,-77379.95544433594,-309519.82177734375,-588.947438659668,-0.074921875,-1.5449411869049072,-1.0582847130298616,-2.367315481902873,1.062223379637377,0.0,0.3025799095630646,2478.734619140625,108.92876744270325,0.0,0.0,0.0,1,1789158513.0414479,38.99079870166667,-76.93788163333333,-3.774000000000001,0,1,14.722569000000002,35.95201600000001,99.58044099999998,1,1,1789158513.741353,-0.6762405932126511,0.7347574077183586,0.03213024125224151,-0.042401173232262224,173.99695925421332,-1.0802960272639663,-94.69296538154978,-0.034878659771854684,0.06793414860707608,0.41765432294251464,0.3723585066413879,-0.08659272092819213,-10.116049974346161
2026-09-11T16:28:33.778,0.10023027199986245,-859.82861328125,-77384.5751953125,-309538.30078125,-588.9826000976562,-0.11008331298828126,-1.5200532674789429,-1.041236488223076,-2.3291796891174723,0.5103339711849795,0.0,0.3025799095630646,2478.734619140625,108.92876744270325,0.0,0.0,0.0,1,1789158513.0414479,38.99079870166667,-76.93788163333333,-3.774000000000001,0,1,14.722569000000002,35.95201600000001,99.58044099999998,1,1,1789158513.769353,-0.6725275361756091,0.7380818195521239,0.031280294126551846,-0.044311216768975155,173.92647071402408,-1.3372266272311457,-95.25056168150063,-0.025766295747192285,0.06757234185313767,0.4185493277829374,0.712257001247406,0.1961330032348633,-9.481755841884613
2026-09-11T16:28:33.814,0.1336421439998503,-859.8817749023438,-77389.35974121094,-309557.43896484375,-589.0190158081056,-0.14649902343750001,-1.5477759838104248,-1.060226548910141,-2.3716592450566836,-0.568362667230136,0.0,0.30245211720466614,2477.687744140625,108.88276219367981,-0.0762939527630806,-27.465822994709015,-822.0378371711408,1,1789158513.0414479,38.99079870166667,-76.93788163333333,-3.774000000000001,0,1,14.722569000000002,35.95201600000001,99.58044099999998,1,1,1789158513.8093529,-0.6672987261426776,0.7426453599388738,0.03267952071852247,-0.04606873533350199,173.6814743400231,-1.4217378378757484,-96.03941279830309,-0.02449115819568523,0.06290288797235204,0.4133833277299594,-0.03402907606124878,0.14455002338409423,-10.119678434906005
2026-09-11T16:28:33.846,0.1670540479999545,-859.9340209960938,-77394.06188964844,-309576.24755859375,-589.0548043823243,-0.18228759765625002,-1.5489895343780518,-1.0610578310489656,-2.3735187702419567,-0.024879819444649415,0.0,0.3024578392505646,2477.734619140625,108.88482213020325,0.0,0.0,822.0370498677169,1,1789158513.0414479,38.99079870166667,-76.93788163333333,-3.774000000000001,0,1,14.722569000000002,35.95201600000001,99.58044099999998,1,1,1789158513.841353,-0.6629820467371944,0.7464601573362828,0.03286278293033608,-0.04660554378747524,173.63301448810682,-1.4900583540817813,-96.6962011781805,-0.002199812989213653,0.05532658822236985,0.41507123564956305,0.01196411319732666,0.02265336187362671,-10.276388704490662
2026-09-11T16:28:33.879,0.20045699199999945,-859.98681640625,-77398.8134765625,-309595.25390625,-589.0909692382813,-0.21845245361328128,-1.6017231941223145,-1.0971803879737856,-2.4543226287888875,-1.0814183601532672,0.0,0.3026428520679474,2479.250244140625,108.95142674446106,0.0,0.0,0.0,1,1789158513.0414479,38.99079870166667,-76.93788163333333,-3.774000000000001,0,1,14.722569000000002,35.95201600000001,99.58044099999998,1,1,1789158513.869353,-0.6591150319898581,0.7497565633256575,0.03322152612268009,-0.04825764765493461,173.48420475401008,-1.6371266014585215,-97.26905037140646,-0.00789517140432155,0.04383918015159357,0.41912877709459945,-1.4921798886108397,0.43002160959243774,-9.689656825313568
2026-09-11T16:28:33.912,0.2338615359999494,-860.0403442382812,-77403.63098144531,-309614.52392578125,-589.1276358032227,-0.2551190185546875,-1.655399203300476,-1.1339484542608262,-2.536570450655031,-1.1006905613528426,0.0,0.3030090630054474,2482.250244140625,109.08326268196106,-0.0457763709127903,-16.479493528604507,-493.3308932051038,1,1789158513.0414479,38.99079870166667,-76.93788163333333,-3.774000000000001,0,1,14.722569000000002,35.95201600000001,99.58044099999998,1,1,1789158513.901353,-0.654603432604193,0.7535179287262344,0.03379706316063351,-0.05062445686276318,173.26534078340882,-1.83638770833893,-97.92830534560866,0.022196399295163087,0.04353584192759695,0.42827517503967577,0.4132522378158569,0.3957964005279541,-9.926487426719664
2026-09-11T16:28:33.945,0.2672618879998936,-860.0917358398438,-77408.25622558594,-309633.02490234375,-589.162839050293,-0.290322265625,-1.6568995714187622,-1.1349762064218523,-2.538869466763267,-0.030770698495265453,0.0,0.3027649223804474,2480.250244140625,108.99537205696106,0.0,0.0,493.39281001086607,1,1789158513.0414479,38.99079870166667,-76.93788163333333,-3.774000000000001,0,1,14.722569000000002,35.95201600000001,99.58044099999998,1,1,1789158513.941353,-0.6489828303833697,0.7582113525333785,0.035307606497475,-0.051867173438648606,173.05432357656008,-1.8810431281944944,-98.76280426134664,-0.016089841308285325,0.01589157190525877,0.41823935730778317,0.6789143906974793,0.7925734660720826,-9.339167148532868
2026-09-11T16:28:33.980,0.3006714559999182,-860.1458740234375,-77413.12866210938,-309652.5146484375,-589.1999237060547,-0.3274069213867188,-1.5790603160858154,-1.0816563165187836,-2.419596269950748,1.595946703142927,0.0,0.3019695580005646,2473.734619140625,108.70904088020325,-0.01525880303233862,-5.493169091641903,-164.4190398282869,1,1789158513.0414479,38.99079870166667,-76.93788163333333,-3.774000000000001,0,1,14.722569000000002,35.95201600000001,99.58044099999998,1,1,1789158513.969353,-0.6447417173418623,0.7617998209418361,0.03583967960722155,-0.051813782893205096,173.02227730151455,-1.8755563581543815,-99.4004901925712,-0.0197604432581546,0.007221648845976938,0.4467562919561185,1.1826820095062256,0.5049444168281555,-9.651607022686004
2026-09-11T16:28:34.013,0.33409894399983386,-860.202392578125,-77418.21533203125,-309672.861328125,-589.2386389160157,-0.36612213134765625,-1.6063441038131714,-1.1003457111120225,-2.4614032549928893,-0.5591025743031026,0.0,0.3026428520679474,2479.250244140625,108.95142674446106,0.0,0.0,164.33089712441924,1,1789158513.0414479,38.99079870166667,-76.93788163333333,-3.774000000000001,0,1,14.722569000000002,35.95201600000001,99.58044099999998,1,1,1789158514.009353,-0.6387026680305898,0.7667383823565217,0.035930365600059515,-0.05366715662075403,172.8922852534034,-2.0860098234448956,-100.28098913882134,-0.026087610862484442,0.013410411840623632,0.4418639595298532,1.2041585733604432,0.8814217165374756,-9.763500901031495
2026-09-11T16:28:34.046,0.3675070079998477,-860.258544921875,-77423.26904296875,-309693.076171875,-589.2771032714844,-0.4045864868164063,-1.6598402261734009,-1.1369905549287798,-2.543375436043259,-1.096886183429907,0.0,0.3023205101490021,2476.609619140625,108.83538365364075,-0.0457763746380806,-16.479494869709015,-493.27895413820414,1,1789158514.0425649,38.99079850333333,-76.93787595,-3.812000000000001,0,1,9.641024999999999,12.264003999999998,56.746089000000005,1,1,1789158514.041353,-0.6338288730118821,0.7707616588586544,0.03692200030834221,-0.053143116799575695,172.85619543494644,-2.0124635894142258,-101.01064325396398,-0.01783743948830725,0.006954089871646207,0.44333422489173324,-0.3565697998809815,0.2893942462730408,-10.033085713977814
2026-09-11T16:28:34.079,0.400909375999845,-860.31591796875,-77428.4326171875,-309713.73046875,-589.3164038085938,-0.4438870239257813,-1.7131881713867188,-1.1735338973999023,-2.625120565049886,-1.0940344849540464,0.0,0.3027649223804474,2480.250244140625,108.99537205696106,0.0,0.0,493.363071435844,1,1789158514.0425649,38.99079850333333,-76.93787595,-3.812000000000001,0,1,9.641024999999999,12.264003999999998,56.746089000000005,1,1,1789158514.0693529,-0.6294386969011964,0.7741995672487643,0.0380821468421417,-0.05451336539825387,172.6646282920342,-2.089908357043923,-101.64251130609824,0.006606943883424535,-0.0019643680731196178,0.45252827032538895,0.44571224985122676,0.5482898105430604,-9.517255915470123
2026-09-11T16:28:34.114,0.4343178239998906,-860.3739624023438,-77433.65661621094,-309734.62646484375,-589.3561642456056,-0.48364746093750005,-1.7403606176376343,-1.1921470230817797,-2.666756941396247,-0.5571382927411632,0.0,0.3027649223804474,2480.250244140625,108.99537205696106,0.0,0.0,0.0,1,1789158514.0425649,38.99079850333333,-76.93787595,-3.812000000000001,0,1,9.641024999999999,12.264003999999998,56.746089000000005,1,1,1789158514.109353,-0.6230378692657352,0.7791914353288588,0.03959879547926974,-0.055825226981681526,172.45148168428284,-2.1579242180247022,-102.56628907283987,-0.01741489527639942,-0.025634348855741514,0.46112000263418146,0.16465365621566772,1.1526736600112915,-9.80792502626419
2026-09-11T16:28:34.148,0.4677329919998101,-860.4359130859375,-77439.23217773438,-309756.9287109375,-589.3986004638672,-0.5260836791992188,-1.8197414875030518,-1.2465229189395906,-2.788392356253555,-1.6272818337451387,0.0,0.3025799095630646,2478.734619140625,108.92876744270325,0.0,0.0,0.0,1,1789158514.0425649,38.99079850333333,-76.93787595,-3.812000000000001,0,1,9.641024999999999,12.264003999999998,56.746089000000005,1,1,1789158514.141353,-0.6175855446313916,0.7834505531333189,0.04249004319387453,-0.05466188879673669,172.289470648687,-1.9006949619428843,-103.37524684109259,-0.0423839246212807,-0.0582337831574168,0.4758076464214145,-0.13317430919647216,0.6337057334518432,-10.743577518196105
2026-09-11T16:28:34.180,0.501145471999962,-860.4992065429688,-77444.92858886719,-309779.71435546875,-589.4419564819336,-0.569439697265625,-1.8985236883163452,-1.3004887264966967,-2.909110429708069,-1.6151392400941464,0.0,0.30256083607673645,2478.578369140625,108.92190098762512,0.0457763709127903,16.479493528604507,493.21371920101757,1,1789158514.0425649,38.99079850333333,-76.93787595,-3.812000000000001,0,1,9.641024999999999,12.264003999999998,56.746089000000005,1,1,1789158514.169353,-0.6126664022313137,0.7872407551498675,0.043779887451247966,-0.05454534318125318,172.1929535630442,-1.8472897031550974,-104.09060030486818,-0.04214795610641106,-0.0759333416348165,0.49524153857652103,0.11483587339401245,-0.010395049171447754,-8.797545860099792
2026-09-11T16:28:34.213,0.5345518079998328,-860.5630493164062,-77450.67443847656,-309802.69775390625,-589.4856887817383,-0.6131719970703126,-1.925096869468689,-1.318691355586052,-2.9498285513288534,-0.5448855297817065,0.0,0.3024578392505646,2477.734619140625,108.88482213020325,0.0,0.0,-493.30442969466066,1,1789158514.0425649,38.99079850333333,-76.93787595,-3.812000000000001,0,1,9.641024999999999,12.264003999999998,56.746089000000005,1,1,1789158514.201353,-0.6067894612615273,0.7917903132345034,0.045515925235204494,-0.05294289489568732,172.16132414352649,-1.6390074478747494,-104.95811177752532,-0.04710835637350415,-0.10096729722787197,0.5074075306604727,-0.19672140224456788,0.19299487518310546,-9.471654992218017
2026-09-11T16:28:34.247,0.5679573439999785,-860.627685546875,-77456.49169921875,-309825.966796875,-589.5299645996095,-0.6574478149414062,-1.951082468032837,-1.3364914906024934,-2.9896463193505993,-0.5328498550768276,0.0,0.30252841114997864,2478.312744140625,108.91022801399231,0.015258791856467724,5.493165068328381,164.43876453005925,1,1789158514.0425649,38.99079850333333,-76.93787595,-3.812000000000001,0,1,9.641024999999999,12.264003999999998,56.746089000000005,1,1,1789158514.241353,-0.5997692638139827,0.7971526684572762,0.04715482927320046,-0.050998778727460385,172.16065098154738,-1.4178480163408875,-105.98801287913292,-0.01634064512179691,-0.12853267836802001,0.508170065010669,0.08727918643951416,0.3251885193634033,-9.76065697248459
2026-09-11T16:28:34.281,0.6013667839999925,-860.6924438476562,-77462.31994628906,-309849.27978515625,-589.5743240356446,-0.7018072509765626,-1.9511510133743286,-1.3365384441614152,-2.9897513514705927,-0.0014053979630246508,0.0,0.3023357689380646,2476.734619140625,108.84087681770325,0.0,0.0,-164.41954933474128,1,1789158514.0425649,38.99079850333333,-76.93787595,-3.812000000000001,0,1,9.641024999999999,12.264003999999998,56.746089000000005,1,1,1789158514.269353,-0.5947483191417742,0.800870175601012,0.0488410786770191,-0.049959461010941834,172.0857761898438,-1.256355661918995,-106.71588873615464,0.006370277236854103,-0.1336135063535007,0.5012021870379321,0.15416054054260256,0.4943532346534729,-9.954828645687103
2026-09-11T16:28:34.315,0.6347873599997911,-860.7575073242188,-77468.17565917969,-309872.70263671875,-589.6188925170899,-0.746375732421875,-1.951363205909729,-1.3366837960481646,-2.9900764943811806,-0.004349173597433887,0.0,0.3022613823413849,2476.125244140625,108.81409764289856,-0.030517585575580597,-10.986330807209015,-328.72954694961703,1,1789158514.0425649,38.99079850333333,-76.93787595,-3.812000000000001,0,1,9.641024999999999,12.264003999999998,56.746089000000005,1,1,1789158514.3093529,-0.5872722889116151,0.8062790117925712,0.051256210345478295,-0.04897157053156105,171.94071954691228,-1.0753212775226366,-107.78703735104357,-0.02011753762311264,-0.1365353620542644,0.5048296793552771,0.9783114201354981,0.42325502098083495,-8.248275384540557
2026-09-11T16:28:34.347,0.6682071999998698,-860.8242797851562,-77474.18518066406,-309896.74072265625,-589.6646316528321,-0.7921148681640625,-2.0037147998809814,-1.3725446379184725,-3.0702949130244965,-1.0730405013974775,0.0,0.3024578392505646,2477.734619140625,108.88482213020325,0.0,0.0,328.736786507151,1,1789158514.0425649,38.99079850333333,-76.93787595,-3.812000000000001,0,1,9.641024999999999,12.264003999999998,56.746089000000005,1,1,1789158514.341353,-0.5813899920213345,0.8104654359178817,0.05387487693292518,-0.04721177814203549,171.82262559944905,-0.7954284896226316,-108.63536489754391,-0.004147774967364524,-0.1435564725691872,0.5174379378716841,0.08404299188613891,0.4831736534690857,-10.705331582565307
2026-09-11T16:28:34.380,0.7016082879999885,-860.890380859375,-77480.13427734375,-309920.537109375,-589.709910888672,-0.8373941040039063,-2.00472092628479,-1.3732338345050812,-3.071836601881442,-0.02063395619347066,0.0,0.3026428520679474,2479.250244140625,108.95142674446106,0.0,0.0,0.0,1,1789158514.0425649,38.99079850333333,-76.93787595,-3.812000000000001,0,1,9.641024999999999,12.264003999999998,56.746089000000005,1,1,1789158514.369353,-0.5762401072315061,0.8140939352677952,0.05453299958321594,-0.047165191979615606,171.7692079858666,-0.7990493761126569,-109.35849658022485,-0.004916941568718426,-0.13666783254449077,0.5145132896441171,0.22329742418289183,0.03049868200302124,-10.438786831169129
2026-09-11T16:28:34.413,0.7350168319999284,-860.9575805664062,-77486.18225097656,-309944.72900390625,-589.7559426879883,-0.8834259033203126,-2.0054097175598145,-1.373705656528473,-3.0728920376889577,-0.01412279515661501,0.0,0.3026428520679474,2479.250244140625,108.95142674446106,0.0,0.0,0.0,1,1789158514.0425649,38.99079850333333,-76.93787595,-3.812000000000001,0,1,9.641024999999999,12.264003999999998,56.746089000000005,1,1,1789158514.409353,-0.5685197481221849,0.819496329284717,0.05708532132767741,-0.04418516009791227,171.73181310297673,-0.4303462298132818,-110.4674867955913,-0.007723081940074908,-0.1368455070623438,0.5041643598444168,-0.0288315514755249,0.3678474475669861,-9.295135289306641
2026-09-11T16:28:34.448,0.7684250879999581,-861.0235595703125,-77492.12036132812,-309968.4814453125,-589.8011383056642,-0.9286215209960939,-1.9801234006881714,-1.3563845294713974,-3.0341457799556997,0.5184684605224607,0.0,0.3024578392505646,2477.734619140625,108.88482213020325,0.0,0.0,0.0,1,1789158514.0425649,38.99079850333333,-76.93787595,-3.812000000000001,0,1,9.641024999999999,12.264003999999998,56.746089000000005,1,1,1789158514.441353,-0.5623544974954955,0.8238052078613346,0.05643111109892618,-0.04379415882595408,171.82265631966595,-0.4977423736665097,-111.32715166962315,0.013523509176152863,-0.12134070011932697,0.5099996936655347,1.0806928478240967,-0.09894910013198853,-10.50213779121399
2026-09-11T16:28:34.481,0.8018345919999774,-861.0886840820312,-77497.98156738281,-309991.92626953125,-589.8457485961915,-0.9732318115234376,-1.9287153482437134,-1.3211700135469437,-2.9553731512771617,1.0540268997837665,0.0,0.3022136986255646,2475.734619140625,108.79693150520325,0.0457763709127903,16.479493528604507,493.2576529299863,1,1789158514.0425649,38.99079850333333,-76.93787595,-3.812000000000001,0,1,9.641024999999999,12.264003999999998,56.746089000000005,1,1,1789158514.469353,-0.5571991179438038,0.8273095689802478,0.055820361060586444,-0.04440841505198537,171.84456070413103,-0.6459033615939087,-112.03283664625313,0.00858160939913092,-0.09666348982537915,0.4903427484320233,1.116879386920929,0.07992419881820678,-9.294252690792083
2026-09-11T16:28:34.514,0.8352552959997865,-861.1513671875,-77503.623046875,-310014.4921875,-589.8886865234375,-1.0161697387695314,-1.8518507480621338,-1.2685177624225616,-2.837593419878669,1.5754381213717945,0.0,0.3022766411304474,2476.250244140625,108.81959080696106,0.015258791856467724,5.493165068328381,-328.72821770417744,1,1789158514.0425649,38.99079850333333,-76.93787595,-3.812000000000001,0,1,9.641024999999999,12.264003999999998,56.746089000000005,1,1,1789158514.509353,-0.549993088738588,0.832195492454958,0.05561281819051337,-0.04319119274049211,171.94756915364093,-0.613861566929861,-113.03583085302138,-0.019995888174248636,-0.09551453957879127,0.4864136632199337,-0.984195410232544,-0.2744881380271912,-10.120462966918945
2026-09-11T16:28:34.547,0.8686598399999639,-861.2144165039062,-77509.29748535156,-310037.18994140625,-589.9318753051758,-1.0593585205078127,-1.852831482887268,-1.2691895657777787,-2.839096201185078,-0.020111136832567985,0.0,0.3022136986255646,2475.734619140625,108.79693150520325,0.0,0.0,-164.44364779531847,1,1789158514.0425649,38.99079850333333,-76.93787595,-3.812000000000001,0,1,9.641024999999999,12.264003999999998,56.746089000000005,1,1,1789158514.541353,-0.5439602706201103,0.8361192393291901,0.05771553813205133,-0.04099705195011799,171.88745329364764,-0.3304224838612639,-113.88233325231394,0.02457737746073375,-0.06149423273306741,0.468639753716399,-0.6753839966392517,-0.14209836084365843,-12.400705262527467
2026-09-11T16:28:34.580,0.9020632319998185,-861.2721557617188,-77514.49401855469,-310057.97607421875,-589.9714266967774,-1.098909912109375,-1.7236732244491577,-1.180716158747673,-2.641186826117734,2.648635414945004,0.0,0.3026428520679474,2479.250244140625,108.95142674446106,0.0,0.0,0.0,1,1789158514.0425649,38.99079850333333,-76.93787595,-3.812000000000001,0,1,9.641024999999999,12.264003999999998,56.746089000000005,1,1,1789158514.5693529,-0.5388629126365677,0.8394313993326309,0.057162253332353655,-0.04140246361345711,171.9178682582882,-0.45286020229876217,-114.57211200247325,-0.00672824426643814,-0.0329012017293451,0.4573212935172158,0.629783073387146,0.5245577171516419,-7.968001322917938
2026-09-11T16:28:34.615,0.9354856319998817,-861.3284301757812,-77519.55871582031,-310078.23486328125,-590.0099746704102,-1.1374578857421875,-1.6462165117263794,-1.12765831053257,-2.522499799867056,1.587493663381533,0.0,0.3025207817554474,2478.250244140625,108.90748143196106,0.0,0.0,0.0,1,1789158514.0425649,38.99079850333333,-76.93787595,-3.812000000000001,0,1,9.641024999999999,12.264003999999998,56.746089000000005,1,1,1789158514.609353,-0.532816656644238,0.8434054618505021,0.056150126785728505,-0.04025916771549231,172.08981356102993,-0.46262021651040747,-115.4031758068355,-0.002413790355508158,-0.03353650157707104,0.42147537227390586,0.9782133536338806,-0.8172862244796752,-8.89953502178192
2026-09-11T16:28:34.648,0.9689020159999018,-861.3817749023438,-77524.35974121094,-310097.43896484375,-590.0465158081055,-1.1739990234375002,-1.5946696996688843,-1.0923487442731858,-2.4435145496447404,1.0566543124283834,0.0,0.3021221458911896,2474.984619140625,108.76397252082825,0.0610351599752903,21.972657591104507,657.5414500590872,1,1789158514.0425649,38.99079850333333,-76.93787595,-3.812000000000001,0,1,9.641024999999999,12.264003999999998,56.746089000000005,1,1,1789158514.641353,-0.5282426376893652,0.8462665013457176,0.05512217600832627,-0.04188400815547602,172.09349773799553,-0.7250572648814865,-116.00477160545667,0.00316724899359411,-0.019219216657111158,0.4066666026365844,1.3812666752815246,-0.5974211278533935,-9.862842267169952
2026-09-11T16:28:34.680,1.0023027199999888,-861.4307861328125,-77528.77075195312,-310115.0830078125,-590.0800885009766,-1.207571716308594,-1.491683006286621,-1.0218028593063355,-2.285707899307298,2.112107725833162,0.0,0.30242350697517395,2477.453369140625,108.87246251106262,0.015258791856467724,5.493165068328381,-493.38758017595103,1,1789158514.0425649,38.99079850333333,-76.93787595,-3.812000000000001,0,1,9.641024999999999,12.264003999999998,56.746089000000005,1,1,1789158514.669353,-0.5249190265145746,0.8483851287657962,0.05382297608800233,-0.042494424776260864,172.18620965573234,-0.8937282277720335,-116.44654392564661,-0.003898716483104933,-7.853981633974482e-06,0.37431099083141267,0.05599597242355347,-0.7654090451240539,-9.12410731048584
2026-09-11T16:28:34.714,1.0357164159997865,-861.477783203125,-77533.00048828125,-310132.001953125,-590.1122814941407,-1.2397647094726563,-1.4400103092193604,-0.9864070618152619,-2.206529755313307,1.059320031261668,0.0,0.3022766411304474,2476.250244140625,108.81959080696106,0.0,0.0,-164.39860673783699,1,1789158514.0425649,38.99079850333333,-76.93787595,-3.812000000000001,0,1,9.641024999999999,12.264003999999998,56.746089000000005,1,1,1789158514.709353,-0.5201130382381963,0.8513202957829352,0.05329080250627712,-0.043546203174619894,172.18026643074685,-1.0720121908964122,-117.08114912825852,0.00874741567807038,0.012194440950759182,0.3625883123774676,-0.01902490131378174,-0.8021839832305908,-10.047207290210723
2026-09-11T16:28:34.748,1.0691251839998586,-861.5206909179688,-77536.86218261719,-310147.44873046875,-590.1416732788086,-1.269156494140625,-1.3108837604522705,-0.8979553759098053,-2.008668969017995,2.647559045136467,0.0,0.30231669545173645,2476.578369140625,108.83401036262512,0.0,0.0,0.0,1,1789158514.0425649,38.99079850333333,-76.93787595,-3.812000000000001,0,1,9.641024999999999,12.264003999999998,56.746089000000005,1,1,1789158514.741353,-0.5174353874415897,0.8528674760084552,0.05327933921318081,-0.045155289868920596,172.08850357745322,-1.2540598083884698,-117.42283294258444,0.0006419320988835144,0.01779921677768857,0.3415176504498408,0.2135888405227661,-0.5334817687988281,-10.272564110927581
2026-09-11T16:28:34.782,1.1025285759999406,-861.563720703125,-77540.73486328125,-310162.939453125,-590.1711486816407,-1.2986318969726562,-1.260164499282837,-0.8632126820087433,-1.930951776146972,1.040094787408916,0.0,0.3022899925708771,2476.359619140625,108.82439732551575,-0.0762939527630806,-27.465822994709015,-822.2465249828991,1,1789158514.0425649,38.99079850333333,-76.93787595,-3.812000000000001,0,1,9.641024999999999,12.264003999999998,56.746089000000005,1,1,1789158514.769353,-0.5143602494327184,0.8547306687366208,0.052646878510760504,-0.045796549079964444,172.11706181803768,-1.3825957887950235,-117.82731658179344,-0.006880960575987644,0.013648998349371255,0.3362022502128921,1.193469324684143,-0.35127420879364013,-9.702013204517366
2026-09-11T16:28:34.816,1.1359511679997922,-861.6032104492188,-77544.28894042969,-310177.15576171875,-590.1981991577148,-1.3256823730468752,-1.2082796096801758,-0.8276715326309205,-1.8514484892423935,1.0633869862032417,0.0,0.3018951714038849,2473.125244140625,108.68226170539856,0.0457763709127903,16.479493528604507,1314.8386732994431,1,1789158514.0425649,38.99079850333333,-76.93787595,-3.812000000000001,0,1,9.641024999999999,12.264003999999998,56.746089000000005,1,1,1789158514.8093529,-0.5109881183271074,0.8567268833517492,0.05093013371725519,-0.04812807652984843,172.15374612713796,-1.7429685133416455,-118.25318768474979,0.005146975964131278,0.04859694769253012,0.2959230181365914,0.32764018190383914,-0.6007553889083862,-9.666611197433472
2026-09-11T16:28:34.848,1.1693662719999338,-861.6368408203125,-77547.31567382812,-310189.2626953125,-590.2212359619141,-1.3487191772460938,-1.0273467302322388,-0.7037325102090836,-1.5742047919852424,3.7090718742432114,0.0,0.30265429615974426,2479.343994140625,108.95554661750793,0.030517593026161194,10.98633348941803,-164.39152902720886,1,1789158514.0425649,38.99079850333333,-76.93787595,-3.812000000000001,0,1,9.641024999999999,12.264003999999998,56.746089000000005,1,1,1789158514.841353,-0.5085862297927004,0.8580987049326537,0.04999136147808146,-0.050075175843091124,172.13644981465106,-2.0108673154968444,-118.55221048325235,0.006472204465170572,0.028046044816147277,0.2713020074445578,0.7343219641113281,-0.4516943064498901,-9.330929562397003
2026-09-11T16:28:34.881,1.202768160000005,-861.6718139648438,-77550.46325683594,-310201.85302734375,-590.245192565918,-1.3726757812500001,-1.0536497831344604,-0.7217501014471055,-1.614508995720975,-0.5394183477887086,0.0,0.3025207817554474,2478.250244140625,108.90748143196106,0.0,0.0,-328.91354792263803,1,1789158514.0425649,38.99079850333333,-76.93787595,-3.812000000000001,0,1,9.641024999999999,12.264003999999998,56.746089000000005,1,1,1789158514.869353,-0.5069169851379404,0.8589892112332752,0.04995035587802227,-0.051746179676916346,172.04606051585515,-2.192525627934337,-118.75512495533464,0.015405323175653149,0.024430769803566225,0.25751093929407415,0.22780848325729372,-0.24624498556137087,-9.5525598560524
2026-09-11T16:28:34.914,1.2361748799999077,-861.7009887695312,-77553.08898925781,-310212.35595703125,-590.265177307129,-1.3926605224609376,-0.9244930744171143,-0.6332777559757233,-1.4166019952928657,2.6483397792911134,0.0,0.3027859032154083,2480.422119140625,109.002925157547,0.01525880303233862,5.493169091641903,164.43305693159678,1,1789158514.0425649,38.99079850333333,-76.93787595,-3.812000000000001,0,1,9.641024999999999,12.264003999999998,56.746089000000005,1,1,1789158514.909353,-0.50428586933152,0.8603393191113029,0.0515594536052353,-0.05341947891530539,171.79540205094952,-2.287646065309293,-119.0827065376712,0.01600781083344159,0.0026478390082005977,0.25366667708363144,0.4975894292068481,0.12719225259780884,-9.653862552223206
2026-09-11T16:28:34.949,1.2695809279998684,-861.735595703125,-77556.20361328125,-310224.814453125,-590.2888830566407,-1.4163662719726564,-1.0295358896255493,-0.7052320843935014,-1.5775592439009944,-2.153931180900616,0.0,0.3023205101490021,2476.609619140625,108.83538365364075,-0.015258795581758022,-5.493166409432888,-328.87264908102,1,1789158514.0425649,38.99079850333333,-76.93787595,-3.812000000000001,0,1,9.641024999999999,12.264003999999998,56.746089000000005,1,1,1789158514.941353,-0.5019127023221058,0.8615866808262792,0.052804257958859215,-0.05444025176182045,171.6186626242308,-2.3385310898785434,-119.3832091152378,-0.0031477013059717737,0.000748222650329969,0.23474940238711534,0.6658715459823609,0.5438768179702759,-9.582568205547332
2026-09-11T16:28:34.982,1.3029899839998507,-861.7632446289062,-77558.69201660156,-310234.76806640625,-590.3078225708008,-1.4353057861328127,-0.9009281396865845,-0.6171357756853104,-1.3804934137556142,2.6368990703669635,0.0,0.30279162526130676,2480.468994140625,109.00498509407043,0.0610351637005806,21.972658932209015,822.1071957751968,1,1789158514.0425649,38.99079850333333,-76.93787595,-3.812000000000001,0,1,9.641024999999999,12.264003999999998,56.746089000000005,1,1,1789158514.969353,-0.5000926586466449,0.8625177209010729,0.0545516949961295,-0.05472318039367427,171.4336177513505,-2.2831317400954076,-119.6181803821987,-0.012105778224757868,-0.010316815741463682,0.23297579880123867,-0.2451662540435791,0.009414384155273438,-9.741828204174041
2026-09-11T16:28:35.015,1.336414879999893,-861.7962036132812,-77561.65832519531,-310246.63330078125,-590.3303994750977,-1.4578826904296875,-0.9798372983932495,-0.671188549399376,-1.5014060249628116,-1.6171411188234426,0.0,0.3024120628833771,2477.359619140625,108.86834263801575,-0.0457763709127903,-16.479493528604507,-1150.4045505710737,1,1789158514.0425649,38.99079850333333,-76.93787595,-3.812000000000001,0,1,9.641024999999999,12.264003999999998,56.746089000000005,1,1,1789158515.009353,-0.49728852192854645,0.8638590636910067,0.05740349510600417,-0.05618258437125958,171.07282170729846,-2.2910362423234476,-119.966565434948,-0.025386163036107922,-0.027258726790572636,0.23207224184748124,0.29194397531509403,0.47591673234939574,-9.60404476940155
2026-09-11T16:28:35.048,1.3698236159998487,-861.8240356445312,-77564.16320800781,-310256.65283203125,-590.3494644165039,-1.4769476318359376,-0.8502463102340698,-0.5824187225103379,-1.3028335775553357,2.657084269490342,0.0,0.3022136986255646,2475.734619140625,108.79693150520325,0.0,0.0,493.268991937508,1,1789158515.0401914,38.990796655,-76.937870635,-3.7749999999999986,0,1,10.407076,12.567025,77.47520399999999,1,1,1789158515.041353,-0.49535741141100986,0.8650175694136858,0.05700453088619054,-0.05582224488739253,171.1384317505633,-2.298131738561457,-120.22617429481367,0.018757751602883857,-0.04299531345825431,0.2329679448196047,0.6101697730636596,-0.9961595234298707,-10.967659474391937
2026-09-11T16:28:35.081,1.4032269439999254,-861.85400390625,-77566.8603515625,-310267.44140625,-590.3699926757813,-1.4974758911132813,-0.9027676582336426,-0.6183958458900453,-1.383312110527122,-1.0770520643818706,0.0,0.3022136986255646,2475.734619140625,108.79693150520325,0.0,0.0,0.0,1,1789158515.0401914,38.990796655,-76.937870635,-3.7749999999999986,0,1,10.407076,12.567025,77.47520399999999,1,1,1789158515.0693529,-0.4938264503715502,0.8658466053963007,0.05642637208105274,-0.057106544028757096,171.1262138701529,-2.4737313380506585,-120.41239202851246,-0.017431126838442966,-0.0451548093417469,0.20545981047892206,0.9413403490257264,-0.17004731380462648,-8.617103497123718
2026-09-11T16:28:35.115,1.436632063999923,-861.8760986328125,-77568.84887695312,-310275.3955078125,-590.3851275634767,-1.5126107788085938,-0.6965799331665039,-0.4771572542190552,-1.067370378979632,4.2280522168757395,0.0,0.3021107017993927,2474.890869140625,108.75985264778137,-0.015258789993822575,-5.493164397776127,-164.44079224312074,1,1789158515.0401914,38.990796655,-76.937870635,-3.7749999999999986,0,1,10.407076,12.567025,77.47520399999999,1,1,1789158515.109353,-0.49257476898209307,0.8665969206118235,0.05683444896238439,-0.05612236238332112,171.14553082035908,-2.3658707871939915,-120.58889119867062,-0.019314686167195245,-0.04218600428410454,0.19333535723116785,0.31587220170974734,-0.3655919180297852,-9.115967790851593
2026-09-11T16:28:35.149,1.4700415679999423,-861.8992919921875,-77570.93627929688,-310283.7451171875,-590.4010150146485,-1.5284982299804688,-0.6965799331665039,-0.4771572542190552,-1.067370378979632,0.0,0.0,0.3020916283130646,2474.734619140625,108.75298619270325,0.0,0.0,164.4192142982115,1,1789158515.0401914,38.990796655,-76.937870635,-3.7749999999999986,0,1,10.407076,12.567025,77.47520399999999,1,1,1789158515.141353,-0.4913289151591904,0.8672491308546667,0.05738396957698021,-0.05640852946059191,171.07763705388695,-2.375687514085185,-120.74828617564637,-0.01909250575341637,-0.017821731525039297,0.18497854623969381,1.0245007423973083,-0.033931009559631346,-9.994937844848634
2026-09-11T16:28:35.183,1.5034523199999512,-861.9270629882812,-77573.43566894531,-310293.74267578125,-590.4200381469727,-1.5475213623046877,-0.7501294612884521,-0.5138386809825898,-1.149424393751318,-1.0978928808164763,0.0,0.3019619286060333,2473.672119140625,108.706294298172,-0.015258789993822575,-5.493164397776127,-164.41307270709348,1,1789158515.0401914,38.990796655,-76.937870635,-3.7749999999999986,0,1,10.407076,12.567025,77.47520399999999,1,1,1789158515.169353,-0.4903664974127266,0.8676197230169878,0.05772291876465677,-0.05869224051259891,170.915780044196,-2.5926202794811295,-120.84495464767983,-0.016286888980835485,0.007311707835379845,0.16922904413554737,0.7231423829269409,0.04108986417770386,-9.47685251680374
2026-09-11T16:28:35.215,1.536875327999951,-861.94384765625,-77574.9462890625,-310299.78515625,-590.4315356445313,-1.5590188598632815,-0.5951414108276367,-0.4076718664169312,-0.9119359932375867,3.176458999909863,0.0,0.3014812767505646,2469.734619140625,108.53325963020325,0.0,0.0,164.3527835009993,1,1789158515.0401914,38.990796655,-76.937870635,-3.7749999999999986,0,1,10.407076,12.567025,77.47520399999999,1,1,1789158515.209353,-0.4901756116756753,0.8677613097514476,0.05760357454508133,-0.05830958082904347,170.9501593491933,-2.5634582528391605,-120.87516373824513,-0.00775030907640602,0.008550193472595021,0.16406269501671897,0.5770232955169678,-0.24193005949020388,-9.579135877990723
2026-09-11T16:28:35.248,1.570283039999822,-861.96240234375,-77576.6162109375,-310306.46484375,-590.4442456054688,-1.5717288208007814,-0.5690929293632507,-0.38982865661382676,-0.8720218696622816,0.5341045146454007,0.0,0.3010864555835724,2466.500244140625,108.39112401008606,0.0,0.0,0.0,1,1789158515.0401914,38.990796655,-76.937870635,-3.7749999999999986,0,1,10.407076,12.567025,77.47520399999999,1,1,1789158515.241353,-0.4897026613262163,0.8679250855644229,0.05746702454669219,-0.05995740511196485,170.87098647928062,-2.739412983809027,-120.91594036476012,0.003273365012115365,0.026969874799367577,0.14833553312699807,0.6626353514289857,-0.025987622928619385,-9.871079853305817
2026-09-11T16:28:35.281,1.603683295999872,-861.98486328125,-77578.6376953125,-310314.55078125,-590.4596313476563,-1.5871145629882815,-0.6478749513626099,-0.44379434168338777,-0.9927396691199608,-1.6157266899235847,0.0,0.3013000786304474,2468.250244140625,108.46802830696106,0.0,0.0,0.0,1,1789158515.0401914,38.990796655,-76.937870635,-3.7749999999999986,0,1,10.407076,12.567025,77.47520399999999,1,1,1789158515.269353,-0.4895774885427856,0.8678799331261087,0.05785502237437685,-0.061246230702143155,170.75884978127738,-2.8464629008389424,-120.91457041049526,0.005100899271878628,0.039888278323854005,0.12778148865796166,0.1866205525779724,-0.010395049171447754,-9.60522156742096
2026-09-11T16:28:35.316,1.637090303999912,-861.9957885742188,-77579.62097167969,-310318.48388671875,-590.4671151733398,-1.594598388671875,-0.39014044404029846,-0.2672462041676045,-0.5978127330162942,5.284763529723198,0.0,0.30037692189216614,2460.687744140625,108.13569188117981,-0.0610351637005806,-21.972658932209015,-657.7260355726141,1,1789158515.0401914,38.990796655,-76.937870635,-3.7749999999999986,0,1,10.407076,12.567025,77.47520399999999,1,1,1789158515.3093529,-0.48966777827381314,0.8677243045113148,0.05872063648180958,-0.061902222350363245,170.63445853422627,-2.861447278873261,-120.89239257397946,0.003031462377788951,0.02727670368186818,0.12715404279186968,0.508474810886383,0.07423634172439575,-9.78625232940674
2026-09-11T16:28:35.350,1.6705043199999636,-862.0126342773438,-77581.13708496094,-310324.54833984375,-590.4786544799805,-1.6061376953125002,-0.5463382005691528,-0.3742416673898697,-0.8371547677833511,-3.2021132455943073,0.0,0.29805758595466614,2441.687744140625,107.30073094367981,-0.0915527418255806,-32.958987057209015,-328.79400443763024,1,1789158515.0401914,38.990796655,-76.937870635,-3.7749999999999986,0,1,10.407076,12.567025,77.47520399999999,1,1,1789158515.341353,-0.48937156081150224,0.8676749271942528,0.059162501239786426,-0.064463126160734,170.44453267818727,-3.0932505835645903,-120.89511333803082,-0.0004623377188532979,0.03438560425816629,0.11598690263883436,0.742461483745575,0.3017506254768371,-9.770071356639862
2026-09-11T16:28:35.383,1.7039183679999041,-862.0308837890625,-77582.77954101562,-310331.1181640625,-590.4911553955078,-1.6186386108398438,-0.5463382005691528,-0.3742416673898697,-0.8371547677833511,0.0,0.0,0.29172709584236145,2389.828369140625,105.02175450325012,-0.1831054836511612,-65.91797411441803,-986.3811489487201,1,1789158515.0401914,38.990796655,-76.937870635,-3.7749999999999986,0,1,10.407076,12.567025,77.47520399999999,1,1,1789158515.369353,-0.48946950475079665,0.8674848512341258,0.06015217469475973,-0.06535558643151736,170.2940382753809,-3.1244348187855158,-120.86781431527751,-0.0016315337847642992,0.03529788785818372,0.10276062303429613,0.31440120418548584,0.28115666013717655,-9.640721641006468
2026-09-11T16:28:35.416,1.73732710399986,-862.0477294921875,-77584.29565429688,-310337.1826171875,-590.5026947021485,-1.630177917480469,-0.5200351476669312,-0.35622407615184787,-0.7968505640476187,0.5393077797988433,0.0,0.2815609276294708,2306.547119140625,101.3619339466095,-0.3204346001148224,-115.35645604133606,-1479.807015954854,1,1789158515.0401914,38.990796655,-76.937870635,-3.7749999999999986,0,1,10.407076,12.567025,77.47520399999999,1,1,1789158515.409353,-0.48970629011369277,0.8671383561358414,0.06167660365475221,-0.06674441776455127,170.06102472361164,-3.17273908707403,-120.81388686113952,-0.002534392606820966,0.02340416713754316,0.0938454812151091,0.4892537765693664,0.3768695657157898,-9.718096110782623
2026-09-11T16:28:35.449,1.770735711999805,-862.05859375,-77585.2734375,-310341.09375,-590.51013671875,-1.6376199340820314,-0.3650469183921814,-0.2500571390986443,-0.5593618895370527,3.1778318047066745,0.0,0.26436808705329895,2165.703369140625,95.17251133918762,-0.5187988877296448,-186.76759958267212,-2137.507301754484,1,1789158515.0401914,38.990796655,-76.937870635,-3.7749999999999986,0,1,10.407076,12.567025,77.47520399999999,1,1,1789158515.441353,-0.48981469339387557,0.8668716211028934,0.0629250393614431,-0.06823194327634226,169.85028486324373,-3.247742658028263,-120.77538073861575,-0.0004506440128649359,0.024898867108951107,0.09585313345367817,0.4751322003364563,0.4879789120483398,-9.634445384902953
2026-09-11T16:28:35.483,1.8041351999997914,-862.074462890625,-77586.70166015625,-310346.806640625,-590.5210070800782,-1.6484902954101563,-0.5213378071784973,-0.3571163979172707,-0.7988466309888831,-3.2054161674175976,0.0,0.25179484486579895,2062.703369140625,90.64614415168762,-0.5035400986671448,-181.27443552017212,164.4685110892191,1,1789158515.0401914,38.990796655,-76.937870635,-3.7749999999999986,0,1,10.407076,12.567025,77.47520399999999,1,1,1789158515.481353,-0.4902156494615745,0.866446612631081,0.06406277933308245,-0.06967671624878172,169.65185596736907,-3.3211848670545696,-120.69880535135883,-0.0060913736223854095,0.023205025069890608,0.07835463690610824,0.32312912282943723,0.37539856819152834,-9.540007343845367
2026-09-11T16:28:35.517,1.8375436799999534,-862.092041015625,-77588.28369140625,-310353.134765625,-590.5330480957032,-1.6605313110351563,-0.5213378071784973,-0.3571163979172707,-0.7988466309888831,0.0,0.0,0.23222926259040833,1902.422119140625,83.602534532547,-0.6713867783546448,-241.69924020767212,-1808.6666824473036,1,1789158515.0401914,38.990796655,-76.937870635,-3.7749999999999986,0,1,10.407076,12.567025,77.47520399999999,1,1,1789158515.509353,-0.4907284371418164,0.8661180930055432,0.06414186721497213,-0.0700776056880397,169.61888398211616,-3.350187412535333,-120.62520751368498,-0.000337023078560105,0.031963610855173755,0.07202746930177839,0.16641885324478148,0.2643872883605957,-9.842640567836762
2026-09-11T16:28:35.550,1.8709636799999316,-862.11083984375,-77589.9755859375,-310359.90234375,-590.5459252929688,-1.6734085083007815,-0.5475984811782837,-0.37510495960712437,-0.8390858974747762,-0.5382573815040514,0.0,0.2236786186695099,1832.375244140625,80.52430272102356,-0.1983642727136612,-71.41113817691803,5095.395033837969,1,1789158515.0401914,38.990796655,-76.937870635,-3.7749999999999986,0,1,10.407076,12.567025,77.47520399999999,1,1,1789158515.541353,-0.49146162099533053,0.8656993437716007,0.06396329461407166,-0.07027672604906714,169.62241592584672,-3.3712818624321206,-120.52620096625024,0.0021907372771032825,0.02608516740153165,0.07494024929043172,0.5181833945465087,0.3629441224861145,-9.685047699737549
2026-09-11T16:28:35.582,1.9043647999999394,-862.1212158203125,-77590.90942382812,-310363.6376953125,-590.5530328369141,-1.6805160522460938,-0.3671844005584717,-0.2515213143825531,-0.5626371563675573,3.699985067103819,0.0,0.20566371083259583,1684.797119140625,74.0389358997345,-0.5340576767921448,-192.26076364517212,-3618.1309329814735,1,1789158515.0401914,38.990796655,-76.937870635,-3.7749999999999986,0,1,10.407076,12.567025,77.47520399999999,1,1,1789158515.5693529,-0.49197955846555197,0.8653700420187372,0.06389095372291943,-0.0707725261729824,169.59895490356524,-3.418159827626244,-120.45066935796257,-0.0006346017160251383,0.02052332667420132,0.06876405266639939,0.7141202647781372,0.3723585066413879,-9.70103253950119
2026-09-11T16:28:35.616,1.9378147200000058,-862.13720703125,-77592.3486328125,-310369.39453125,-590.5639868164063,-1.6914700317382814,-0.5233821272850037,-0.3585167571902275,-0.8019791454684752,-3.198675596457689,0.0,0.1845264732837677,1511.640869140625,66.42953038215637,-0.5645752549171448,-203.24709177017212,-328.44108819925987,1,1789158515.0401914,38.990796655,-76.937870635,-3.7749999999999986,0,1,10.407076,12.567025,77.47520399999999,1,1,1789158515.609353,-0.49257898794177435,0.8648702152361666,0.06265657677958572,-0.07375367666678127,169.54679541382512,-3.775549454964044,-120.32793918684895,-0.0006775368156241988,0.03506104667868808,0.03871541706651382,0.6588107578659058,0.38265548931121823,-9.50480146976471
2026-09-11T16:28:35.651,1.9712352959998043,-862.1548461914062,-77593.93615722656,-310375.74462890625,-590.5760696411133,-1.7035528564453126,-0.5233821272850037,-0.3585167571902275,-0.8019791454684752,0.0,0.0,0.15516093373298645,1271.078369140625,55.85793614387512,-0.8087158799171448,-291.1377167701721,-2629.8357335471965,1,1789158515.0401914,38.990796655,-76.937870635,-3.7749999999999986,0,1,10.407076,12.567025,77.47520399999999,1,1,1789158515.641353,-0.4935715400630979,0.8643698190573702,0.0629620439326442,-0.07271679150165283,169.5724085416106,-3.6439381904382193,-120.21300897648213,0.0012477358822507462,0.045877724717922945,0.037830186069902294,0.34666508321762085,0.3031235564994812,-9.626992330780029
2026-09-11T16:28:35.683,2.0046432319998075,-862.1722412109375,-77595.50170898438,-310382.0068359375,-590.5879852294922,-1.7154684448242188,-0.5233821272850037,-0.3585167571902275,-0.8019791454684752,0.0,0.0,0.1447449028491974,1185.750244140625,52.10816502571106,-0.7171631455421448,-258.1787323951721,986.5615276261543,1,1789158515.0401914,38.990796655,-76.937870635,-3.7749999999999986,0,1,10.407076,12.567025,77.47520399999999,1,1,1789158515.6813529,-0.4949753509702626,0.8635867416642403,0.06267797820532807,-0.07272422293636861,169.59445531964664,-3.6441326492216595,-120.0286525450674,0.002130348884984279,0.07119581991320309,0.04101925167914633,0.43276747163772583,0.39873839557647706,-9.66092334033966
2026-09-11T16:28:35.716,2.038053823999917,-862.184326171875,-77596.58935546875,-310386.357421875,-590.5962634277345,-1.7237466430664063,-0.39422526955604553,-0.2700443096458912,-0.6040719167096701,2.6480359145999817,0.0,0.1284961998462677,1052.640869140625,46.25863194465637,-0.5645752549171448,-203.24709177017212,1644.138500294166,1,1789158515.0401914,38.990796655,-76.937870635,-3.7749999999999986,0,1,10.407076,12.567025,77.47520399999999,1,1,1789158515.709353,-0.495654453415376,0.8632882445652,0.061528851741889615,-0.0726241695881266,169.71189434326124,-3.6922361290593284,-119.94317373161417,0.004078485396060349,0.09027122143994991,0.04199768325781435,-0.04305119421005249,0.16230006017684936,-9.875198646373748
2026-09-11T16:28:35.750,2.0714635839999573,-862.1994018554688,-77597.94616699219,-310391.78466796875,-590.6065902709961,-1.734073486328125,-0.4723707139492035,-0.32357393905520443,-0.7238142874355853,-1.602215322984911,0.0,0.11533549427986145,944.828369140625,41.52077794075012,-0.2746582627296448,-98.87697458267212,3123.940943825204,1,1789158515.0401914,38.990796655,-76.937870635,-3.7749999999999986,0,1,10.407076,12.567025,77.47520399999999,1,1,1789158515.741353,-0.4965888498956856,0.8626697254234432,0.05998904526868438,-0.07484499612447623,169.73113318569355,-3.988327357448521,-119.78842267271983,0.008557174789602998,0.09318504862615444,0.03163182376436963,0.7376562251663208,0.2580129657554626,-9.734277083549498
2026-09-11T16:28:35.784,2.1048650559998805,-862.215087890625,-77599.35791015625,-310397.431640625,-590.6173352050781,-1.7448184204101564,-0.4723707139492035,-0.32357393905520443,-0.7238142874355853,0.0,0.0,0.10082057118415833,825.922119140625,36.295405626297,-0.5340576767921448,-192.26076364517212,-2795.79861219035,1,1789158515.0401914,38.990796655,-76.937870635,-3.7749999999999986,0,1,10.407076,12.567025,77.47520399999999,1,1,1789158515.781353,-0.4981362994841364,0.8617549191740033,0.059302793117275744,-0.0756430112049202,169.7453760923116,-4.08806817965804,-119.57302444264496,0.0077365209753152645,0.10018189906447451,0.026585727831003624,0.2948859703636169,0.33421063751220703,-9.581293341026306
2026-09-11T16:28:35.818,2.1382889919998433,-862.2348022460938,-77601.13220214844,-310404.52880859375,-590.6308395385743,-1.75832275390625,-0.551152765750885,-0.37753964453935623,-0.8445321325594036,-1.6145825998533443,0.0,0.07890704274177551,646.406494140625,28.406535387039185,-0.16784673929214478,-60.42482614517212,3944.3570470020804,1,1789158515.0401914,38.990796655,-76.937870635,-3.7749999999999986,0,1,10.407076,12.567025,77.47520399999999,1,1,1789158515.8093529,-0.4990372297234665,0.8611414108511893,0.0590789939512974,-0.07685692122934587,169.69183614764097,-4.20953234978278,-119.4349745874828,0.004107806927493855,0.10723320377545681,0.02522332381689685,0.35235294031143183,0.3544123368453979,-9.70299386953354
2026-09-11T16:28:35.850,2.1717060159999164,-862.2457885742188,-77602.12097167969,-310408.48388671875,-590.6383651733399,-1.7658483886718752,-0.370738685131073,-0.253955999314785,-0.5680833914521849,3.6982241513876577,0.0,0.07376101613044739,604.250244140625,26.55396580696106,-0.4577637314796448,-164.79494333267212,-3123.2618795519247,1,1789158515.0401914,38.990796655,-76.937870635,-3.7749999999999986,0,1,10.407076,12.567025,77.47520399999999,1,1,1789158515.841353,-0.5003523630196555,0.8602487467547757,0.05768986269561191,-0.07931888974037857,169.67762906494167,-4.515997025117215,-119.22416711382063,0.004134335932124168,0.11689045959259182,0.012923464979317213,0.8334671972465515,0.36255185647964483,-9.639642909488678
2026-09-11T16:28:35.883,2.205105503999903,-862.2623901367188,-77603.61511230469,-310414.46044921875,-590.6497372436523,-1.7772204589843752,-0.5529694557189941,-0.378784077167511,-0.8473158490683397,-3.7374248926443694,0.0,0.05992129445075989,490.875244140625,21.57166600227356,-0.5645752549171448,-203.24709177017212,-1151.2795776245337,1,1789158515.0401914,38.990796655,-76.937870635,-3.7749999999999986,0,1,10.407076,12.567025,77.47520399999999,1,1,1789158515.881353,-0.5019245390833793,0.859392745730441,0.05603786776371729,-0.07984749857276247,169.8018182658277,-4.645309977967096,-119.01151421033437,0.008143182691029944,0.11605392328211095,0.019163191588122137,0.6229184182739257,0.23879193143844604,-9.834010715694427
2026-09-11T16:28:35.917,2.238511840000001,-862.2808837890625,-77605.27954101562,-310421.1181640625,-590.6624053955079,-1.789888610839844,-0.5529694557189941,-0.378784077167511,-0.8473158490683397,0.0,0.0,0.04426196217536926,362.593994140625,15.934306383132935,-0.045776426792144775,-16.47951364517212,5590.783081522343,1,1789158515.0401914,38.990796655,-76.937870635,-3.7749999999999986,0,1,10.407076,12.567025,77.47520399999999,1,1,1789158515.909353,-0.5031931164005282,0.8585800214637908,0.05451449969306072,-0.08164069863478698,169.83895272415586,-4.894857864233646,-118.81747476295186,0.004668755749084832,0.11654104467634258,0.01015991064170939,0.8232682810783386,0.2879232487487793,-9.549617861003876
2026-09-11T16:28:35.950,2.271916831999988,-862.2979736328125,-77606.81762695312,-310427.2705078125,-590.6741119384766,-1.801595153808594,-0.5266664028167725,-0.3607664859294892,-0.8070116453326073,0.5393682249056913,0.0,0.04026415944099426,329.843994140625,14.495097398757935,-0.2899170219898224,-104.37012791633606,-2631.062275698137,1,1789158515.0401914,38.990796655,-76.937870635,-3.7749999999999986,0,1,10.407076,12.567025,77.47520399999999,1,1,1789158515.941353,-0.5041294532004729,0.857924635991445,0.054384277918389325,-0.08283214164824104,169.77529497010352,-5.0079540134423475,-118.67340610533682,0.010366034026369922,0.07984811514703978,0.016979086562176435,0.28556965270996093,2.027721053943634,-8.34251729259491
2026-09-11T16:28:35.985,2.305324063999933,-862.3167724609375,-77608.50952148438,-310434.0380859375,-590.6869891357422,-1.814472351074219,-0.5524977445602417,-0.3784609550237656,-0.8465930454182292,-0.5296598381543716,0.0,0.0374622642993927,306.890869140625,13.486415147781372,-0.1373291164636612,-49.43848192691803,1644.3040234374541,1,1789158515.0401914,38.990796655,-76.937870635,-3.7749999999999986,0,1,10.407076,12.567025,77.47520399999999,1,1,1789158515.981353,-0.5045001242238015,0.8576074977150674,0.05517625557691336,-0.0833341787118618,169.6647359917945,-5.0061790929673595,-118.61338353905356,0.0050789081233034985,0.06224681870652736,0.019463911818240764,-0.2355557368850708,-0.3025351574897766,-8.295641504821777
2026-09-11T16:28:36.018,2.3387476479999805,-862.3388671875,-77610.498046875,-310441.9921875,-590.7021240234376,-1.8296072387695315,-0.6306431889533997,-0.4319905844330788,-0.9663354161441444,-1.6015526464557865,0.0,0.034757643938064575,284.734619140625,12.512751817703247,0.0,0.0,1479.1496305976013,1,1789158515.0401914,38.990796655,-76.937870635,-3.7749999999999986,0,1,10.407076,12.567025,77.47520399999999,1,1,1789158516.009353,-0.5049893355001615,0.8573138347822772,0.055834316266307644,-0.0829535342772431,169.61966983135113,-4.924499908625966,-118.55311958071857,-0.009266127531763094,0.0052141711403330595,0.04522043372162188,1.0243046093940735,0.7369697596549988,-10.711215572662354
2026-09-11T16:28:36.050,2.3721537919998354,-862.3646240234375,-77612.81616210938,-310451.2646484375,-590.7197674560547,-1.847250671386719,-0.6588526964187622,-0.45131409704685216,-1.009560882799865,-0.5784418762565725,0.0,0.034513503313064575,282.734619140625,12.424861192703247,0.0,0.0,0.0,1,1789158516.0394814,38.99079556833333,-76.937869435,-3.7880000000000003,0,1,9.641024999999999,12.271009000000001,56.746089000000005,1,1,1789158516.041353,-0.5051480066535579,0.8570125450417199,0.05614036220092747,-0.08487195500870463,169.473354234295,-5.091945570804806,-118.4979583034416,0.0012220795422464294,-0.007444527391456613,0.014559362087211498,1.3748923526763914,0.7877682074928284,-9.047125106716155
2026-09-11T16:28:36.084,2.4055540800000017,-862.387939453125,-77614.91455078125,-310459.658203125,-590.7357385253906,-1.8632217407226563,-0.7369516491889954,-0.5048118796944618,-1.1292320143487413,-1.601716208175911,0.0,0.0321674644947052,263.515869140625,11.580287218093872,-0.1525879055261612,-54.93164598941803,-1644.6458781775953,1,1789158516.0394814,38.99079556833333,-76.937869435,-3.7880000000000003,0,1,9.641024999999999,12.271009000000001,56.746089000000005,1,1,1789158516.0813775,-0.5053133888634364,0.8566337386544411,0.058469750795215915,-0.08612958304908543,169.1664642936364,-5.075703722316832,-118.44715875873213,0.0006284930636431581,-0.020962451514003094,0.026632502654957074,0.4933725696372986,1.598287843360901,-9.545891333942413
2026-09-11T16:28:36.118,2.4389622079997935,-862.4176025390625,-77617.58422851562,-310470.3369140625,-590.7560577392578,-1.8835409545898438,-0.8947699666023254,-0.612917427122593,-1.371057236763136,-3.2359055685132976,0.0,0.025648146867752075,210.109619140625,9.233332872390747,-0.1678466945886612,-60.42481005191803,-164.42597629338107,1,1789158516.0394814,38.99079556833333,-76.937869435,-3.7880000000000003,0,1,9.641024999999999,12.271009000000001,56.746089000000005,1,1,1789158516.1093774,-0.5053623873504837,0.8564634805580922,0.06024129915430662,-0.08631425025996169,168.97991655212053,-4.988893449770257,-118.43237410014375,-0.0008332201849020928,-0.0473081965728575,0.025772753465424666,0.7366755601501466,1.3031076734924316,-10.294923273296357
2026-09-11T16:28:36.152,2.472378655999819,-862.4476928710938,-77620.29235839844,-310481.16943359375,-590.7766696166992,-1.9041528320312502,-0.8947699666023254,-0.612917427122593,-1.371057236763136,0.0,0.0,0.0157795250415802,129.265869140625,5.680629014968872,-0.3967285454273224,-142.82227635383606,-2465.7757252313404,1,1789158516.0394814,38.99079556833333,-76.937869435,-3.7880000000000003,0,1,9.641024999999999,12.271009000000001,56.746089000000005,1,1,1789158516.1413774,-0.50556574885529,0.8562024826432011,0.06188139891563567,-0.08655215056977178,168.80229259429726,-4.912949181717255,-118.3965513963253,0.003291167370485707,-0.005454852044183077,0.021651507502690456,1.3668508995437623,1.113741258869171,-9.784487132377624
2026-09-11T16:28:36.184,2.505788159999838,-862.4818115234375,-77623.36303710938,-310493.4521484375,-590.8000408935548,-1.927524108886719,-1.0260733366012573,-0.7028602355718613,-1.5722535691926014,-2.692132407868621,0.0,0.010686904191970825,87.547119140625,3.847285509109497,-0.1220703199505806,-43.945315182209015,2959.545917579918,1,1789158516.0394814,38.99079556833333,-76.937869435,-3.7880000000000003,0,1,9.641024999999999,12.271009000000001,56.746089000000005,1,1,1789158516.1813774,-0.5057099827260256,0.8558709043573806,0.0629316687637266,-0.08821572145788445,168.5974115057649,-5.011298826206821,-118.34408905791899,-0.0006899286533133585,-0.009909281361123005,0.004637165289623734,2.2779867660713196,1.4886494945526123,-9.654647084236146
2026-09-11T16:28:36.217,2.539195583999799,-862.517578125,-77626.58203125,-310506.328125,-590.8245410156251,-1.9520242309570315,-1.0515872240066528,-0.7203372484445573,-1.611348533564237,-0.5231475756022508,0.0,0.002767592668533325,22.672119140625,0.9963333606719971,-0.1678467094898224,-60.42481541633606,-493.28856466593595,1,1789158516.0394814,38.99079556833333,-76.937869435,-3.7880000000000003,0,1,9.641024999999999,12.271009000000001,56.746089000000005,1,1,1789158516.2093775,-0.5062922754520219,0.8554615443504033,0.06351757899107313,-0.08842621282374154,168.52346083047442,-4.98952018142783,-118.2612170229403,0.0018694221618111263,-0.017995042719762336,0.012400389802494511,1.2071005684089662,1.2127884255027772,-10.098594137058258
2026-09-11T16:28:36.251,2.572600767999802,-862.5585327148438,-77630.26794433594,-310521.07177734375,-590.852594909668,-1.9800781250000001,-1.2338217496871948,-0.8451678985357285,-1.8905867451139218,-3.736864616317046,0.0,-0.0055866241455078125,-45.765625,-2.0111846923828125,-0.12207034230232239,-43.94532322883606,493.3214014776437,1,1789158516.0394814,38.99079556833333,-76.937869435,-3.7880000000000003,0,1,9.641024999999999,12.271009000000001,56.746089000000005,1,1,1789158516.2413774,-0.5067694606238871,0.8550807022657478,0.06580359907802757,-0.08770172598112483,168.33867903394273,-4.777677258795115,-118.20505023604218,0.005164429256651221,-0.017709681387061263,-0.002266659099565036,-0.02216302936553955,1.6343763159561158,-9.577566813964843
2026-09-11T16:28:36.286,2.6060079999999743,-862.60009765625,-77634.0087890625,-310536.03515625,-590.8810668945313,-2.008550109863281,-1.2602946758270264,-0.8633018529415132,-1.9311512458426812,-0.542815232512862,0.0,-0.01457977294921875,-119.4375,-5.24871826171875,-0.2288818657398224,-82.39747166633606,-1151.0127039947997,1,1789158516.0394814,38.99079556833333,-76.937869435,-3.7880000000000003,0,1,9.641024999999999,12.271009000000001,56.746089000000005,1,1,1789158516.2813776,-0.5071827775878406,0.8544390735170452,0.06723457410099756,-0.0904378892449072,168.02953683527744,-4.953481146801373,-118.09481856420888,-0.007005926150430438,-0.02831377832340321,-0.00849189947557841,1.448148029384613,1.3819531407928465,-9.363487640933991
2026-09-11T16:28:36.318,2.6394316159999107,-862.6459350585938,-77638.13415527344,-310552.53662109375,-590.9124655151368,-2.0399487304687502,-1.3639073371887207,-0.9342765259742738,-2.089917067766358,-2.1234887641389766,0.0,-0.019563674926757812,-160.265625,-7.0429229736328125,-0.07629397511482239,-27.46583104133606,1643.4978377296031,1,1789158516.0394814,38.99079556833333,-76.937869435,-3.7880000000000003,0,1,9.641024999999999,12.271009000000001,56.746089000000005,1,1,1789158516.3093774,-0.5075256540006788,0.8542477470569567,0.06782538910275202,-0.08987888390693903,168.00313378522847,-4.85943050129831,-118.05829882461578,0.0005412266010434416,-0.02876704033014614,-0.011972086004055103,-0.07806093528747558,1.818447139492035,-9.37417688961029
2026-09-11T16:28:36.351,2.672834847999866,-862.6941528320312,-77642.47375488281,-310569.89501953125,-590.9454946899415,-2.072977905273438,-1.4418730735778809,-0.9876830554008484,-2.2093840716733344,-1.5988431726201355,0.0,-0.022012710571289062,-180.328125,-7.9245758056640625,-0.04577639698982239,-16.47950291633606,328.9001532850105,1,1789158516.0394814,38.99079556833333,-76.937869435,-3.7880000000000003,0,1,9.641024999999999,12.271009000000001,56.746089000000005,1,1,1789158516.3413775,-0.5078186173384659,0.8537625456742615,0.06943528581914021,-0.09158880156147527,167.7388473661579,-4.9260042322349085,-117.98215214649261,-0.00801804258366195,-0.06977965975813488,-0.010609681989948331,1.476096982345581,1.7070435936546327,-9.594041986236572
2026-09-11T16:28:36.384,2.7062357119998524,-862.7469482421875,-77647.22534179688,-310588.9013671875,-590.9816595458985,-2.1091427612304687,-1.5464916229248047,-1.0593467617034913,-2.369691217124844,-2.1455644471553708,0.0,-0.024501800537109375,-200.71875,-8.820648193359375,-0.1220703274011612,-43.94531786441803,-822.3085171716826,1,1789158516.0394814,38.99079556833333,-76.937869435,-3.7880000000000003,0,1,9.641024999999999,12.271009000000001,56.746089000000005,1,1,1789158516.3813775,-0.5088709580715607,0.8530952788336215,0.0716014023924036,-0.09028860636070739,167.59826285560408,-4.656270020474041,-117.86170478892048,-0.005175424830938785,-0.02346054127238258,-0.020554742600737218,0.6905843043899536,1.3603785104370119,-9.430859327545166
2026-09-11T16:28:36.418,2.739642111999956,-862.8026733398438,-77652.24060058594,-310608.96240234375,-591.019831237793,-2.1473144531250004,-1.6511635780334473,-1.1310470509529114,-2.5300801962976696,-2.146303979153631,0.0,-0.0293731689453125,-240.625,-10.5743408203125,-0.2288818508386612,-82.39746630191803,-1151.0413704374262,1,1789158516.0394814,38.99079556833333,-76.937869435,-3.7880000000000003,0,1,9.641024999999999,12.271009000000001,56.746089000000005,1,1,1789158516.4093773,-0.5096780544410638,0.8527532852244979,0.07115366791972821,-0.0893155692002643,167.69727239773883,-4.576918314190871,-117.77418287538943,-0.014855718994200134,0.01035713284718475,-0.024953321381613332,0.2695848129463196,0.8822062485504151,-9.80831729227066
2026-09-11T16:28:36.453,2.773059615999955,-862.8619384765625,-77657.57446289062,-310630.2978515625,-591.0604278564454,-2.187911071777344,-1.755782127380371,-1.2027107572555542,-2.6903873417491786,-2.1444960791399854,0.0,-0.038906097412109375,-318.71875,-14.006195068359375,-0.4272461235523224,-153.80860447883606,-2136.938120121717,1,1789158516.0394814,38.99079556833333,-76.937869435,-3.7880000000000003,0,1,9.641024999999999,12.271009000000001,56.746089000000005,1,1,1789158516.4413774,-0.5107458987059265,0.8522511419496159,0.0703453078883319,-0.08864623883023345,167.81206328518377,-4.544914535828436,-117.64681933727626,-0.007897265799423943,0.05331561985822198,-0.035828293417864795,0.4795451929092407,1.016753488769531,-10.264914923801422
2026-09-11T16:28:36.485,2.8064680319998843,-862.9247436523438,-77663.22692871094,-310652.90771484375,-591.1034494018555,-2.2309326171875004,-1.8870272636413574,-1.2926136755943298,-2.891494442542789,-2.6910260677718436,0.0,-0.05650901794433594,-462.921875,-20.343246459960938,-0.5035400986671448,-181.27443552017212,-822.1231153669245,1,1789158516.0394814,38.99079556833333,-76.937869435,-3.7880000000000003,0,1,9.641024999999999,12.271009000000001,56.746089000000005,1,1,1789158516.4813774,-0.511807590625565,0.8512777066968732,0.07019940821381532,-0.09193094878981947,167.6202584226895,-4.856494219448291,-117.44248154604843,-0.00753790250643831,0.08490241412789017,-0.047938958564528254,1.6378086435127257,1.2291655312728882,-9.965419827861785
2026-09-11T16:28:36.518,2.8398764479998135,-862.991455078125,-77669.23095703125,-310676.923828125,-591.1491467285157,-2.2766299438476563,-1.9911534786224365,-1.3639401328563692,-3.051047183375912,-2.1349847075117343,0.0,-0.060375213623046875,-494.59375,-21.735076904296875,-0.1525879055261612,-54.93164598941803,3781.7653351485314,1,1789158516.0394814,38.99079556833333,-76.937869435,-3.7880000000000003,0,1,9.641024999999999,12.271009000000001,56.746089000000005,1,1,1789158516.5093775,-0.5130698419801231,0.8506237836787656,0.06854501930890634,-0.09219596638928272,167.75966330074294,-4.962941852308964,-117.27336883688454,-0.011787953767969702,0.07647090304443074,-0.0774386881146616,1.5348388168144227,1.281140777130127,-9.392417258911133
2026-09-11T16:28:36.551,2.8732811840000068,-863.06005859375,-77675.4052734375,-310701.62109375,-591.1961401367188,-2.3236233520507814,-2.0703327655792236,-1.4181779444217684,-3.1723737124681612,-1.623656345168705,0.0,-0.06862831115722656,-562.203125,-24.706192016601562,-0.2288818657398224,-82.39747166633606,-822.2135231590861,1,1789158516.0394814,38.99079556833333,-76.937869435,-3.7880000000000003,0,1,9.641024999999999,12.271009000000001,56.746089000000005,1,1,1789158516.5413775,-0.514807071121976,0.8494597414654717,0.06820393124012372,-0.0934882394508472,167.70369122929395,-5.083373757404817,-117.0169404041742,0.0029410543225356447,0.028285678522446102,-0.1002766704428578,0.654986164302826,1.2212221446418763,-9.289643565216064
2026-09-11T16:28:36.585,2.906683359999988,-863.1326293945312,-77681.93664550781,-310727.74658203125,-591.2458511352539,-2.373334350585938,-2.1748881340026855,-1.4897983717918397,-3.33258404570472,-2.144184479780934,0.0,-0.07455253601074219,-610.734375,-26.838912963867188,-0.12207034230232239,-43.94532322883606,1151.186929783299,1,1789158516.0394814,38.99079556833333,-76.937869435,-3.7880000000000003,0,1,9.641024999999999,12.271009000000001,56.746089000000005,1,1,1789158516.5813775,-0.5167823083441021,0.8480579232143931,0.06924149743319628,-0.09454850442519208,167.52480287142137,-5.094555882444597,-116.7289325483522,0.0074049084174363415,-0.05402143100772849,-0.11173999296995657,1.0277369369506837,1.6756623131370545,-9.436939450645447
2026-09-11T16:28:36.620,2.940103711999882,-863.2103271484375,-77688.92944335938,-310755.7177734375,-591.2990740966798,-2.426557312011719,-2.2796287536621094,-1.561545696258545,-3.4930782396620956,-2.1468153437442408,0.0,-0.07792282104492188,-638.34375,-28.052215576171875,-0.030517607927322388,-10.98633885383606,986.1950100078195,1,1789158516.0394814,38.99079556833333,-76.937869435,-3.7880000000000003,0,1,9.641024999999999,12.271009000000001,56.746089000000005,1,1,1789158516.6093774,-0.5184340035879983,0.8470407901624094,0.07047987378810718,-0.09370523526235235,167.44611814765574,-4.914322792878472,-116.5214305974286,0.019963599583086737,-0.11258385966329583,-0.1256101245355555,1.3877390643882752,1.9076876559638978,-9.968165689907075
2026-09-11T16:28:36.652,2.9735179519998383,-863.2927856445312,-77696.35070800781,-310785.40283203125,-591.3555581665039,-2.4830413818359376,-2.4367902278900146,-1.6692013061046602,-3.73389698037012,-3.2218482253750396,0.0,-0.07913398742675781,-648.265625,-28.488235473632812,-0.015258791856467724,-5.493165068328381,164.39619113033382,1,1789158516.0394814,38.99079556833333,-76.937869435,-3.7880000000000003,0,1,9.641024999999999,12.271009000000001,56.746089000000005,1,1,1789158516.6413774,-0.5202614826642001,0.845849486947225,0.07265489261922199,-0.09267093215056128,167.28728856998003,-4.655949098932316,-116.29173357967652,0.00825470923023238,-0.14876348785958707,-0.12953728988546795,0.8681827388191223,1.7588227065086366,-9.146662605857848
2026-09-11T16:28:36.685,3.006924223999931,-863.3782348632812,-77704.04113769531,-310816.16455078125,-591.4140908813476,-2.5415740966796876,-2.566964864730835,-1.758370932340622,-3.933363753446269,-2.669248045268677,0.0,-0.07940292358398438,-650.46875,-28.585052490234375,0.0,0.0,164.43514164984043,1,1789158516.0394814,38.99079556833333,-76.937869435,-3.7880000000000003,0,1,9.641024999999999,12.271009000000001,56.746089000000005,1,1,1789158516.6813774,-0.5223541958499232,0.8444916060947382,0.07418857355413139,-0.09206561175331887,167.16396947916186,-4.473146349651171,-116.01945074147861,-0.023928987643617856,-0.16752525371975052,-0.12206501175890462,0.7102956712150573,1.9557402417564391,-10.094475343990325
2026-09-11T16:28:36.718,3.040334047999977,-863.4696044921875,-77712.26440429688,-310849.0576171875,-591.4766790771484,-2.604162292480469,-2.724226713180542,-1.8660952985286714,-4.174336297710875,-3.2243320464035303,0.0,-0.07899856567382812,-647.15625,-28.439483642578125,0.015258789993822575,5.493164397776127,164.41763948737355,1,1789158516.0394814,38.99079556833333,-76.937869435,-3.7880000000000003,0,1,9.641024999999999,12.271009000000001,56.746089000000005,1,1,1789158516.7093775,-0.5237187169829242,0.8436651326484945,0.07566349685689112,-0.09068012284037373,167.09947037925704,-4.229664308305545,-115.86037803336158,0.008377754942497982,-0.16714599367329216,-0.12350700278690234,-0.21780570009231567,1.2237718736839294,-9.725745297908784
2026-09-11T16:28:36.753,3.0737402879999536,-863.5631713867188,-77720.68542480469,-310882.74169921875,-591.5407723999024,-2.6682556152343753,-2.8028764724731445,-1.9199703836441042,-4.294851430843106,-1.6127252009046977,0.0,-0.07855415344238281,-643.515625,-28.279495239257812,0.015258791856467724,5.493165068328381,2.0072664679521374e-05,1,1789158516.0394814,38.99079556833333,-76.937869435,-3.7880000000000003,0,1,9.641024999999999,12.271009000000001,56.746089000000005,1,1,1789158516.7413774,-0.5254118740564917,0.8426758557039367,0.07667639940298931,-0.08922160382259864,167.08366514877375,-4.0022932690407895,-115.65935489860406,-0.032165370916704294,-0.13751658615973564,-0.12623425427606866,0.6334115339469909,1.2261254697227477,-9.089293702411652
2026-09-11T16:28:36.786,3.107161184000006,-863.6612548828125,-77729.51293945312,-310918.0517578125,-591.6079595947266,-2.735442810058594,-2.9087610244750977,-1.992501301765442,-4.457098473884753,-2.170226618736498,0.0,-0.07979202270507812,-653.65625,-28.725128173828125,-0.1220703274011612,-43.94531786441803,-1479.268626809674,1,1789158516.0394814,38.99079556833333,-76.937869435,-3.7880000000000003,0,1,9.641024999999999,12.271009000000001,56.746089000000005,1,1,1789158516.7813776,-0.5281998064693315,0.8413761764337746,0.07701131918588325,-0.08461885660237031,167.32671215080728,-3.4993865204651393,-115.37165342390654,-0.0053557173426698,-0.053936782539006765,-0.1488531977831396,-0.598892125377655,0.3723585066413879,-8.39753260000229
2026-09-11T16:28:36.819,3.140569983999967,-863.7579956054688,-77738.21960449219,-310952.87841796875,-591.6742269897461,-2.801710205078125,-2.9101643562316895,-1.9934625840187075,-4.45924880104399,-0.02877332479067004,0.0,-0.08415031433105469,-689.359375,-30.294113159179688,-0.030517593026161194,-10.98633348941803,986.5360137160995,1,1789158516.0394814,38.99079556833333,-76.937869435,-3.7880000000000003,0,1,9.641024999999999,12.271009000000001,56.746089000000005,1,1,1789158516.8093774,-0.530027009077736,0.840363062776677,0.07480407716619111,-0.08523873771957587,167.49491434494928,-3.667520817929445,-115.11780255434552,0.02155725972308276,0.02010235325862029,-0.15510025477480288,1.8442386294174196,0.5303436407470703,-9.125480241508484
2026-09-11T16:28:36.852,3.173975647999896,-863.8558959960938,-77747.03063964844,-310988.12255859375,-591.7412887573242,-2.8687719726562504,-2.9636926651000977,-2.0301294755935673,-4.541270301524618,-1.0976249888323668,0.0,-0.08465957641601562,-693.53125,-30.477447509765625,-0.015258789993822575,-5.493164397776127,164.43825489155333,1,1789158516.0394814,38.99079556833333,-76.937869435,-3.7880000000000003,0,1,9.641024999999999,12.271009000000001,56.746089000000005,1,1,1789158516.8413775,-0.5325388988748836,0.8391376230022922,0.07175969921833172,-0.08426693548055474,167.84080160861498,-3.72647702906008,-114.80237687772113,0.02559979133655203,0.040632486716904385,-0.16472120774349644,1.289084163761139,-0.22947561378479003,-11.965486128349305
2026-09-11T16:28:36.886,3.2073827199999414,-863.9518432617188,-77755.66589355469,-311022.66357421875,-591.8070126342774,-2.9344958496093754,-2.8866751194000244,-1.977372456789017,-4.423256211500123,1.5792170832714263,0.0,-0.08489608764648438,-695.46875,-30.562591552734375,-0.0610351637005806,-21.972658932209015,-493.2935916805421,1,1789158516.0394814,38.99079556833333,-76.937869435,-3.7880000000000003,0,1,9.641024999999999,12.271009000000001,56.746089000000005,1,1,1789158516.8813775,-0.5350189772682883,0.8374860864573748,0.07037560029337596,-0.08613375549952769,167.8457144642798,-3.954661888083107,-114.43472464200848,0.014097373434208598,0.01707612686858732,-0.14477349065660283,-0.0945361075592041,0.8832849800682068,-8.640541391010284
2026-09-11T16:28:36.920,3.240801855999962,-864.0538940429688,-77764.85046386719,-311059.40185546875,-591.8769174194337,-3.0044006347656254,-3.0186188220977783,-2.0677538931369783,-4.625433726594882,-2.704481538598307,0.0,-0.0833587646484375,-682.875,-30.0091552734375,0.1678466945886612,60.42481005191803,2465.577475853255,1,1789158516.0394814,38.99079556833333,-76.937869435,-3.7880000000000003,0,1,9.641024999999999,12.271009000000001,56.746089000000005,1,1,1789158516.9093773,-0.5368994314255487,0.8363978942505143,0.0693167751302459,-0.0858647058678405,167.95648907730322,-3.9681450781460192,-114.18691543475428,0.00808872841836772,0.058328903601650495,-0.12233309433201095,0.8798526525115966,1.2994792129325865,-9.283073109607695
2026-09-11T16:28:36.954,3.2742127679998703,-864.1527099609375,-77773.74389648438,-311094.9755859375,-591.9446063232423,-3.072089538574219,-3.0197956562042236,-2.0685600244998934,-4.62723699109675,-0.02412778684153501,0.0,-0.06941795349121094,-568.671875,-24.990463256835938,0.5493164658546448,197.75392770767212,4110.307364735524,1,1789158516.0394814,38.99079556833333,-76.937869435,-3.7880000000000003,0,1,9.641024999999999,12.271009000000001,56.746089000000005,1,1,1789158516.9493775,-0.5389787337473798,0.8350982957623513,0.0685714112099587,-0.08608555365194609,168.00466107557668,-4.006103126202244,-113.90193084440335,-0.022371630352063316,0.039733293086276905,-0.09978239319869302,0.4274718805503845,-0.11630687091827394,-9.80184490316391
2026-09-11T16:28:36.986,3.3076365119998172,-864.252685546875,-77782.74169921875,-311130.966796875,-592.0130895996094,-3.1405728149414065,-2.943053722381592,-2.0159917998313905,-4.509645221526907,1.572780855088714,0.0,-0.059452056884765625,-487.03125,-21.402740478515625,-0.0610351599752903,-21.972657591104507,-6573.966857187671,1,1789158516.0394814,38.99079556833333,-76.937869435,-3.7880000000000003,0,1,9.641024999999999,12.271009000000001,56.746089000000005,1,1,1789158516.9813774,-0.5404199742637203,0.834584722265161,0.0657348836384615,-0.08422302447325032,168.39044073408903,-3.987199808801236,-113.74583238454119,0.011155446447046956,0.0444758762627211,-0.06409163172588538,-0.3824593563079834,-1.1569885860824585,-10.317674701671601
2026-09-11T16:28:37.019,3.3410431039999366,-864.3446044921875,-77791.01440429688,-311164.0576171875,-592.0760540771485,-3.203537292480469,-2.813276529312134,-1.9270944225788118,-4.310787452082162,2.6610729179516714,0.0,-0.05996894836425781,-491.265625,-21.588821411132812,0.0,0.0,657.7341858464929,1,1789158516.0394814,38.99079556833333,-76.937869435,-3.7880000000000003,0,1,9.641024999999999,12.271009000000001,56.746089000000005,1,1,1789158517.0093775,-0.5414203136816539,0.8342722528158364,0.06281529612791278,-0.08311492457321706,168.73783725362372,-4.052010957198203,-113.63533351283259,0.03312896719673036,0.015369892991837665,-0.05039655668426146,0.11601267141342163,0.3102824111175537,-10.024063595829011
2026-09-11T16:28:37.052,3.3744406079999862,-864.4391479492188,-77799.52331542969,-311198.09326171875,-592.140816345215,-3.2682995605468754,-2.839118719100952,-1.9447963225841525,-4.350385474642427,-0.5300366160691043,0.0,-0.053554534912109375,-438.71875,-19.279632568359375,0.2136230766773224,76.90430760383606,2302.696261484746,1,1789158517.0442567,38.990795105,-76.93786154,-3.847999999999999,0,1,16.679055999999996,36.264484,137.053849,1,1,1789158517.0413775,-0.5424914500002544,0.833772150286151,0.06191673678268438,-0.0818128705645575,168.90265402557725,-3.9707951397723464,-113.51424859070642,0.00588490117187448,-0.06123732026717385,-0.035232438011233935,0.4706211412620544,0.6509654377365112,-8.877175859413148
2026-09-11T16:28:37.087,3.407864927999981,-864.5346069335938,-77808.11462402344,-311232.45849609375,-592.2062057495118,-3.33368896484375,-2.8651044368743896,-1.962596539258957,-4.390203425328728,-0.5325528440012376,0.0,-0.04715156555175781,-386.265625,-16.974563598632812,0.1983642876148224,71.41114354133606,-164.34632215407476,1,1789158517.0442567,38.990795105,-76.93786154,-3.847999999999999,0,1,16.679055999999996,36.264484,137.053849,1,1,1789158517.0813775,-0.543627614723965,0.8332321541332204,0.06504480988562436,-0.07721636183470637,168.89120316854203,-3.3226108181004945,-113.43333600755729,0.0152049593775242,-0.08315272155276585,-0.028241172626520247,-0.9788998191452027,1.0695132666397096,-11.157712354526518
2026-09-11T16:28:37.120,3.4412852479999856,-864.6337890625,-77817.041015625,-311268.1640625,-592.2741455078126,-3.4016287231445315,-2.9435043334960938,-2.0163004684448245,-4.510335693550515,-1.6069244455427065,0.0,-0.043544769287109375,-356.71875,-15.676116943359375,0.030517607927322388,10.98633885383606,-1808.0259161938445,1,1789158517.0442567,38.990795105,-76.93786154,-3.847999999999999,0,1,16.679055999999996,36.264484,137.053849,1,1,1789158517.1093774,-0.544484786922257,0.8325834966114231,0.06643116915503909,-0.07699310193267696,168.76892851387066,-3.2024873719168983,-113.31805591924889,-0.0031771973703304777,-0.09154810432070898,-0.01927768518705297,0.26321049034118654,1.4104904927635193,-8.109020952243805
2026-09-11T16:28:37.154,3.474695871999984,-864.73388671875,-77826.0498046875,-311304.19921875,-592.3427124023438,-3.4701956176757816,-2.9962849617004395,-2.052455198764801,-4.591211521932711,-1.082132746756798,0.0,-0.04496955871582031,-368.390625,-16.189041137695312,-0.015258795581758022,-5.493166409432888,-493.2414690390038,1,1789158517.0442567,38.990795105,-76.93786154,-3.847999999999999,0,1,16.679055999999996,36.264484,137.053849,1,1,1789158517.1493773,-0.5451882151061974,0.8320715054769268,0.06787183476767837,-0.07629045764673256,168.67293660995998,-3.035367694682318,-113.23183564173362,-0.04161004563094641,-0.013055411870767985,-0.026507537080514277,3.713484216747284,1.328212697906494,-9.396045719470978
2026-09-11T16:28:37.186,3.508103391999839,-864.8359985351562,-77835.23986816406,-311340.95947265625,-592.4126589965821,-3.5401422119140626,-3.048833131790161,-2.0884506952762605,-4.671731154429711,-1.0774668850490956,0.0,-0.055461883544921875,-454.34375,-19.966278076171875,-0.3814697563648224,-137.32911229133606,-3946.295501206759,1,1789158517.0442567,38.990795105,-76.93786154,-3.847999999999999,0,1,16.679055999999996,36.264484,137.053849,1,1,1789158517.1813774,-0.5459611347593629,0.8314393388665938,0.06916194775436615,-0.07649634043646969,168.53310592855073,-2.9626330411141817,-113.12100642159372,-0.011454246814988385,-0.003482455456504286,-0.04202386319659426,0.03510780757904053,1.5798513410568236,-11.016496592197418
2026-09-11T16:28:37.220,3.5415093759997944,-864.9443359375,-77844.990234375,-311379.9609375,-592.4868701171876,-3.6143533325195314,-3.2055654525756836,-2.1958123350143435,-4.911892302734299,-3.2138445536651834,0.0,-0.05703926086425781,-467.265625,-20.534133911132812,0.0,0.0,4110.913550444116,1,1789158517.0442567,38.990795105,-76.93786154,-3.847999999999999,0,1,16.679055999999996,36.264484,137.053849,1,1,1789158517.2093775,-0.547141472945845,0.8305689272457282,0.07052749668346775,-0.07627147493063788,168.4124589855311,-2.8384706931951964,-112.9617404931988,-0.04047662881470129,0.010475291637544766,-0.08635487713139985,3.545202099971771,1.5991704418754578,-8.721348188343047
2026-09-11T16:28:37.254,3.574911967999924,-865.055419921875,-77854.98779296875,-311419.951171875,-592.5629626464844,-3.6904458618164067,-3.3362069129943848,-2.2853017354011538,-5.112074390213742,-2.679115452670958,0.0,-0.06352424621582031,-520.390625,-22.868728637695312,-0.12207034230232239,-43.94532322883606,-1315.6261414882313,1,1789158517.0442567,38.990795105,-76.93786154,-3.847999999999999,0,1,16.679055999999996,36.264484,137.053849,1,1,1789158517.2493775,-0.5489119855046154,0.8292816132367591,0.06998745319859052,-0.07803457254059992,168.34451627891036,-3.014654232487342,-112.69007949821655,0.04118994487999138,-0.05823081609768842,-0.12261513953913324,0.019319100818634034,0.3399965611076355,-10.449476079845429
2026-09-11T16:28:37.288,3.6083332159998918,-865.1702270507812,-77865.32043457031,-311461.28173828125,-592.6416055297852,-3.769088745117188,-3.4153330326080322,-2.3395031273365023,-5.233319450913788,-1.6217644516267242,0.0,-0.06998252868652344,-573.296875,-25.193710327148438,-0.030517607927322388,-10.98633885383606,986.1685708155404,1,1789158517.0442567,38.990795105,-76.93786154,-3.847999999999999,0,1,16.679055999999996,36.264484,137.053849,1,1,1789158517.2813776,-0.5508880676065467,0.8279538079005105,0.07023910516758942,-0.0779826715176238,168.3167983344217,-2.966056309315494,-112.41999545838988,-0.08089775615918918,-0.08898927710436007,-0.13433293107117278,3.267183567886353,3.5380432453536987,-15.791452622451782
2026-09-11T16:28:37.320,3.6417505599999913,-865.2841186523438,-77875.57067871094,-311502.28271484375,-592.7196212768555,-3.8471044921875004,-3.4418435096740723,-2.35766280412674,-5.273941490977848,-0.5434207096226243,0.0,-0.07433700561523438,-608.96875,-26.761322021484375,-0.1983642876148224,-71.41114354133606,-1808.1869309338288,1,1789158517.0442567,38.990795105,-76.93786154,-3.847999999999999,0,1,16.679055999999996,36.264484,137.053849,1,1,1789158517.3093774,-0.5528837221133744,0.8267450904751802,0.06953444112807369,-0.07731175004003941,168.4207012283353,-2.9202147083771517,-112.15878949230256,0.20244562686072787,0.06363313373138646,-0.17487099547554427,0.9473224056243897,0.92515937625885,-3.890984584674835
2026-09-11T16:28:37.353,3.675152159999925,-865.4002075195312,-77886.01867675781,-311544.07470703125,-592.799142150879,-3.9266253662109376,-3.494105339050293,-2.3934621572494508,-5.354022363210111,-1.071785576822128,0.0,-0.07406044006347656,-606.703125,-26.661758422851562,0.0457763746380806,16.479494869709015,2631.33018811133,1,1789158517.0442567,38.990795105,-76.93786154,-3.847999999999999,0,1,16.679055999999996,36.264484,137.053849,1,1,1789158517.3493774,-0.5556292259542921,0.8250331053900746,0.06987752043210133,-0.07558882466413558,168.4909653521593,-2.698171932730374,-111.81043190846717,0.08602029751379253,-0.06754284578877896,-0.1638741994575036,0.07737446977615356,1.6630117344284059,-8.901398285312652
2026-09-11T16:28:37.386,3.708557823999854,-865.52197265625,-77896.9775390625,-311587.91015625,-592.8825512695313,-4.010034484863281,-3.598973274230957,-2.465296692848206,-5.5147116429138405,-2.150369937233035,0.0,-0.06952095031738281,-569.515625,-25.027542114257812,0.2288818508386612,82.39746630191803,1973.2573324197124,1,1789158517.0442567,38.990795105,-76.93786154,-3.847999999999999,0,1,16.679055999999996,36.264484,137.053849,1,1,1789158517.3813775,-0.5573782216242279,0.8238521752320164,0.06956606691990605,-0.07587933683014747,168.49600890141048,-2.721282917649496,-111.56510258465661,0.008992983503825984,-0.12304396693634824,-0.125401383157017,1.3593978454208373,2.516386431503296,-13.688318428764344
2026-09-11T16:28:37.421,3.741971327999863,-865.64599609375,-77908.1396484375,-311632.55859375,-592.9675073242188,-4.094990539550782,-3.6525063514709473,-2.501966850757599,-5.5967404499767275,-1.097465201775396,0.0,-0.05820274353027344,-476.796875,-20.952987670898438,0.07629400491714478,27.46584177017212,-1643.9947313436744,1,1789158517.0442567,38.990795105,-76.93786154,-3.847999999999999,0,1,16.679055999999996,36.264484,137.053849,1,1,1789158517.4093773,-0.5586395527159084,0.8232332809439922,0.0678525444498525,-0.07486552944607147,168.72121889370197,-2.7198987319593373,-111.41036720153727,0.04541591059784524,-0.1224393848834574,-0.09955654759348495,0.8982891548156738,0.4084469792366028,-6.056292940387725
2026-09-11T16:28:37.454,3.7753846079999676,-865.771240234375,-77919.41162109375,-311677.646484375,-593.053299560547,-4.180782775878907,-3.706251621246338,-2.538782360553742,-5.679094399950204,-1.1018226823594668,0.0,-0.04981040954589844,-408.046875,-17.931747436523438,0.4272461533546448,153.80861520767212,3781.2143386433604,1,1789158517.0442567,38.990795105,-76.93786154,-3.847999999999999,0,1,16.679055999999996,36.264484,137.053849,1,1,1789158517.4493775,-0.5601459286518136,0.8224885749729901,0.06900253422357439,-0.0706238835269069,168.88536274628677,-2.227745468802476,-111.27051907157026,0.02509800917660366,-0.04833148311330177,-0.051511822076285844,-0.20897971494674683,0.14092156282424928,-12.779045825767517
2026-09-11T16:28:37.487,3.8087898559999758,-865.8942260742188,-77930.48034667969,-311721.92138671875,-593.1375448608399,-4.265028076171875,-3.6556692123413086,-2.5041334104537967,-5.601586905990055,1.037230739910587,0.0,-0.04119300842285156,-337.453125,-14.829483032226562,0.4577637314796448,164.79494333267212,328.8803042263688,1,1789158517.0442567,38.990795105,-76.93786154,-3.847999999999999,0,1,16.679055999999996,36.264484,137.053849,1,1,1789158517.4813774,-0.560474818033735,0.8225241779057422,0.06798698358084611,-0.06855454160092167,169.116401921284,-2.0955189154796114,-111.25866465363686,-0.05854986228495297,-0.05991977121484332,-0.013716891657273834,-1.0999138821411132,-2.0145801427268983,-6.3999179620552065
2026-09-11T16:28:37.520,3.842191519999915,-866.0134887695312,-77941.21398925781,-311764.85595703125,-593.2192398071289,-4.346723022460938,-3.5531065464019775,-2.433877984285355,-5.444429993480118,2.1033510836038,0.0,-0.039340972900390625,-322.28125,-14.162750244140625,-0.0457763746380806,-16.479494869709015,-5427.108008831893,1,1789158517.0442567,38.990795105,-76.93786154,-3.847999999999999,0,1,16.679055999999996,36.264484,137.053849,1,1,1789158517.5093775,-0.5610091793012757,0.8224547078000225,0.06699868208826892,-0.0659403590809428,169.37995513046968,-1.9078531597164357,-111.22564504193289,-0.006554758538789904,-0.004253367387110181,0.006433807221626698,0.10708861976623535,1.147574201927185,-12.534369904232024
2026-09-11T16:28:37.554,3.875615071999846,-866.136474609375,-77952.28271484375,-311809.130859375,-593.3034851074219,-4.430968322753906,-3.6579697132110596,-2.505709253549576,-5.605111966601586,-2.149121352044488,0.0,-0.04174232482910156,-341.953125,-15.027236938476562,-0.1983642727136612,-71.41113817691803,-1643.501064977244,1,1789158517.0442567,38.990795105,-76.93786154,-3.847999999999999,0,1,16.679055999999996,36.264484,137.053849,1,1,1789158517.5493774,-0.5615669080852637,0.8219416324613434,0.06759969750486737,-0.06696895898540896,169.25431965397746,-1.9579282846585895,-111.13250381742354,-0.06364849262880401,-0.05952078894783742,-0.04073057422086647,0.2885116477584839,1.8708146513557433,-9.427525066490173
2026-09-11T16:28:37.588,3.9090313279998554,-866.2637939453125,-77963.74145507812,-311854.9658203125,-593.3906988525391,-4.518182067871094,-3.7621335983276367,-2.577061514854431,-5.764722429434566,-2.1352560054853194,0.0,-0.049106597900390625,-402.28125,-17.678375244140625,-0.1525879204273224,-54.93165135383606,493.1577859314123,1,1789158517.0442567,38.990795105,-76.93786154,-3.847999999999999,0,1,16.679055999999996,36.264484,137.053849,1,1,1789158517.5813775,-0.5622656032846556,0.8212637358247388,0.06919821947099583,-0.06778549995522715,169.04758465926722,-1.92114302372413,-111.02201706413439,-0.0651314988942236,-0.06186162454061222,-0.05391322059410484,2.4747081683158876,1.9667236899375915,-10.893619265670777
2026-09-11T16:28:37.622,3.942447391999849,-866.3922119140625,-77975.29907226562,-311901.1962890625,-593.4786651611329,-4.606148376464844,-3.814268112182617,-2.6127736568450928,-5.844608215920477,-1.0687118025231348,0.0,-0.05168914794921875,-423.4375,-18.60809326171875,-0.0610351637005806,-21.972658932209015,986.3218008450463,1,1789158517.0442567,38.990795105,-76.93786154,-3.847999999999999,0,1,16.679055999999996,36.264484,137.053849,1,1,1789158517.6093774,-0.5632122353696182,0.8207594907232394,0.06929640695607843,-0.06590784703405088,169.15941991436839,-1.7266870883835868,-110.91965152837506,-0.02215782751869401,-0.07512281073019034,-0.06177959406576848,1.250740161628723,0.4134483708190918,-8.616907364120484
2026-09-11T16:28:37.655,3.9758541759999844,-866.519287109375,-77986.73583984375,-311946.943359375,-593.5657116699219,-4.693194885253907,-3.814744472503662,-2.6130999636650087,-5.845338143488291,-0.009767681316305253,0.0,-0.05240058898925781,-429.265625,-18.864212036132812,0.0,0.0,657.7304457717337,1,1789158517.0442567,38.990795105,-76.93786154,-3.847999999999999,0,1,16.679055999999996,36.264484,137.053849,1,1,1789158517.6493773,-0.5644531908860162,0.8201049376932871,0.06846939224692535,-0.0642839699693576,169.34189829072477,-1.6127263710310835,-110.77265815085082,-0.013045987092807215,-0.038678416086371535,-0.06734213292479961,0.16249619318008424,-0.16857631628036499,-12.768454643592834
2026-09-11T16:28:37.687,4.009260479999966,-866.6414794921875,-77997.73315429688,-311990.9326171875,-593.6494134521485,-4.776896667480469,-3.7114920616149902,-2.5423720622062684,-5.687124333854388,2.1172022340088454,0.0,-0.05291748046875,-433.5,-19.05029296875,-0.0762939527630806,-27.465822994709015,-822.1748504331367,1,1789158517.0442567,38.990795105,-76.93786154,-3.847999999999999,0,1,16.679055999999996,36.264484,137.053849,1,1,1789158517.6813774,-0.5656853110171215,0.819610189505134,0.06706078313669915,-0.06117284956509108,169.67742038747028,-1.3984527568608318,-110.6477143656812,0.04077612731434352,-0.007472801725338921,-0.07475594252142112,-0.7392252891921998,-0.5527028031158447,-8.357521467342377
2026-09-11T16:28:37.720,4.042652831999931,-866.7662963867188,-78008.96667480469,-312035.86669921875,-593.7349130249024,-4.862396240234375,-3.6866986751556396,-2.5253885924816135,-5.6491333940623,0.5086035785880862,0.0,-0.05255699157714844,-430.546875,-18.920516967773438,-0.0457763709127903,-16.479493528604507,329.0073567179763,1,1789158517.0442567,38.990795105,-76.93786154,-3.847999999999999,0,1,16.679055999999996,36.264484,137.053849,1,1,1789158517.7093775,-0.5666288243211168,0.8191501622345638,0.06616819915044846,-0.05955297289592964,169.8668037799678,-1.2938507859170891,-110.53991905787174,0.019563046519754042,-0.10240125974131051,-0.055192721468741886,-1.0750049907302857,-1.027344670944214,-6.131804146633148
2026-09-11T16:28:37.756,4.076055167999812,-866.8900146484375,-78020.10131835938,-312080.4052734375,-593.8196600341797,-4.947143249511719,-3.6354479789733887,-2.4902818655967716,-5.570601882598355,1.0510260984431468,0.0,-0.052570343017578125,-430.65625,-18.925323486328125,0.1525879055261612,54.93164598941803,2137.9085438298994,1,1789158517.0442567,38.990795105,-76.93786154,-3.847999999999999,0,1,16.679055999999996,36.264484,137.053849,1,1,1789158517.7493775,-0.568006240426939,0.8181989109755495,0.06604325319999632,-0.059646807301314816,169.87027890052389,-1.2938455482313242,-110.34737283293026,0.05241590262881891,-0.04584124733655627,-0.060662234278641716,-1.0754953232383728,-3.6858294632911686,-0.9745848930740356
2026-09-11T16:28:37.789,4.1094741759998215,-867.0121459960938,-78031.09313964844,-312124.37255859375,-593.9033200073243,-5.0308032226562505,-3.6102147102355957,-2.4729970765113833,-5.531936910592744,0.5172143076593753,0.0,-0.05374336242675781,-440.265625,-19.347610473632812,0.0,0.0,-1643.7246129329103,1,1789158517.0442567,38.990795105,-76.93786154,-3.847999999999999,0,1,16.679055999999996,36.264484,137.053849,1,1,1789158517.7813776,-0.569071705825353,0.8173286682207752,0.06684435057605702,-0.06052333871773883,169.73516072303212,-1.309692884173424,-110.18660532991825,0.010349976997251575,0.0035227725622253548,-0.040770716793662336,0.8276812736511231,0.8559244261169433,-11.649613926639557
2026-09-11T16:28:37.822,4.142896447999874,-867.1332397460938,-78041.99157714844,-312167.96630859375,-593.9862692260742,-5.11375244140625,-3.585442304611206,-2.4560279786586765,-5.493978119762603,0.5077182620224071,0.0,-0.053310394287109375,-436.71875,-19.191741943359375,0.030517593026161194,10.98633348941803,328.7129459481617,1,1789158517.0442567,38.990795105,-76.93786154,-3.847999999999999,0,1,16.679055999999996,36.264484,137.053849,1,1,1789158517.8093774,-0.5697218284590422,0.8169074712790321,0.06674365939123836,-0.06020386596265499,169.7647662228956,-1.278451498325748,-110.10066627081142,-0.00633449798718822,-0.08062391399955127,-0.011965104687047126,8.741255688171387,0.8488636380004883,-6.793262700042725
2026-09-11T16:28:37.854,4.176298463999956,-867.2550659179688,-78052.95593261719,-312211.82373046875,-594.0697201538086,-5.197203369140626,-3.638535499572754,-2.4923968172073367,-5.575332894611967,-1.0888216612006627,0.0,-0.05377388000488281,-440.515625,-19.358596801757812,0.0915527418255806,32.958987057209015,657.8241734791438,1,1789158517.0442567,38.990795105,-76.93786154,-3.847999999999999,0,1,16.679055999999996,36.264484,137.053849,1,1,1789158517.8493774,-0.5711820258375279,0.8158937331202231,0.06661251996562444,-0.06026011781529593,169.77114494792843,-1.2741314872360272,-109.8966009867707,0.03182380998208901,0.06340990612005638,-0.07120890988259305,-0.21809989959716797,0.8089505718421935,-12.631357674331666
2026-09-11T16:28:37.887,4.209706463999964,-867.3770141601562,-78063.93127441406,-312255.72509765625,-594.1532546997071,-5.2807379150390625,-3.6659514904022217,-2.511176770925522,-5.617342454647278,-0.5621394192463001,0.0,-0.05410957336425781,-443.265625,-19.479446411132812,0.0,0.0,-986.5597179478145,1,1789158517.0442567,38.990795105,-76.93786154,-3.847999999999999,0,1,16.679055999999996,36.264484,137.053849,1,1,1789158517.8813775,-0.5721969359079384,0.8152829555119107,0.06432660400171303,-0.06137146736829266,169.91067984395355,-1.5159511047149876,-109.74086386334689,-0.0425668351268897,0.03531045422879808,-0.06988106338767576,1.9100412520027161,-0.24477398803710937,-10.66129972333908
2026-09-11T16:28:37.922,4.243110431999867,-867.4989013671875,-78074.90112304688,-312299.6044921875,-594.2367474365235,-5.364230651855469,-3.6676154136657715,-2.5123165583610536,-5.619892086527046,-0.03412131862702667,0.0,-0.054168701171875,-443.75,-19.500732421875,0.0,0.0,0.0,1,1789158517.0442567,38.990795105,-76.93786154,-3.847999999999999,0,1,16.679055999999996,36.264484,137.053849,1,1,1789158517.9093773,-0.573294827654287,0.8143960208126,0.06553530515257863,-0.06162211979478745,169.77843577602476,-1.4455835204979652,-109.58337365300069,-0.0251151134032732,0.03840125780115484,-0.05105349861471213,1.0848116408920288,1.44903062789917,-8.622595221214295
2026-09-11T16:28:37.956,4.276524255999902,-867.6234130859375,-78086.10717773438,-312344.4287109375,-594.3220379638673,-5.449521179199219,-3.7205986976623535,-2.5486101078987122,-5.701078444655309,-1.0861836567290195,0.0,-0.05372428894042969,-440.109375,-19.340744018554688,-0.0915527418255806,-32.958987057209015,-986.3877614598624,1,1789158517.0442567,38.990795105,-76.93786154,-3.847999999999999,0,1,16.679055999999996,36.264484,137.053849,1,1,1789158517.9493775,-0.5748309271360456,0.8131262645882013,0.06712844735705138,-0.06236068152437462,169.57695936773698,-1.3889399358918733,-109.35732369301607,-0.06852581522350217,0.07837156659985257,-0.05398355736296021,1.0593143504714966,2.4700009762382504,-9.068895870075226
2026-09-11T16:28:37.989,4.309938687999875,-867.7525634765625,-78097.73071289062,-312390.9228515625,-594.4105059814453,-5.537989196777344,-3.878300428390503,-2.656635793447495,-5.9427250211334375,-3.2329050378253394,0.0,-0.05435371398925781,-445.265625,-19.567337036132812,0.0,0.0,986.3698134158421,1,1789158517.0442567,38.990795105,-76.93786154,-3.847999999999999,0,1,16.679055999999996,36.264484,137.053849,1,1,1789158517.9813774,-0.5756376293647744,0.8121783601681485,0.06894182957002455,-0.06522771703361778,169.21364879361414,-1.523219146858714,-109.20138939688856,-0.11716430175222975,0.052898486166995336,-0.08233067147507651,-2.0064406230926513,2.4301859765815736,-11.935673911857606
2026-09-11T16:28:38.022,4.343362559999832,-867.8848266601562,-78109.63439941406,-312438.53759765625,-594.501106262207,-5.628589477539063,-3.931144952774048,-2.692834292650223,-6.023698757717923,-1.0830133385735257,0.0,-0.05535316467285156,-453.453125,-19.927139282226562,-0.0915527418255806,-32.958987057209015,-986.0912301618098,1,1789158517.0442567,38.990795105,-76.93786154,-3.847999999999999,0,1,16.679055999999996,36.264484,137.053849,1,1,1789158518.0093775,-0.576823387395921,0.8111776455305685,0.06906480400996096,-0.06704968300927473,169.07758678207992,-1.6676583523212198,-109.00775873250815,-0.08705231070049678,0.09197885158010116,-0.08882085283154263,0.7942405965995789,1.7153792462921142,-9.484992036437987
2026-09-11T16:28:38.055,4.376763615999835,-868.0169677734375,-78121.52709960938,-312486.1083984375,-594.5916229248047,-5.719106140136719,-3.9583702087402344,-2.7114835929870607,-6.065416054462817,-0.5583446324821641,0.0,-0.05727577209472656,-469.203125,-20.619277954101562,-0.0457763746380806,-16.479494869709015,493.38237053040484,1,1789158518.0522325,38.990794433333335,-76.93784630166667,-3.7890000000000015,0,1,16.670889000000003,36.264484,137.03043599999998,1,1,1789158518.0493774,-0.5786355702859604,0.8097872405167172,0.06868366756074173,-0.06861527312899952,169.00400958430694,-1.81325107890867,-108.72985028376438,-0.016290030573489076,0.056366106324857675,-0.09379015427782088,-1.3368425500488281,0.26880028093338015,-10.004156096000672
2026-09-11T16:28:38.088,4.4101689919998535,-868.1493530273438,-78133.44177246094,-312533.76708984375,-594.6823068237305,-5.8097900390625,-3.9585776329040527,-2.7116256785392765,-6.065733890791145,-0.004253373834671481,0.0,-0.05800628662109375,-475.1875,-20.88226318359375,-0.0610351637005806,-21.972658932209015,-164.4395220247456,1,1789158518.0522325,38.990794433333335,-76.93784630166667,-3.7890000000000015,0,1,16.670889000000003,36.264484,137.03043599999998,1,1,1789158518.0813775,-0.5801649472809964,0.808764623925126,0.06679529717116443,-0.0696190010665478,169.1090218532534,-2.0118499327225665,-108.50088212595756,-0.006801722627947102,0.05536969785489411,-0.09559657005363502,2.5104043749046325,0.5785923595428466,-10.803496150684357
2026-09-11T16:28:38.123,4.443582559999868,-868.2830810546875,-78145.47729492188,-312581.9091796875,-594.7739105224609,-5.9013937377929695,-3.9590976238250732,-2.7119818723201754,-6.066530673586642,-0.010660154009854657,0.0,-0.05777168273925781,-473.265625,-20.797805786132812,0.0,0.0,657.5969059095839,1,1789158518.0522325,38.990794433333335,-76.93784630166667,-3.7890000000000015,0,1,16.670889000000003,36.264484,137.03043599999998,1,1,1789158518.1213775,-0.582064670519099,0.8074404332339696,0.06445493815896351,-0.0713177892208979,169.20701387441773,-2.3002325809832636,-108.2087970705479,0.050487139272439974,-0.06447857122105251,-0.0942456852125914,0.712060868244171,0.6568494278335572,-9.187948603038787
2026-09-11T16:28:38.156,4.476991807999866,-868.4174194335938,-78157.56774902344,-312630.27099609375,-594.8659323120118,-5.993415527343751,-4.037911415100098,-2.7659693193435673,-6.187297153148632,-1.6159431970272098,0.0,-0.05801582336425781,-475.265625,-20.885696411132812,0.0,0.0,0.0,1,1789158518.0522325,38.990794433333335,-76.93784630166667,-3.7890000000000015,0,1,16.670889000000003,36.264484,137.03043599999998,1,1,1789158518.1493773,-0.5837414727672962,0.8064228977219896,0.06607509227128433,-0.06754320974368133,169.3086493972341,-1.8220400570039774,-108.03055348982349,0.034706221241757644,-0.1389044719809215,-0.10978260621384492,-2.603175285434723,0.9248651767539978,-9.416737751312256
2026-09-11T16:28:38.189,4.51040924799986,-868.5509033203125,-78169.58129882812,-312678.3251953125,-594.9573687744141,-6.084851989746094,-4.013728141784668,-2.749403777122498,-6.150241090556762,0.495715477339748,0.0,-0.057098388671875,-467.75,-20.555419921875,0.0,0.0,0.0,1,1789158518.0522325,38.990794433333335,-76.93784630166667,-3.7890000000000015,0,1,16.670889000000003,36.264484,137.03043599999998,1,1,1789158518.1813774,-0.5852337382179963,0.8055439438918756,0.06750612970631645,-0.06358733020489762,169.44172349790043,-1.3426230453111105,-107.87856123670024,-0.008395731833793524,-0.17474166657797147,-0.08225352792213837,-2.566890679836273,0.16877244928359986,-10.964129080333711
2026-09-11T16:28:38.222,4.5438132159999896,-868.6826782226562,-78181.44104003906,-312725.76416015625,-595.0476345825195,-6.175117797851563,-3.9630823135375977,-2.7147113847732545,-6.072636419052549,1.038570996987807,0.0,-0.055820465087890625,-457.28125,-20.095367431640625,-0.015258789993822575,-5.493164397776127,-164.4464632990548,1,1789158518.0522325,38.990794433333335,-76.93784630166667,-3.7890000000000015,0,1,16.670889000000003,36.264484,137.03043599999998,1,1,1789158518.2093775,-0.5867698953611478,0.8044981424847237,0.06830340810626408,-0.06179379481441454,169.48742725600692,-1.1041132591849738,-107.6872852204941,0.031000712706848482,-0.16065040179614484,-0.06404433330315633,-0.4172729643821716,-1.1317854951667785,-9.204031509304047
2026-09-11T16:28:38.255,4.577213247999907,-868.8126831054688,-78193.14147949219,-312772.56591796875,-595.1366879272462,-6.2641711425781255,-3.8873462677001953,-2.662832193374634,-5.956585973010538,1.5532677153946544,0.0,-0.05634307861328125,-461.5625,-20.28350830078125,0.0,0.0,164.4658423617577,1,1789158518.0522325,38.990794433333335,-76.93784630166667,-3.7890000000000015,0,1,16.670889000000003,36.264484,137.03043599999998,1,1,1789158518.2493775,-0.588484219134755,0.8034318046248181,0.06876342983180188,-0.058781373447996416,169.64808071307328,-0.774734927391248,-107.48701305801133,0.06337063621188652,0.10670454354502772,-0.06689829569601745,6.055802607879638,1.1329622931861876,-6.55751083015442
2026-09-11T16:28:38.290,4.610627007999938,-868.9466552734375,-78205.19897460938,-312820.7958984375,-595.2284588623047,-6.355942077636719,-3.914142370223999,-2.6811875236034397,-5.997645677351997,-0.5493344726480668,0.0,-0.05710029602050781,-467.765625,-20.556106567382812,0.1068115308880806,38.452151119709015,1150.7879125149057,1,1789158518.0522325,38.990794433333335,-76.93784630166667,-3.7890000000000015,0,1,16.670889000000003,36.264484,137.03043599999998,1,1,1789158518.2813776,-0.5903598221675648,0.8021496001582978,0.06778386875496736,-0.05862291764125405,169.74785896346947,-0.8030240316574448,-107.22389079679212,0.026704584753064437,0.05760511556084845,-0.10165565508485853,3.9147166780662537,-0.08943664947509765,-10.104870393161773
2026-09-11T16:28:38.324,4.64404915199998,-869.0780029296875,-78217.02026367188,-312868.0810546875,-595.318432006836,-6.44591522216797,-3.941129207611084,-2.6996735072135927,-6.038997644983871,-0.5531058573061549,0.0,-0.05726051330566406,-469.078125,-20.613784790039062,0.0610351599752903,21.972657591104507,-493.07110664665385,1,1789158518.0522325,38.990794433333335,-76.93784630166667,-3.7890000000000015,0,1,16.670889000000003,36.264484,137.03043599999998,1,1,1789158518.3213775,-0.5925201905545876,0.8005093467510694,0.06654834721962236,-0.0606294238111156,169.7220803723503,-1.043205348858246,-106.89004526898181,0.004571191843898348,0.1196353389072033,-0.08401910299345582,2.4343047696495055,-1.072357195186615,-10.717687961769103
2026-09-11T16:28:38.356,4.677462271999957,-869.210205078125,-78228.91845703125,-312915.673828125,-595.4089904785156,-6.536473693847657,-3.91603946685791,-2.682487034797669,-6.000552601104299,0.5143629932174987,0.0,-0.05740547180175781,-470.265625,-20.665969848632812,0.0,0.0,-657.6056827712991,1,1789158518.0522325,38.990794433333335,-76.93784630166667,-3.7890000000000015,0,1,16.670889000000003,36.264484,137.03043599999998,1,1,1789158518.3493774,-0.5939326054792418,0.7993373265719433,0.06568435684381443,-0.06316220201570207,169.62537435820633,-1.3151481030448056,-106.65359619269265,-0.0819988843842724,0.13483506229697154,-0.09087301096603756,2.1648180232048033,-1.3270358998870848,-10.081824765281677
2026-09-11T16:28:38.389,4.7108741119998285,-869.3391723632812,-78240.52551269531,-312962.10205078125,-595.4973330688478,-6.624816284179688,-3.891706943511963,-2.665819256305695,-5.963267842487679,0.49885844335535184,0.0,-0.0573577880859375,-469.875,-20.6488037109375,0.1373291164636612,49.43848192691803,1479.6695401123716,1,1789158518.0522325,38.990794433333335,-76.93784630166667,-3.7890000000000015,0,1,16.670889000000003,36.264484,137.03043599999998,1,1,1789158518.3813775,-0.5957178357654039,0.7981761380691701,0.0647566765323293,-0.06198133277411599,169.78960314434724,-1.2486098015299363,-106.41689116346103,-0.018228567773679174,0.14623799643195126,-0.0658359137803285,-3.2844432721710204,-1.094422158050537,-10.50596238477707
2026-09-11T16:28:38.422,4.744279519999964,-869.4710693359375,-78252.39624023438,-313009.5849609375,-595.5876824951172,-6.715165710449219,-3.9457223415374756,-2.702819803953171,-6.046035710346207,-1.1076214859380402,0.0,-0.05318260192871094,-435.671875,-19.145736694335938,0.1983642876148224,71.41114354133606,657.7576185966399,1,1789158518.0522325,38.990794433333335,-76.93784630166667,-3.7890000000000015,0,1,16.670889000000003,36.264484,137.03043599999998,1,1,1789158518.4093773,-0.5968134884807493,0.7973550664725723,0.061650172536896454,-0.0650984958668713,169.85744246792882,-1.7320815665621,-106.2171955865177,-0.02375305845501683,0.2049955528978916,-0.05898148220897117,0.6146808321380616,-0.4794471264076233,-12.784733682861328
2026-09-11T16:28:38.457,4.777789503999884,-869.6023559570312,-78264.21203613281,-313056.84814453125,-595.6776138305664,-6.805097045898438,-3.9473862648010254,-2.7039595913887027,-6.048585342225975,-0.03401336853919068,0.0,-0.044101715087890625,-361.28125,-15.876617431640625,0.4272461235523224,153.80860447883606,2458.8928761558395,1,1789158518.0522325,38.990794433333335,-76.93784630166667,-3.7890000000000015,0,1,16.670889000000003,36.264484,137.03043599999998,1,1,1789158518.4493775,-0.5981216720401594,0.7964105005458817,0.06113203317055032,-0.0651433386968828,169.89911238192104,-1.7554099323942733,-106.03015389118009,0.047485696557785326,0.10505224034216469,-0.009478883167581205,2.066751521587372,1.3314488924598693,-8.566795381793975
2026-09-11T16:28:38.491,4.811205503999872,-869.7345581054688,-78276.11022949219,-313104.44091796875,-595.7681723022462,-6.895655517578126,-3.94840407371521,-2.7046567904949192,-6.0501449322094585,-0.020864229896361504,0.0,-0.03136444091796875,-256.9375,-11.29119873046875,0.5187988877296448,186.76759958267212,986.3237701654165,1,1789158518.0522325,38.990794433333335,-76.93784630166667,-3.7890000000000015,0,1,16.670889000000003,36.264484,137.03043599999998,1,1,1789158518.4813774,-0.5984729365264125,0.796009419190284,0.059939398240531364,-0.0678705926330562,169.81781995664818,-2.080697842460745,-105.93987769221431,0.007561115385489835,0.13926121728002913,0.007509279106705603,2.9119866990280148,1.2952623533630372,-8.39900359752655
2026-09-11T16:28:38.524,4.8446292799999355,-869.8690185546875,-78288.21166992188,-313152.8466796875,-595.860277709961,-6.987760925292969,-4.026959419250488,-2.758467202186585,-6.1705153950129334,-1.6099441215607613,0.0,-0.017139434814453125,-140.40625,-6.170196533203125,0.3204346299171448,115.35646677017212,-2136.536961364412,1,1789158518.0522325,38.990794433333335,-76.93784630166667,-3.7890000000000015,0,1,16.670889000000003,36.264484,137.03043599999998,1,1,1789158518.5213776,-0.5985653509964359,0.7961373491445941,0.060495056760223334,-0.06500146145364494,169.96648784672973,-1.7810220252806814,-105.96925905557569,0.03711948799849021,0.01884344726915678,0.06868306938910686,-1.7266568939781188,0.43404233615875243,-9.055068493347168
2026-09-11T16:28:38.556,4.878032767999912,-870.0037841796875,-78300.34057617188,-313201.3623046875,-595.952592163086,-7.08007537841797,-4.079046726226807,-2.7941470074653627,-6.250328846334466,-1.068146095365946,0.0,0.004234314430505037,34.687503814697266,1.5243531949818134,0.6713867783546448,241.69924020767212,3782.3227753218384,1,1789158518.0522325,38.990794433333335,-76.93784630166667,-3.7890000000000015,0,1,16.670889000000003,36.264484,137.03043599999998,1,1,1789158518.5493774,-0.5977336398306079,0.7967708189432317,0.06093110199562713,-0.06448378637288094,169.96425672325137,-1.7143426708640948,-106.09535519007841,0.0446601830317317,-0.05132734077435004,0.1389720162229737,2.121766828994751,2.3570283663749696,-9.947571724567414
2026-09-11T16:28:38.589,4.911436415999788,-870.145263671875,-78313.07373046875,-313252.294921875,-596.0495056152345,-7.1769888305664065,-4.234639644622803,-2.90072815656662,-6.488744086807929,-3.190703874668227,0.0,0.015378953889012337,125.98439025878906,5.536423400044441,0.0457763709127903,16.479493528604507,-6742.369775897076,1,1789158518.0522325,38.990794433333335,-76.93784630166667,-3.7890000000000015,0,1,16.670889000000003,36.264484,137.03043599999998,1,1,1789158518.5813775,-0.5959169535904831,0.7981249244985209,0.06241915296243976,-0.06311448851982855,169.92603800559894,-1.5101036717921625,-106.37345605012857,-0.02442972260601503,-0.05506985028940148,0.17835327639912335,1.4204932759284974,1.5740654174613955,-12.15769647151947
2026-09-11T16:28:38.624,4.944843839999976,-870.29248046875,-78326.3232421875,-313305.29296875,-596.1503491210938,-7.2778323364257815,-4.391419887542725,-3.008122622966767,-6.728978666264235,-3.2146886392540033,0.0,0.02998352237045765,245.62501525878906,10.794068053364754,0.18310552835464478,65.91799020767212,1479.865573556016,1,1789158518.0522325,38.990794433333335,-76.93784630166667,-3.7890000000000015,0,1,16.670889000000003,36.264484,137.03043599999998,1,1,1789158518.6213775,-0.5926673911700481,0.8004146926736923,0.06744569695113475,-0.059437035243556195,169.72094928520045,-0.8710910993675935,-106.88542407044982,-0.02872096363789349,-0.17146184384762372,0.2463289638423969,-1.861890599708557,1.020087749824524,-11.195762157154084
2026-09-11T16:28:38.658,4.978253695999911,-870.4439086914062,-78339.95178222656,-313359.80712890625,-596.2540774536134,-7.381560668945313,-4.496335983276367,-3.079990148544312,-6.889741742448793,-2.151087558643939,0.0,0.044843677431344986,367.3594055175781,16.143723875284195,0.3509522080421448,126.34279489517212,1808.5921917058859,1,1789158518.0522325,38.990794433333335,-76.93784630166667,-3.7890000000000015,0,1,16.670889000000003,36.264484,137.03043599999998,1,1,1789158518.6493773,-0.5897982287220561,0.8023110739424707,0.07126974230353253,-0.057927660556876155,169.47296360993138,-0.5089348245613724,-107.31210672177207,-0.05296882293585071,-0.13250818933821268,0.2843378716277034,0.12199472801208495,2.1861965205574037,-8.901594418315888
2026-09-11T16:28:38.690,5.0116727359998094,-870.5995483398438,-78353.95935058594,-313415.83740234375,-596.3606906127931,-7.488173828125,-4.653726577758789,-3.1878027057647706,-7.130911564434429,-3.2260818150606694,0.0,0.0473785437643528,388.1250305175781,17.056275755167007,-0.03051757998764515,-10.986328795552254,-4109.3078583687675,1,1789158518.0522325,38.990794433333335,-76.93784630166667,-3.7890000000000015,0,1,16.670889000000003,36.264484,137.03043599999998,1,1,1789158518.6813774,-0.586164936637643,0.8047555956349672,0.07495614259837906,-0.056219881159324345,169.24839053120314,-0.14972565866555024,-107.8484923112162,0.014091264781826618,-0.08222141386390167,0.3114089755236867,-1.7172425098228454,1.2852595701980591,-9.856762144069672
2026-09-11T16:28:38.723,5.045080895999945,-870.7562255859375,-78368.06030273438,-313472.2412109375,-596.4680145263673,-7.595497741699219,-4.706031322479248,-3.223631455898285,-7.211058195907036,-1.0724550568893678,0.0,0.0473938025534153,388.2500305175781,17.061768919229507,0.0,0.0,328.85165766410677,1,1789158518.0522325,38.990794433333335,-76.93784630166667,-3.7890000000000015,0,1,16.670889000000003,36.264484,137.03043599999998,1,1,1789158518.7213774,-0.5815253568361066,0.8082388666037483,0.07411212565178867,-0.05554805756370553,169.37343875245605,-0.20603821828278374,-108.51104123704437,0.01563937182834559,0.020761215051248148,0.3190707964070166,0.7588385895156861,1.1652261722183228,-9.614439818572999
2026-09-11T16:28:38.757,5.078487263999932,-870.9177856445312,-78382.60070800781,-313530.40283203125,-596.578683166504,-7.7061663818359385,-4.81072998046875,-3.295350036621094,-7.371488091940521,-2.146853579618012,0.0,0.04631996527314186,379.4531555175781,16.67518749833107,-0.0457763709127903,-16.479493528604507,-493.30395715603754,1,1789158518.0522325,38.990794433333335,-76.93784630166667,-3.7890000000000015,0,1,16.670889000000003,36.264484,137.03043599999998,1,1,1789158518.7493775,-0.5788482651435679,0.8101878533941048,0.07419383751919388,-0.055005478155450746,169.40284717684654,-0.18538610526542493,-108.89409199357638,0.007651872506593539,0.04839955095412955,0.2941422587007816,0.11179581184387208,0.9629149793815612,-11.1210354829216
2026-09-11T16:28:38.792,5.111905791999789,-871.0802612304688,-78397.22351074219,-313588.89404296875,-596.6899789428711,-7.817462158203125,-4.8114142417907715,-3.2958187556266787,-7.372536586494888,-0.014025722664581531,0.0,0.03914070501923561,320.6406555175781,14.09065380692482,-0.2288818657398224,-82.39747166633606,-1972.4979549672175,1,1789158518.0522325,38.990794433333335,-76.93784630166667,-3.7890000000000015,0,1,16.670889000000003,36.264484,137.03043599999998,1,1,1789158518.7813776,-0.5761177700989921,0.8122177904871178,0.07304373801334317,-0.05527375624495903,169.49355552262082,-0.3222942071611616,-109.2731138307954,-0.007323750607218606,0.08855887891081828,0.25263431483107684,-0.5272055126953126,0.5712373719215393,-9.003583579998017
2026-09-11T16:28:38.825,5.1453218879998985,-871.24365234375,-78411.9287109375,-313647.71484375,-596.8019018554688,-7.929385070800782,-4.890674591064453,-3.3501120948791505,-7.493987327485565,-1.6247660783681355,0.0,0.0331878699362278,271.8750305175781,11.947633177042007,-0.3051758110523224,-109.86329197883606,-821.9338462640761,1,1789158518.0522325,38.990794433333335,-76.93784630166667,-3.7890000000000015,0,1,16.670889000000003,36.264484,137.03043599999998,1,1,1789158518.8213775,-0.5731136702301812,0.8143107958322809,0.0724161719827385,-0.05652032220055552,169.47111758107332,-0.5182371294169247,-109.67631974688314,-0.0352113195272848,0.05322067394691349,0.22480905416530683,-0.8669078742980958,0.27674366756439206,-9.371725227069854
2026-09-11T16:28:38.857,5.1787257919997955,-871.40625,-78426.5625,-313706.25,-596.9132812500001,-8.040764465332032,-4.918483734130859,-3.369161357879639,-7.536599315228246,-0.5702705588109432,0.0,0.027257923036813736,223.29690551757812,9.812852293252945,-0.10681155323982239,-38.45215916633606,2137.807988333345,1,1789158518.0522325,38.990794433333335,-76.93784630166667,-3.7890000000000015,0,1,16.670889000000003,36.264484,137.03043599999998,1,1,1789158518.8493774,-0.5710786793852874,0.8156928102174786,0.07384002060197249,-0.05533563651543601,169.41658678195262,-0.340157805490164,-109.9756185630445,-0.07480882599775655,-0.02711002473830272,0.2387228189622056,-1.7222439014053346,-0.02029976583480835,-12.330489647369385
2026-09-11T16:28:38.890,5.212129151999989,-871.5691528320312,-78441.22375488281,-313764.89501953125,-597.0248696899414,-8.152352905273439,-4.893415927886963,-3.35198991060257,-7.4981878816270715,0.51406347376341,0.0,0.0276184119284153,226.25003051757812,9.942628294229507,0.0,0.0,1151.1464465285474,1,1789158518.0522325,38.990794433333335,-76.93784630166667,-3.7890000000000015,0,1,16.670889000000003,36.264484,137.03043599999998,1,1,1789158518.8813775,-0.5680763904594636,0.8177446194933774,0.07376273894622663,-0.05605363712846124,169.37796432663686,-0.45088687778159353,-110.38368817614565,-0.05658619234353416,-0.030113910913910164,0.2378335737083145,3.7302535885238646,0.1621039271736145,-10.407405550651552
2026-09-11T16:28:38.925,5.245534591999785,-871.7313232421875,-78455.81909179688,-313823.2763671875,-597.1359564208985,-8.26343963623047,-4.86903190612793,-3.3352868556976323,-7.46082421192204,0.5000100254640938,0.0,0.029737476259469986,243.60940551757812,10.705491453409195,0.2746582329273224,98.87696385383606,2959.906046872537,1,1789158518.0522325,38.990794433333335,-76.93784630166667,-3.7890000000000015,0,1,16.670889000000003,36.264484,137.03043599999998,1,1,1789158518.9213774,-0.5640452204748029,0.8205614724371195,0.07472641026122827,-0.05429385619780364,169.40382507946222,-0.27529261605828004,-110.96603524244183,-0.05410084348869423,-0.17871787567986494,0.2762025429183074,-1.4043123031616211,0.5471130125236511,-8.567579913806915
2026-09-11T16:28:38.959,5.278958431999854,-871.8926391601562,-78470.33752441406,-313881.35009765625,-597.246457824707,-8.373941040039064,-4.791876792907715,-3.282435603141785,-7.3425993269993315,1.581244182467929,0.0,0.0413360632956028,338.6250305175781,14.880982786417007,0.3509521782398224,126.34278416633606,821.7434116619644,1,1789158518.0522325,38.990794433333335,-76.93784630166667,-3.7890000000000015,0,1,16.670889000000003,36.264484,137.03043599999998,1,1,1789158518.9493775,-0.5611100120965009,0.822671247297452,0.07635974143190831,-0.05036628915823714,169.50435950439265,0.1617252890758944,-111.42229421489863,-0.05760686089010044,-0.14676351506972676,0.2874141889672686,-2.1385362007713318,-0.24820631559371947,-10.915193896026611
2026-09-11T16:28:38.991,5.312369151999974,-872.0535888671875,-78484.82299804688,-313939.2919921875,-597.3567083740235,-8.48419158935547,-4.791648864746094,-3.2822794723510746,-7.3422500723672846,0.004673074711043245,0.0,0.04583931341767311,375.5156555175781,16.50215283036232,0.03051757998764515,10.986328795552254,-3452.6779240426367,1,1789158518.0522325,38.990794433333335,-76.93784630166667,-3.7890000000000015,0,1,16.670889000000003,36.264484,137.03043599999998,1,1,1789158518.9813774,-0.5573272473319274,0.8252315396265262,0.0784991210552066,-0.047086445826906145,169.5105930223115,0.5606457280452682,-111.98453593252889,-0.11573906588505117,-0.08586374147988864,0.322752044865323,-0.7762944268035888,-0.3545104033470154,-3.240705612449646
2026-09-11T16:28:39.025,5.345792703999905,-872.2135009765625,-78499.21508789062,-313996.8603515625,-597.4662481689454,-8.593731384277344,-4.7664337158203125,-3.265007095336914,-7.303612865374263,0.5167726342848339,0.0,0.04952621832489967,405.7187805175781,17.829438596963882,0.01525880303233862,5.493169091641903,-164.349968068076,1,1789158518.0522325,38.990794433333335,-76.93784630166667,-3.7890000000000015,0,1,16.670889000000003,36.264484,137.03043599999998,1,1,1789158519.0213776,-0.5518775994144559,0.8290638534277622,0.07707320810093347,-0.0463029458790404,169.69369449045996,0.47520270099000783,-112.74233590359069,-0.003990695334685035,-0.0444763998614967,0.3709465196323432,-0.23771319992065432,-3.3644655374908448,-4.43221360710144
2026-09-11T16:28:39.057,5.379198783999982,-872.3704223632812,-78513.33801269531,-314053.35205078125,-597.5737393188477,-8.701222534179688,-4.742377281188965,-3.248528437614441,-7.26675115787052,0.49328319043824165,0.0,0.05165481939911842,423.1562805175781,18.595734983682632,0.1678467094898224,60.42481541633606,1644.3607368648895,1,1789158519.0422118,38.990792281666664,-76.93782805666666,-3.808,0,1,16.670889000000003,36.276529,137.007025,1,1,1789158519.0493774,-0.5480935269766368,0.8316412140005361,0.07606749829159987,-0.04669167555017499,169.7637461594364,0.3278919784345622,-113.25557230949883,-0.03653899148927688,0.015447211077701013,0.38091618938558525,-0.35500073585510256,0.3659841840362549,-15.523436873531342
2026-09-11T16:28:39.092,5.412598271999968,-872.528076171875,-78527.52685546875,-314110.107421875,-597.6817321777344,-8.809215393066406,-4.6907782554626465,-3.2131831049919133,-7.187685900572454,1.058259714117238,0.0,0.0536499060690403,439.5000305175781,19.313966184854507,0.1831054836511612,65.91797411441803,164.46835047543874,1,1789158519.0422118,38.990792281666664,-76.93782805666666,-3.808,0,1,16.670889000000003,36.276529,137.007025,1,1,1789158519.0813775,-0.5434425186901143,0.8348728396178206,0.07363798528282178,-0.04727597351412967,169.95972651463555,0.06286333072805458,-113.88302266854096,0.04917028835181025,0.017859605169807575,0.3721226970152622,-2.4308724420928955,-1.0572549539375304,-12.225852690143586
2026-09-11T16:28:39.126,5.446011295999824,-872.681640625,-78541.34765625,-314165.390625,-597.786923828125,-8.914407043457032,-4.5878448486328125,-3.1426737213134768,-7.029960901291771,2.110236525695514,0.0,0.054044727236032486,442.7344055175781,19.456101804971695,0.0,0.0,-1972.8227566203682,1,1789158519.0422118,38.990792281666664,-76.93782805666666,-3.808,0,1,16.670889000000003,36.276529,137.007025,1,1,1789158519.1213775,-0.5381250026467823,0.8385725588396115,0.07150260834317979,-0.04587942989738432,170.25299493426976,0.0004710144826444702,-114.62220393610241,0.04037400345468403,0.0018113026977197152,0.3538658549077007,-0.5187717935562134,-0.4642468186569214,-9.15127173143387
