timestamp,time_s,drive_pos_turns,drive_encoder_count,drive_wheel_angle_deg,drive_distance_m,drive_distance_since_start_m,drive_velocity_turns_s,drive_velocity_mps,drive_velocity_mph,drive_acceleration_mps2,drive_iq_A,steer_pos_turns,steer_encoder_count,steer_angle_deg,steer_velocity_turns_s,steer_velocity_deg_s,steer_acceleration_deg_s2,gps_received,gps_ros_stamp_s,gps_latitude_deg,gps_longitude_deg,gps_altitude_m,gps_status,gps_service,gps_cov_x_m2,gps_cov_y_m2,gps_cov_z_m2,gps_covariance_type,imu_received,imu_ros_stamp_s,imu_qx,imu_qy,imu_qz,imu_qw,imu_roll_deg,imu_pitch_deg,imu_yaw_deg,imu_gyro_x_rad_s,imu_gyro_y_rad_s,imu_gyro_z_rad_s,imu_accel_x_mps2,imu_accel_y_mps2,imu_accel_z_mps2
2026-09-11T16:25:17.210,7.5519999427342555e-06,-503.884765625,-45349.62890625,-181398.515625,-345.16106445312505,0.0,0.0,0.0,0.0,0.0,0.0,-0.04263496398925781,-349.265625,-15.348587036132812,0.0,0.0,0.0,1,1789158317.0543582,38.990818615,-76.93796490333334,-10.347999999999999,0,1,20.602520999999996,35.5216,148.3524,1,1,1789158317.2027364,0.9257822645239637,-0.37738274628707374,0.012784001104616183,0.018601903490368252,178.57826846942604,-2.1611636545761987,-44.328397919584184,0.0010913543812720544,0.0012253956678252187,-2.96705972839036e-05,0.360100193939209,0.2545806381988525,-9.706131997585297
2026-09-11T16:25:17.244,0.03341894400000456,-503.884765625,-45349.62890625,-181398.515625,-345.16106445312505,0.0,0.0,0.0,0.0,0.0,0.0,-0.04263496398925781,-349.265625,-15.348587036132812,0.0,0.0,0.0,1,1789158317.0543582,38.990818615,-76.93796490333334,-10.347999999999999,0,1,20.602520999999996,35.5216,148.3524,1,1,1789158317.2417364,0.925781730441828,-0.37738556775087645,0.012799254794341621,0.018560708773989798,178.58330888224103,-2.1610055149243346,-44.32881754266694,0.0029494319029452175,0.0016016886545551963,-0.00031311206780778277,0.36608225053787236,0.251736709651947,-9.720940039329529
2026-09-11T16:25:17.278,0.06683161599994492,-503.884765625,-45349.62890625,-181398.515625,-345.16106445312505,0.0,0.0,0.0,0.0,0.0,0.0,-0.04263496398925781,-349.265625,-15.348587036132812,0.0,0.0,0.0,1,1789158317.0543582,38.990818615,-76.93796490333334,-10.347999999999999,0,1,20.602520999999996,35.5216,148.3524,1,1,1789158317.2707365,0.9257609506801947,-0.3774344590311711,0.01295727677869666,0.01849325039113824,178.59741704815954,-2.174935031604317,-44.33500154896897,0.0005661848093469604,0.001305680813416958,0.0007384488065188008,0.36706291555404663,0.2535019066810608,-9.718684509792327
2026-09-11T16:25:17.311,0.10024966399987534,-503.884765625,-45349.62890625,-181398.515625,-345.16106445312505,0.0,0.0,0.0,0.0,0.0,0.0,-0.04263496398925781,-349.265625,-15.348587036132812,0.0,0.0,0.0,1,1789158317.0543582,38.990818615,-76.93796490333334,-10.347999999999999,0,1,20.602520999999996,35.5216,148.3524,1,1,1789158317.3027363,0.9257556309533871,-0.3774467195638734,0.012981241553887107,0.018492512438462994,178.59856015575127,-2.1774652958295757,-44.336523808328266,0.0006092944418712204,-0.0007904596182282318,-0.0023762657765902797,0.36314025548934936,0.2558555027198791,-9.717899977779389
2026-09-11T16:25:17.346,0.13366707199998018,-503.884765625,-45349.62890625,-181398.515625,-345.16106445312505,0.0,0.0,0.0,0.0,0.0,0.0,-0.04263496398925781,-349.265625,-15.348587036132812,0.0,0.0,0.0,1,1789158317.0543582,38.990818615,-76.93796490333334,-10.347999999999999,0,1,20.602520999999996,35.5216,148.3524,1,1,1789158317.3427362,0.9257585182328363,-0.3774395074425226,0.012935159703804912,0.01852743329029658,178.5928429757866,-2.1740736854758835,-44.33556638162963,0.002139773662945048,0.0004598942579005058,0.00013264502315156904,0.3649054525184631,0.252423175163269,-9.716134780750275
2026-09-11T16:25:17.380,0.16708959999982653,-503.884765625,-45349.62890625,-181398.515625,-345.16106445312505,0.0,0.0,0.0,0.0,0.0,0.0,-0.04263496398925781,-349.265625,-15.348587036132812,0.0,0.0,0.0,1,1789158317.0543582,38.990818615,-76.93796490333334,-10.347999999999999,0,1,20.602520999999996,35.5216,148.3524,1,1,1789158317.3697364,0.9257662247621269,-0.3774222141512086,0.012849050560810073,0.018554548082991142,178.58620101533597,-2.166080471383624,-44.33337002450402,0.0014566517937144676,0.0010079276430267254,-0.0015435691904637852,0.3610808589553833,0.2578168327522278,-9.709662391643525
2026-09-11T16:25:17.413,0.20051097600003231,-503.884765625,-45349.62890625,-181398.515625,-345.16106445312505,0.0,0.0,0.0,0.0,0.0,0.0,-0.04263496398925781,-349.265625,-15.348587036132812,0.0,0.0,0.0,1,1789158317.0543582,38.990818615,-76.93796490333334,-10.347999999999999,0,1,20.602520999999996,35.5216,148.3524,1,1,1789158317.4027364,0.9257683507510139,-0.377416345093082,0.012846557313780451,0.018569576449426483,178.58448363426442,-2.1664568529152297,-44.332617970375274,0.0006920230484157516,-0.0025713935869632453,-0.0025101325302182447,0.3691223120880127,0.255365170211792,-9.706916529598235
2026-09-11T16:25:17.447,0.2339273279999361,-503.884765625,-45349.62890625,-181398.515625,-345.16106445312505,0.0,0.0,0.0,0.0,0.0,0.0,-0.04263496398925781,-349.265625,-15.348587036132812,0.0,0.0,0.0,1,1789158317.0543582,38.990818615,-76.93796490333334,-10.347999999999999,0,1,20.602520999999996,35.5216,148.3524,1,1,1789158317.4427364,0.9257622212015761,-0.37743038213280194,0.012883872983470084,0.018564004308261304,178.58672116419586,-2.1701979964680147,-44.3343692387565,0.001635897107894285,0.0008272860654453121,-0.00029897490086662866,0.36510158552169797,0.2568361677360535,-9.707406862106323
2026-09-11T16:25:17.480,0.26735046399994644,-503.884765625,-45349.62890625,-181398.515625,-345.16106445312505,0.0,0.0,0.0,0.0,0.0,0.0,-0.04263496398925781,-349.265625,-15.348587036132812,0.0,0.0,0.0,1,1789158317.0543582,38.990818615,-76.93796490333334,-10.347999999999999,0,1,20.602520999999996,35.5216,148.3524,1,1,1789158317.4707363,0.9257691851710222,-0.3774133490253952,0.012812441775507067,0.018612391059872016,178.57845551203891,-2.1646829434049732,-44.33217188030639,0.00021886428820008894,-0.0005578072289373877,-0.0016280431262603106,0.36588611753463746,0.2568361677360535,-9.715350248737336
2026-09-11T16:25:17.514,0.300775423999994,-503.884765625,-45349.62890625,-181398.515625,-345.16106445312505,0.0,0.0,0.0,0.0,0.0,0.0,-0.04263496398925781,-349.265625,-15.348587036132812,0.0,0.0,0.0,1,1789158317.0543582,38.990818615,-76.93796490333334,-10.347999999999999,0,1,20.602520999999996,35.5216,148.3524,1,1,1789158317.5107365,0.9257659900495177,-0.37742175439880077,0.0128459299009671,0.018577757107548797,178.5836004637704,-2.166752348561095,-44.33327390449565,0.0014304718549345526,0.003483502654055482,-0.0009627236154000722,0.36157119146347044,0.25634583522796633,-9.711427588672638
2026-09-11T16:25:17.547,0.33419056000002456,-503.884765625,-45349.62890625,-181398.515625,-345.16106445312505,0.0,0.0,0.0,0.0,0.0,0.0,-0.04263496398925781,-349.265625,-15.348587036132812,0.0,0.0,0.0,1,1789158317.0543582,38.990818615,-76.93796490333334,-10.347999999999999,0,1,20.602520999999996,35.5216,148.3524,1,1,1789158317.5427363,0.9257601042326122,-0.37743552391505736,0.012896916661826258,0.01855597582470828,178.58814958899768,-2.1712430490024603,-44.33502076598251,0.0015828390986336576,0.002157052422539792,-0.001878497873921497,0.36039439344406127,0.2565419682312012,-9.709662391643525
2026-09-11T16:25:17.580,0.3676130879998709,-503.884765625,-45349.62890625,-181398.515625,-345.16106445312505,0.0,0.0,0.0,0.0,0.0,0.0,-0.04263496398925781,-349.265625,-15.348587036132812,0.0,0.0,0.0,1,1789158317.0543582,38.990818615,-76.93796490333334,-10.347999999999999,0,1,20.602520999999996,35.5216,148.3524,1,1,1789158317.5707364,0.9257479527905664,-0.37746341698504293,0.012989521922874666,0.018530220243323785,178.59495322264,-2.180000513772054,-44.33852865206629,0.0004415683007545654,-0.0020697859599400755,-0.0009707521299592461,0.36608225053787236,0.2538941726875305,-9.715448315238953
2026-09-11T16:25:17.613,0.40102963200001795,-503.884765625,-45349.62890625,-181398.515625,-345.16106445312505,0.0,0.0,0.0,0.0,0.0,0.0,-0.04263496398925781,-349.265625,-15.348587036132812,0.0,0.0,0.0,1,1789158317.0543582,38.990818615,-76.93796490333334,-10.347999999999999,0,1,20.602520999999996,35.5216,148.3524,1,1,1789158317.6097364,0.925745708607802,-0.3774706110968664,0.012964249545371256,0.018513481199442575,178.59565514487247,-2.176604988624705,-44.33944432176167,0.0010042624515975373,0.001929286955154532,-0.002208539635473625,0.36088472595214843,0.25556130321502685,-9.711917921180724
2026-09-11T16:25:17.647,0.43444751999982145,-503.884765625,-45349.62890625,-181398.515625,-345.16106445312505,0.0,0.0,0.0,0.0,0.0,0.0,-0.04263496398925781,-349.265625,-15.348587036132812,0.0,0.0,0.0,1,1789158317.0543582,38.990818615,-76.93796490333334,-10.347999999999999,0,1,20.602520999999996,35.5216,148.3524,1,1,1789158317.6437364,0.92574096002888,-0.3774810127707843,0.012967062884918298,0.018536860642765992,178.59331860065333,-2.177930707666468,-44.34069315377632,8.395033702092725e-05,0.00012322024519079966,-0.0020343557761245907,0.3678474475669861,0.255365170211792,-9.713879251213074
2026-09-11T16:25:17.680,0.46787196799982667,-503.884765625,-45349.62890625,-181398.515625,-345.16106445312505,0.0,0.0,0.0,0.0,0.0,0.0,-0.04263496398925781,-349.265625,-15.348587036132812,0.0,0.0,0.0,1,1789158317.0543582,38.990818615,-76.93796490333334,-10.347999999999999,0,1,20.602520999999996,35.5216,148.3524,1,1,1789158317.6717365,0.9257406228251761,-0.3774812387494803,0.012955794278602807,0.018556967371407346,178.59069687255152,-2.17760479419095,-44.34068589967826,0.0015683528658421045,-5.044001538263613e-05,-0.002630734781531053,0.3659841840362549,0.2557574362182617,-9.711231455669402
2026-09-11T16:25:17.714,0.5012884799998574,-503.884765625,-45349.62890625,-181398.515625,-345.16106445312505,0.0,0.0,0.0,0.0,0.0,0.0,-0.04263496398925781,-349.265625,-15.348587036132812,0.0,0.0,0.0,1,1789158317.0543582,38.990818615,-76.93796490333334,-10.347999999999999,0,1,20.602520999999996,35.5216,148.3524,1,1,1789158317.7107363,0.925743075297008,-0.3774769024409246,0.012886681711942613,0.01857094767904794,178.58621435583055,-2.1708674683712554,-44.34011747220279,0.0011669271378834088,0.0005304055596810767,-0.0005427973973702365,0.36382672100067137,0.2558555027198791,-9.707602995109559
2026-09-11T16:25:17.747,0.5347054399999251,-503.884765625,-45349.62890625,-181398.515625,-345.16106445312505,0.0,0.0,0.0,0.0,0.0,0.0,-0.04263496398925781,-349.265625,-15.348587036132812,0.0,0.0,0.0,1,1789158317.0543582,38.990818615,-76.93796490333334,-10.347999999999999,0,1,20.602520999999996,35.5216,148.3524,1,1,1789158317.7437363,0.925750357897005,-0.3774617853207361,0.012791136374458292,0.018581235327603658,178.58095619378437,-2.1611483364387776,-44.3382185862593,0.0005061454830783556,-0.000693768377667746,-0.0010615092510629512,0.3655919180297852,0.251736709651947,-9.714271517219544
2026-09-11T16:25:17.780,0.568122239999866,-503.884765625,-45349.62890625,-181398.515625,-345.16106445312505,0.0,0.0,0.0,0.0,0.0,0.0,-0.04263496398925781,-349.265625,-15.348587036132812,0.0,0.0,0.0,1,1789158317.0543582,38.990818615,-76.93796490333334,-10.347999999999999,0,1,20.602520999999996,35.5216,148.3524,1,1,1789158317.7707365,0.9257406521449937,-0.3774838466230078,0.012883352623288337,0.018552890072527365,178.58800422770096,-2.16974359686765,-44.34100714345307,0.0027900833422381355,-0.0013470451166892234,-0.0013159782560037245,0.36578805103302003,0.2568361677360535,-9.718390310287475
2026-09-11T16:25:17.814,0.6015440959999978,-503.884765625,-45349.62890625,-181398.515625,-345.16106445312505,0.0,0.0,0.0,0.0,0.0,0.0,-0.04263496398925781,-349.265625,-15.348587036132812,0.0,0.0,0.0,1,1789158317.0543582,38.990818615,-76.93796490333334,-10.347999999999999,0,1,20.602520999999996,35.5216,148.3524,1,1,1789158317.8107364,0.9257284461810464,-0.3775128204736699,0.012947777396258436,0.018527530049548286,178.59355043198937,-2.1755284877418672,-44.3446445889622,0.000610690705272816,-0.0018474310132359979,-0.003463082301807149,0.3641209205055237,0.25634583522796633,-9.716134780750275
2026-09-11T16:25:17.847,0.6349616640000022,-503.884765625,-45349.62890625,-181398.515625,-345.16106445312505,0.0,0.0,0.0,0.0,0.0,0.0,-0.04263496398925781,-349.265625,-15.348587036132812,0.0,0.0,0.0,1,1789158317.0543582,38.990818615,-76.93796490333334,-10.347999999999999,0,1,20.602520999999996,35.5216,148.3524,1,1,1789158317.8437364,0.9257351696965391,-0.37749867081998445,0.012868639082498705,0.018535027494706844,178.58929965097028,-2.167431827838736,-44.342870805077474,0.0007829547024446561,-0.0015880750863896404,-0.0027813566959781636,0.3622576569747925,0.25467870470047,-9.718782576293945
2026-09-11T16:25:17.880,0.6683807360000174,-503.884765625,-45349.62890625,-181398.515625,-345.16106445312505,0.0,0.0,0.0,0.0,0.0,0.0,-0.04263496398925781,-349.265625,-15.348587036132812,0.0,0.0,0.0,1,1789158317.0543582,38.990818615,-76.93796490333334,-10.347999999999999,0,1,20.602520999999996,35.5216,148.3524,1,1,1789158317.8697364,0.9257380929075482,-0.37749034842842855,0.012836842998306366,0.018580517891500545,178.58307503829712,-2.1660122497747163,-44.34176077992121,0.0015997687923780025,0.00011588986233242349,-0.0010307914562278512,0.36510158552169797,0.25614970222473143,-9.71211405418396
2026-09-11T16:25:17.914,0.7018014719999428,-503.884765625,-45349.62890625,-181398.515625,-345.16106445312505,0.0,0.0,0.0,0.0,0.0,0.0,-0.04263496398925781,-349.265625,-15.348587036132812,0.0,0.0,0.0,1,1789158317.0543582,38.990818615,-76.93796490333334,-10.347999999999999,0,1,20.602520999999996,35.5216,148.3524,1,1,1789158317.9107363,0.9257348539263186,-0.3774991198201138,0.012813506926417563,0.018579795512964938,178.58216339296462,-2.163517608718457,-44.342845561992505,0.0011684979342102034,-0.0013901547492134834,-0.0036112607553014675,0.3633363884925842,0.25271737466812133,-9.717899977779389
2026-09-11T16:25:17.947,0.7352188799998203,-503.884765625,-45349.62890625,-181398.515625,-345.16106445312505,0.0,0.0,0.0,0.0,0.0,0.0,-0.04263496398925781,-349.265625,-15.348587036132812,0.0,0.0,0.0,1,1789158317.0543582,38.990818615,-76.93796490333334,-10.347999999999999,0,1,20.602520999999996,35.5216,148.3524,1,1,1789158317.9427364,0.9257363589167783,-0.37749599023589525,0.012791614658112193,0.018583480022990716,178.58081837858765,-2.1613486285198396,-44.342449737803705,0.0010484192816729938,-0.0010693632326969258,-0.0019212584405953578,0.36314025548934936,0.25409030569076535,-9.713879251213074
2026-09-11T16:25:17.980,0.7686360640000203,-503.884765625,-45349.62890625,-181398.515625,-345.16106445312505,0.0,0.0,0.0,0.0,0.0,0.0,-0.04263496398925781,-349.265625,-15.348587036132812,0.0,0.0,0.0,1,1789158317.0543582,38.990818615,-76.93796490333334,-10.347999999999999,0,1,20.602520999999996,35.5216,148.3524,1,1,1789158317.9707363,0.9257228592641128,-0.3775282114501416,0.012877536244610473,0.01854201864418748,178.589011146049,-2.1687236013029136,-44.346517541992654,0.0021835814271701057,0.00043685591177418067,0.00015411257295109928,0.3636305879974365,0.2565419682312012,-9.709662391643525
2026-09-11T16:25:18.014,0.8020506240000032,-503.884765625,-45349.62890625,-181398.515625,-345.16106445312505,0.0,0.0,0.0,0.0,0.0,0.0,-0.04263496398925781,-349.265625,-15.348587036132812,0.0,0.0,0.0,1,1789158317.0543582,38.990818615,-76.93796490333334,-10.347999999999999,0,1,20.602520999999996,35.5216,148.3524,1,1,1789158318.0107365,0.9257282931381612,-0.3775154284490498,0.01282468252142712,0.018567608479877713,178.58397878395755,-2.1642014878578695,-44.34488626849016,0.0013987068625482557,-0.0024895376450447117,-0.002685538120043675,0.36157119146347044,0.25409030569076535,-9.71436958372116
2026-09-11T16:25:18.047,0.835469663999902,-503.884765625,-45349.62890625,-181398.515625,-345.16106445312505,0.0,0.0,0.0,0.0,0.0,0.0,-0.04263496398925781,-349.265625,-15.348587036132812,0.0,0.0,0.0,1,1789158318.0449774,38.9908186,-76.93796451,-10.300999999999998,0,1,20.602520999999996,35.5216,148.328041,1,1,1789158318.0437365,0.9257170656007808,-0.37754218925962285,0.01289024043625844,0.0185378393030597,178.5900369858954,-2.1699124444134545,-44.34825662140365,0.0023853414887006503,-0.0009684832019316534,-0.0018242181341844733,0.3633363884925842,0.25762069974899293,-9.713486985206604
2026-09-11T16:25:18.081,0.8688886079999065,-503.884765625,-45349.62890625,-181398.515625,-345.16106445312505,0.0,0.0,0.0,0.0,0.0,0.0,-0.04263496398925781,-349.265625,-15.348587036132812,0.0,0.0,0.0,1,1789158318.0449774,38.9908186,-76.93796451,-10.300999999999998,0,1,20.602520999999996,35.5216,148.328041,1,1,1789158318.0717363,0.9257188809303637,-0.3775388046733292,0.01284454964861558,0.018547830040001212,178.58699262623566,-2.1654901391981958,-44.347815715862666,0.0021088813351847484,0.002278876404328996,-0.0005974262029576589,0.3630421889877319,0.2519328426551819,-9.698580876960754
2026-09-11T16:25:18.115,0.9023034560000269,-503.884765625,-45349.62890625,-181398.515625,-345.16106445312505,0.0,0.0,0.0,0.0,0.0,0.0,-0.04263496398925781,-349.265625,-15.348587036132812,0.0,0.0,0.0,1,1789158318.0449774,38.9908186,-76.93796451,-10.300999999999998,0,1,20.602520999999996,35.5216,148.328041,1,1,1789158318.1097364,0.9257255851243738,-0.37752355750911504,0.012799414344763858,0.018554772006929263,178.5842683641071,-2.1609767319708855,-44.3459115791469,0.0026878070480712674,-0.0005340707511102648,-0.00231151406134129,0.3626499229812622,0.2565419682312012,-9.711427588672638
2026-09-11T16:25:18.148,0.935722111999894,-503.884765625,-45349.62890625,-181398.515625,-345.16106445312505,0.0,0.0,0.0,0.0,0.0,0.0,-0.04263496398925781,-349.265625,-15.348587036132812,0.0,0.0,0.0,1,1789158318.0449774,38.9908186,-76.93796451,-10.300999999999998,0,1,20.602520999999996,35.5216,148.328041,1,1,1789158318.1437364,0.9257257430662342,-0.3775238363357158,0.012777549955878986,0.018556288420833737,178.58316267626688,-2.1587221742606078,-44.34594136640663,0.0033594097442386857,-0.0004839798015780276,-0.00027680921936630066,0.3655919180297852,0.25281544116973875,-9.706818463096619
2026-09-11T16:25:18.182,0.9691426560000309,-503.884765625,-45349.62890625,-181398.515625,-345.16106445312505,0.0,0.0,0.0,0.0,0.0,0.0,-0.04263496398925781,-349.265625,-15.348587036132812,0.0,0.0,0.0,1,1789158318.0449774,38.9908186,-76.93796451,-10.300999999999998,0,1,20.602520999999996,35.5216,148.328041,1,1,1789158318.1707363,0.9257234422394324,-0.37752843577103634,0.012816529043467383,0.01855061335721133,178.5854613151302,-2.16262075041347,-44.34652428103008,0.001485449726372374,0.0010225884087434777,-5.515240436302081e-05,0.36382672100067137,0.25565936971664427,-9.71711544576645
2026-09-11T16:25:18.215,1.002563999999893,-503.884765625,-45349.62890625,-181398.515625,-345.16106445312505,0.0,0.0,0.0,0.0,0.0,0.0,-0.04263496398925781,-349.265625,-15.348587036132812,0.0,0.0,0.0,1,1789158318.0449774,38.9908186,-76.93796451,-10.300999999999998,0,1,20.602520999999996,35.5216,148.328041,1,1,1789158318.2107363,0.9257310913402199,-0.37751011380735733,0.012751613278604662,0.01858646975610935,178.57880448152588,-2.157254025265096,-44.34418953864643,0.0018661060362323372,0.001674992483138958,-0.0010538298023541762,0.3655919180297852,0.255365170211792,-9.712408253688812
2026-09-11T16:25:18.248,1.035986591999972,-503.884765625,-45349.62890625,-181398.515625,-345.16106445312505,0.0,0.0,0.0,0.0,0.0,0.0,-0.04263496398925781,-349.265625,-15.348587036132812,0.0,0.0,0.0,1,1789158318.0449774,38.9908186,-76.93796451,-10.300999999999998,0,1,20.602520999999996,35.5216,148.328041,1,1,1789158318.2437363,0.9257339894023787,-0.3775019414650521,0.012739421220474572,0.018616449775407745,178.57507485364715,-2.157244389634404,-44.34312662349979,0.0026773350725593018,0.0005965535383316619,-0.0010484192816729938,0.36676871604919437,0.2545806381988525,-9.70828946062088
2026-09-11T16:25:18.281,1.069409855999993,-503.884765625,-45349.62890625,-181398.515625,-345.16106445312505,0.0,0.0,0.0,0.0,0.0,0.0,-0.04263496398925781,-349.265625,-15.348587036132812,0.0,0.0,0.0,1,1789158318.0449774,38.9908186,-76.93796451,-10.300999999999998,0,1,20.602520999999996,35.5216,148.328041,1,1,1789158318.2707365,0.9257317354000681,-0.3775072129409887,0.012762865482052214,0.01860557753450395,178.57725519828298,-2.159270449923748,-44.34379955970144,0.00047088983218807013,0.0013414600630828417,-0.001033583983031042,0.3653957850265503,0.25487483770370484,-9.715350248737336
2026-09-11T16:25:18.315,1.1028337919999558,-503.884765625,-45349.62890625,-181398.515625,-345.16106445312505,0.0,0.0,0.0,0.0,0.0,0.0,-0.04263496398925781,-349.265625,-15.348587036132812,0.0,0.0,0.0,1,1789158318.0449774,38.9908186,-76.93796451,-10.300999999999998,0,1,20.602520999999996,35.5216,148.328041,1,1,1789158318.3107364,0.9257307916955503,-0.3775092738281383,0.01279510279232273,0.018588567051153235,178.5804600276768,-2.1619592763162587,-44.34408622015951,0.0025827382271012087,0.0026289894522790584,-0.001961575546316427,0.35990406093597416,0.25438450519561767,-9.714859916229248
2026-09-11T16:25:18.348,1.136273183999947,-503.884765625,-45349.62890625,-181398.515625,-345.16106445312505,0.0,0.0,0.0,0.0,0.0,0.0,-0.04263496398925781,-349.265625,-15.348587036132812,0.0,0.0,0.0,1,1789158318.0449774,38.9908186,-76.93796451,-10.300999999999998,0,1,20.602520999999996,35.5216,148.328041,1,1,1789158318.3437364,0.9257318108805229,-0.3775056959686206,0.012787089479225668,0.01861596566835704,178.5771958537366,-2.162288559085651,-44.34359668119356,0.002430894582177702,0.0015034266176679153,1.5009831567151233e-05,0.37049524311065674,0.2558555027198791,-9.718390310287475
2026-09-11T16:25:18.382,1.16969420800001,-503.884765625,-45349.62890625,-181398.515625,-345.16106445312505,0.0,0.0,0.0,0.0,0.0,0.0,-0.04263496398925781,-349.265625,-15.348587036132812,0.0,0.0,0.0,1,1789158318.0449774,38.9908186,-76.93796451,-10.300999999999998,0,1,20.602520999999996,35.5216,148.328041,1,1,1789158318.3697364,0.9257421960510686,-0.37748168831930023,0.012671077175536153,0.01866561644755993,178.56685223212855,-2.1520861918607608,-44.34053156129538,0.0006778858814745976,0.00034191000046568913,-0.0006974335690969341,0.36382672100067137,0.2568361677360535,-9.714173450717926
2026-09-11T16:25:18.415,1.2031176640000467,-503.884765625,-45349.62890625,-181398.515625,-345.16106445312505,0.0,0.0,0.0,0.0,0.0,0.0,-0.04263496398925781,-349.265625,-15.348587036132812,0.0,0.0,0.0,1,1789158318.0449774,38.9908186,-76.93796451,-10.300999999999998,0,1,20.602520999999996,35.5216,148.328041,1,1,1789158318.4107363,0.925748280862765,-0.37746768283003124,0.012628733295285062,0.018675759527229715,178.5639121443805,-2.148008971704017,-44.33877761756681,0.002088635515861614,0.0031850513519644523,-0.0007930776121062233,0.36637645004272457,0.25154057664871216,-9.720645839824677
2026-09-11T16:25:18.449,1.23654035200002,-503.884765625,-45349.62890625,-181398.515625,-345.16106445312505,0.0,0.0,0.0,0.0,0.0,0.0,-0.04263496398925781,-349.265625,-15.348587036132812,0.0,0.0,0.0,1,1789158318.0449774,38.9908186,-76.93796451,-10.300999999999998,0,1,20.602520999999996,35.5216,148.328041,1,1,1789158318.4427364,0.9257441721947632,-0.3774768291875502,0.01265788797075912,0.018674821178938036,178.56529334281228,-2.1510769697348695,-44.33991366320916,0.0006939429105929454,0.0014679964338524306,-0.0009011134928046724,0.3613750584602356,0.25703230073928834,-9.71132952217102
2026-09-11T16:25:18.482,1.2699579200000244,-503.884765625,-45349.62890625,-181398.515625,-345.16106445312505,0.0,0.0,0.0,0.0,0.0,0.0,-0.04263496398925781,-349.265625,-15.348587036132812,0.0,0.0,0.0,1,1789158318.0449774,38.9908186,-76.93796451,-10.300999999999998,0,1,20.602520999999996,35.5216,148.328041,1,1,1789158318.4707363,0.9257558673467383,-0.37744992089120794,0.012584673702026745,0.01868842636827391,178.56062132849505,-2.1438528877881358,-44.33655462655059,0.001092052512972852,-0.002496518962052689,-0.002116037185117925,0.36510158552169797,0.25222704216003416,-9.718390310287475
2026-09-11T16:25:18.516,1.3034002560000317,-503.884765625,-45349.62890625,-181398.515625,-345.16106445312505,0.0,0.0,0.0,0.0,0.0,0.0,-0.04263496398925781,-349.265625,-15.348587036132812,0.0,0.0,0.0,1,1789158318.0449774,38.9908186,-76.93796451,-10.300999999999998,0,1,20.602520999999996,35.5216,148.328041,1,1,1789158318.5107365,0.9257429400923041,-0.37747995560620606,0.012782147580983312,0.01858786399809296,178.57990614578887,-2.1605088759263467,-44.340456260856165,0.0022043508452688383,0.0011278317626387357,-0.002572266251589243,0.3688281125831604,0.25271737466812133,-9.720645839824677
2026-09-11T16:25:18.549,1.336822016000042,-503.884765625,-45349.62890625,-181398.515625,-345.16106445312505,0.0,0.0,0.0,0.0,0.0,0.0,-0.04263496398925781,-349.265625,-15.348587036132812,0.0,0.0,0.0,1,1789158318.0449774,38.9908186,-76.93796451,-10.300999999999998,0,1,20.602520999999996,35.5216,148.328041,1,1,1789158318.5427363,0.9257457441112747,-0.3774727929177045,0.012776153804395477,0.01859778913570909,178.57857638485626,-2.1602910496817103,-44.339552311721526,0.0005394812717914473,0.0005380850083898517,-0.0027518606316194595,0.3613750584602356,0.2578168327522278,-9.71132952217102
2026-09-11T16:25:18.582,1.3702439359999516,-503.884765625,-45349.62890625,-181398.515625,-345.16106445312505,0.0,0.0,0.0,0.0,0.0,0.0,-0.04263496398925781,-349.265625,-15.348587036132812,0.0,0.0,0.0,1,1789158318.0449774,38.9908186,-76.93796451,-10.300999999999998,0,1,20.602520999999996,35.5216,148.328041,1,1,1789158318.5717363,0.9257448922931343,-0.3774738301927248,0.01279890035106522,0.018603495978189565,178.57895612738426,-2.1629537709065536,-44.339673396220654,0.001259255055313909,-0.0010903071837208575,-0.0015608479500585288,0.3682397135734558,0.2557574362182617,-9.71054499015808
2026-09-11T16:25:18.616,1.4036636480000197,-503.884765625,-45349.62890625,-181398.515625,-345.16106445312505,0.0,0.0,0.0,0.0,0.0,0.0,-0.04263496398925781,-349.265625,-15.348587036132812,0.0,0.0,0.0,1,1789158318.0449774,38.9908186,-76.93796451,-10.300999999999998,0,1,20.602520999999996,35.5216,148.328041,1,1,1789158318.6097364,0.9257496454797658,-0.37746389143115266,0.012758262133663403,0.0185965401907807,178.57791480607585,-2.158324368661545,-44.338450638284186,0.0007258824359044417,-0.0003267256359733385,-0.0025452136481833305,0.36480738601684565,0.2580129657554626,-9.708387527122497
2026-09-11T16:25:18.649,1.4370840320000298,-503.884765625,-45349.62890625,-181398.515625,-345.16106445312505,0.0,0.0,0.0,0.0,0.0,0.0,-0.04263496398925781,-349.265625,-15.348587036132812,0.0,0.0,0.0,1,1789158318.0449774,38.9908186,-76.93796451,-10.300999999999998,0,1,20.602520999999996,35.5216,148.328041,1,1,1789158318.6427364,0.92574644509268,-0.3774713597583422,0.012818585264989144,0.018562753897468243,178.5841276633012,-2.163276941505436,-44.339437637955655,0.0008182103533349417,-0.001539903999034597,-0.002452536664902432,0.36588611753463746,0.2538941726875305,-9.713388918704986
2026-09-11T16:25:18.682,1.4704999999999018,-503.884765625,-45349.62890625,-181398.515625,-345.16106445312505,0.0,0.0,0.0,0.0,0.0,0.0,-0.04263496398925781,-349.265625,-15.348587036132812,0.0,0.0,0.0,1,1789158318.0449774,38.9908186,-76.93796451,-10.300999999999998,0,1,20.602520999999996,35.5216,148.328041,1,1,1789158318.6697364,0.9257625883176543,-0.3774329323247162,0.01270832450411505,0.018614783277309626,178.57374684441385,-2.153765502121945,-44.334582853537675,0.0023328070782156207,0.0009320058205649721,-0.0027721064509425935,0.3626499229812622,0.25291350767135623,-9.711427588672638
2026-09-11T16:25:18.716,1.5039167359998373,-503.884765625,-45349.62890625,-181398.515625,-345.16106445312505,0.0,0.0,0.0,0.0,0.0,0.0,-0.04263496398925781,-349.265625,-15.348587036132812,0.0,0.0,0.0,1,1789158318.0449774,38.9908186,-76.93796451,-10.300999999999998,0,1,20.602520999999996,35.5216,148.328041,1,1,1789158318.7107363,0.9257545361545088,-0.3774517410932085,0.012762078283159835,0.018597077537893802,178.57799437376323,-2.158733989823394,-44.33694580095861,0.0006190682856823887,-0.0004125958351714595,-0.0014517648718088835,0.3646112530136108,0.2568361677360535,-9.714173450717926
2026-09-11T16:25:18.749,1.5373364160000165,-503.884765625,-45349.62890625,-181398.515625,-345.16106445312505,0.0,0.0,0.0,0.0,0.0,0.0,-0.04263496398925781,-349.265625,-15.348587036132812,0.0,0.0,0.0,1,1789158318.0449774,38.9908186,-76.93796451,-10.300999999999998,0,1,20.602520999999996,35.5216,148.328041,1,1,1789158318.7437363,0.925760315040439,-0.3774382570935541,0.0127291162297081,0.01860566522373691,178.57562620537223,-2.1555861460384182,-44.33525907991891,0.000663923247458643,-0.0010485938145981932,-0.001591914810744028,0.36372865449905395,0.2535019066810608,-9.712015987682342
2026-09-11T16:25:18.783,1.5707538560000103,-503.884765625,-45349.62890625,-181398.515625,-345.16106445312505,0.0,0.0,0.0,0.0,0.0,0.0,-0.04263496398925781,-349.265625,-15.348587036132812,0.0,0.0,0.0,1,1789158318.0449774,38.9908186,-76.93796451,-10.300999999999998,0,1,20.602520999999996,35.5216,148.328041,1,1,1789158318.7697363,0.9257547492264664,-0.3774502618087357,0.012799568760294925,0.01859072846097467,178.58028572289584,-2.162436294590348,-44.33677686203204,0.0030497883349348918,0.0010580185925589626,-0.000714712328691678,0.3636305879974365,0.25556130321502685,-9.712604386692048
2026-09-11T16:25:18.816,1.6041711679999935,-503.884765625,-45349.62890625,-181398.515625,-345.16106445312505,0.0,0.0,0.0,0.0,0.0,0.0,-0.04263496398925781,-349.265625,-15.348587036132812,0.0,0.0,0.0,1,1789158318.0449774,38.9908186,-76.93796451,-10.300999999999998,0,1,20.602520999999996,35.5216,148.328041,1,1,1789158318.8107364,0.9257597792704421,-0.3774368172541248,0.01281098618857447,0.018605340606791712,178.57919616825507,-2.164259530645946,-44.335089031472464,0.0009108873366158405,-0.00146817096677763,-0.0016856389915761234,0.36686678255081173,0.2573265002441406,-9.71711544576645
2026-09-11T16:25:18.850,1.6375923199998397,-503.884765625,-45349.62890625,-181398.515625,-345.16106445312505,0.0,0.0,0.0,0.0,0.0,0.0,-0.04263496398925781,-349.265625,-15.348587036132812,0.0,0.0,0.0,1,1789158318.0449774,38.9908186,-76.93796451,-10.300999999999998,0,1,20.602520999999996,35.5216,148.328041,1,1,1789158318.8427362,0.9257703690708587,-0.37741418152415807,0.012701067262787833,0.018612958530066705,178.57358331080582,-2.152887410237329,-44.33226383880813,0.000703018622703316,-0.0022464132802419014,-0.0011267845650875393,0.3641209205055237,0.25212897565841674,-9.708681726627349
2026-09-11T16:25:18.883,1.6710099839999657,-503.884765625,-45349.62890625,-181398.515625,-345.16106445312505,0.0,0.0,0.0,0.0,0.0,0.0,-0.04263496398925781,-349.265625,-15.348587036132812,0.0,0.0,0.0,1,1789158318.0449774,38.9908186,-76.93796451,-10.300999999999998,0,1,20.602520999999996,35.5216,148.328041,1,1,1789158318.8697364,0.9257608764647902,-0.37743586793884343,0.01279751910321574,0.01857925469974727,178.58138189913703,-2.1617004059885843,-44.33501378054001,0.002804569575029688,0.0006729989595690134,2.478367537831948e-05,0.36382672100067137,0.2578168327522278,-9.714075384216308
2026-09-11T16:25:18.916,1.7044300799998382,-503.884765625,-45349.62890625,-181398.515625,-345.16106445312505,0.0,0.0,0.0,0.0,0.0,0.0,-0.04263496398925781,-349.265625,-15.348587036132812,0.0,0.0,0.0,1,1789158318.0449774,38.9908186,-76.93796451,-10.300999999999998,0,1,20.602520999999996,35.5216,148.328041,1,1,1789158318.9107363,0.9257572121830455,-0.3774451768147174,0.012809691455670418,0.018564331261659912,178.58351452194594,-2.1623611439239583,-44.33619244479306,0.0014098769697610195,-0.001953372498832054,-0.0019779816412851736,0.3626499229812622,0.2538941726875305,-9.71211405418396
2026-09-11T16:25:18.950,1.7378477119998479,-503.884765625,-45349.62890625,-181398.515625,-345.16106445312505,0.0,0.0,0.0,0.0,0.0,0.0,-0.04263496398925781,-349.265625,-15.348587036132812,0.0,0.0,0.0,1,1789158318.0449774,38.9908186,-76.93796451,-10.300999999999998,0,1,20.602520999999996,35.5216,148.328041,1,1,1789158318.9427364,0.9257734579912179,-0.3774078578170874,0.012659273626572815,0.01861601805293961,178.57143732117783,-2.1485739848041128,-44.331472452533305,0.002018473279931442,-0.0012447688225223558,-0.0015098843359002945,0.36186539096832276,0.25634583522796633,-9.713585051708222
2026-09-11T16:25:18.983,1.7712630399998943,-503.884765625,-45349.62890625,-181398.515625,-345.16106445312505,0.0,0.0,0.0,0.0,0.0,0.0,-0.04263496398925781,-349.265625,-15.348587036132812,0.0,0.0,0.0,1,1789158318.0449774,38.9908186,-76.93796451,-10.300999999999998,0,1,20.602520999999996,35.5216,148.328041,1,1,1789158318.9817364,0.9257551008268494,-0.37745108576839714,0.01282249004083968,0.018540628211600917,178.58659858561916,-2.16270335905171,-44.336964965663,0.000571595330028143,-0.0006792821448761931,-0.0012801990063378407,0.3688281125831604,0.25418837219238277,-9.718684509792327
2026-09-11T16:25:19.017,1.8046792959999038,-503.884765625,-45349.62890625,-181398.515625,-345.16106445312505,0.0,0.0,0.0,0.0,0.0,0.0,-0.04263496398925781,-349.265625,-15.348587036132812,0.0,0.0,0.0,1,1789158318.0449774,38.9908186,-76.93796451,-10.300999999999998,0,1,20.602520999999996,35.5216,148.328041,1,1,1789158319.0117364,0.9257497812200588,-0.37746254708116495,0.012870045575637814,0.018539958168601142,178.5887522786476,-2.167739345925302,-44.33839025998081,0.0014583971229664616,-0.0008124507668033604,-0.002411172361630166,0.3633363884925842,0.255365170211792,-9.712408253688812
2026-09-11T16:25:19.050,1.8380987519999508,-503.884765625,-45349.62890625,-181398.515625,-345.16106445312505,0.0,0.0,0.0,0.0,0.0,0.0,-0.04263496398925781,-349.265625,-15.348587036132812,0.0,0.0,0.0,1,1789158318.0449774,38.9908186,-76.93796451,-10.300999999999998,0,1,20.602520999999996,35.5216,148.328041,1,1,1789158319.0427363,0.9257401218758357,-0.3774864848715245,0.012898503353572312,0.018515104641643212,178.5926777607307,-2.1697211511857715,-44.34139889743295,0.00219754406118606,0.000404741853537485,-0.0015971507985000108,0.36314025548934936,0.2531096406745911,-9.708191394119263
2026-09-11T16:25:19.084,1.8715179839998655,-503.884765625,-45349.62890625,-181398.515625,-345.16106445312505,0.0,0.0,0.0,0.0,0.0,0.0,-0.04263496398925781,-349.265625,-15.348587036132812,0.0,0.0,0.0,1,1789158319.0505543,38.99081862166667,-76.93796405,-10.242,0,1,20.602520999999996,35.533521,148.30368400000003,1,1,1789158319.0837364,0.9257522871025291,-0.3774588173783917,0.012806755745363293,0.01853459238885203,178.5865774241032,-2.1607840668151868,-44.33793062693292,0.00013753194505715318,-0.000595855406630864,-0.002438224965036078,0.36117892545700075,0.2535019066810608,-9.70789719461441
2026-09-11T16:25:19.117,1.9049333759999172,-503.884765625,-45349.62890625,-181398.515625,-345.16106445312505,0.0,0.0,0.0,0.0,0.0,0.0,-0.04263496398925781,-349.265625,-15.348587036132812,0.0,0.0,0.0,1,1789158319.0505543,38.99081862166667,-76.93796405,-10.242,0,1,20.602520999999996,35.533521,148.30368400000003,1,1,1789158319.1097364,0.9257441682851907,-0.3774768538608256,0.012859996640127096,0.01853591572351274,178.58878062698645,-2.1665197162356526,-44.340167209056744,0.0018933331725634486,0.0003867649622419434,-0.00045867252742410984,0.3655919180297852,0.2558555027198791,-9.717899977779389
2026-09-11T16:25:19.150,1.9383532479998848,-503.884765625,-45349.62890625,-181398.515625,-345.16106445312505,0.0,0.0,0.0,0.0,0.0,0.0,-0.04263496398925781,-349.265625,-15.348587036132812,0.0,0.0,0.0,1,1789158319.0505543,38.99081862166667,-76.93796405,-10.242,0,1,20.602520999999996,35.533521,148.30368400000003,1,1,1789158319.1427364,0.9257479959204946,-0.37746774749607515,0.012827166484623434,0.01855293640917373,178.58553268520237,-2.163757547360536,-44.339007725597185,0.0029873055477134948,0.001395216204044267,-0.0010382963720114266,0.3605905264472961,0.2565419682312012,-9.708387527122497
2026-09-11T16:25:19.184,1.9717711359999157,-503.884765625,-45349.62890625,-181398.515625,-345.16106445312505,0.0,0.0,0.0,0.0,0.0,0.0,-0.04263496398925781,-349.265625,-15.348587036132812,0.0,0.0,0.0,1,1789158319.0505543,38.99081862166667,-76.93796405,-10.242,0,1,20.602520999999996,35.533521,148.30368400000003,1,1,1789158319.1837363,0.9257573532334679,-0.37744578191969197,0.012720400592534495,0.018606344454571398,178.57519485929393,-2.1547020324517208,-44.33618879975713,0.0008164650240829474,-0.001766971334719059,-0.002094569635318395,0.36372865449905395,0.2568361677360535,-9.708975926132203
2026-09-11T16:25:19.218,2.0051986559999477,-503.884765625,-45349.62890625,-181398.515625,-345.16106445312505,0.0,0.0,0.0,0.0,0.0,0.0,-0.04263496398925781,-349.265625,-15.348587036132812,0.0,0.0,0.0,1,1789158319.0505543,38.99081862166667,-76.93796405,-10.242,0,1,20.602520999999996,35.533521,148.30368400000003,1,1,1789158319.2117364,0.925757086851137,-0.37744542967729383,0.01274908996830026,0.018607107932174332,178.5763530953766,-2.1577795764308076,-44.33614647567293,0.0020642009063336934,0.0016271704616343133,-0.0010002481943179502,0.36451318651199344,0.2545806381988525,-9.711231455669402
2026-09-11T16:25:19.251,2.0386189759999525,-503.884765625,-45349.62890625,-181398.515625,-345.16106445312505,0.0,0.0,0.0,0.0,0.0,0.0,-0.04263496398925781,-349.265625,-15.348587036132812,0.0,0.0,0.0,1,1789158319.0505543,38.99081862166667,-76.93796405,-10.242,0,1,20.602520999999996,35.533521,148.30368400000003,1,1,1789158319.2427363,0.9257579811902837,-0.3774422580230854,0.012769651747768002,0.018612848120741307,178.57662495081226,-2.1602053920931845,-44.33574611744052,0.002455154658780423,0.0012498302773531393,-0.0011047934165124105,0.36039439344406127,0.2550709707069397,-9.707406862106323
2026-09-11T16:25:19.284,2.072042175999968,-503.884765625,-45349.62890625,-181398.515625,-345.16106445312505,0.0,0.0,0.0,0.0,0.0,0.0,-0.04263496398925781,-349.265625,-15.348587036132812,0.0,0.0,0.0,1,1789158319.0505543,38.99081862166667,-76.93796405,-10.242,0,1,20.602520999999996,35.533521,148.30368400000003,1,1,1789158319.2837365,0.9257358235717982,-0.3774946965649125,0.01295040245603114,0.018526362228888184,178.59374532903948,-2.1757290524177537,-44.342402941199225,0.002035228440750588,-0.00032236231284335265,-0.0008627162492607971,0.36441512001037596,0.25762069974899293,-9.713486985206604
2026-09-11T16:25:19.317,2.1055641919999744,-503.884765625,-45349.62890625,-181398.515625,-345.16106445312505,0.0,0.0,0.0,0.0,0.0,0.0,-0.04263496398925781,-349.265625,-15.348587036132812,0.0,0.0,0.0,1,1789158319.0505543,38.99081862166667,-76.93796405,-10.242,0,1,20.602520999999996,35.533521,148.30368400000003,1,1,1789158319.3107364,0.9257266633074297,-0.377516592085195,0.01298508129402264,0.018513649177322233,178.59664610795355,-2.1788930039878975,-44.3451396215837,0.0025867524843807958,0.0010393435695626233,-0.000560774288665778,0.35990406093597416,0.25634583522796633,-9.710152724151612
2026-09-11T16:25:19.351,2.1389853439998205,-503.884765625,-45349.62890625,-181398.515625,-345.16106445312505,0.0,0.0,0.0,0.0,0.0,0.0,-0.04263496398925781,-349.265625,-15.348587036132812,0.0,0.0,0.0,1,1789158319.0505543,38.99081862166667,-76.93796405,-10.242,0,1,20.602520999999996,35.533521,148.30368400000003,1,1,1789158319.3427362,0.9257225701409311,-0.37752679767955266,0.012964281641100212,0.01852478250941689,178.59458862099933,-2.177182545308075,-44.34638180548807,0.0023052308760341104,0.0028237681968016257,-0.00047019170048727237,0.3586291964149475,0.255365170211792,-9.712604386692048
2026-09-11T16:25:19.384,2.172406239999873,-503.884765625,-45349.62890625,-181398.515625,-345.16106445312505,0.0,0.0,0.0,0.0,0.0,0.0,-0.04263496398925781,-349.265625,-15.348587036132812,0.0,0.0,0.0,1,1789158319.0505543,38.99081862166667,-76.93796405,-10.242,0,1,20.602520999999996,35.533521,148.30368400000003,1,1,1789158319.3817363,0.9257238713519345,-0.37752496056571905,0.01290704366517497,0.018537162211745714,178.59079499637903,-2.171640335839113,-44.346126591449305,0.0022338469096275424,0.0008791223442295437,6.806784082777885e-06,0.36608225053787236,0.25418837219238277,-9.713879251213074
2026-09-11T16:25:19.418,2.2058353919999263,-503.884765625,-45349.62890625,-181398.515625,-345.16106445312505,0.0,0.0,0.0,0.0,0.0,0.0,-0.04263496398925781,-349.265625,-15.348587036132812,0.0,0.0,0.0,1,1789158319.0505543,38.99081862166667,-76.93796405,-10.242,0,1,20.602520999999996,35.533521,148.30368400000003,1,1,1789158319.4117362,0.925732056698929,-0.3775056994602084,0.012843130483107442,0.018565022877003762,178.58502816195502,-2.16603275502458,-44.34368799263388,0.0024630086404143978,0.0017551030958054977,-0.0010649999095669398,0.361473124961853,0.256738101234436,-9.704857133064271
2026-09-11T16:25:19.451,2.2392565119998835,-503.884765625,-45349.62890625,-181398.515625,-345.16106445312505,0.0,0.0,0.0,0.0,0.0,0.0,-0.04263496398925781,-349.265625,-15.348587036132812,0.0,0.0,0.0,1,1789158319.0505543,38.99081862166667,-76.93796405,-10.242,0,1,20.602520999999996,35.533521,148.30368400000003,1,1,1789158319.4427364,0.9257273068694883,-0.37751602546220786,0.01289090489304525,0.018558782460605317,178.5877804906923,-2.1708491547298205,-44.34498218060535,0.000727278699306037,0.0010944959739256441,-0.0020881119170860158,0.36529771852493287,0.25713036724090577,-9.711427588672638
2026-09-11T16:25:19.485,2.272676095999941,-503.884765625,-45349.62890625,-181398.515625,-345.16106445312505,0.0,0.0,0.0,0.0,0.0,0.0,-0.04263496398925781,-349.265625,-15.348587036132812,0.0,0.0,0.0,1,1789158319.0505543,38.99081862166667,-76.93796405,-10.242,0,1,20.602520999999996,35.533521,148.30368400000003,1,1,1789158319.4827363,0.925727945541777,-0.37751615473766387,0.012850010521820335,0.01855265438361815,178.5866634534195,-2.1662438735708562,-44.345003914219966,0.0029602529443075827,-0.0005279620987282846,-0.0005609488215909776,0.36284605598449704,0.25409030569076535,-9.711133389167786
2026-09-11T16:25:19.518,2.3060976639999353,-503.884765625,-45349.62890625,-181398.515625,-345.16106445312505,0.0,0.0,0.0,0.0,0.0,0.0,-0.04263496398925781,-349.265625,-15.348587036132812,0.0,0.0,0.0,1,1789158319.0505543,38.99081862166667,-76.93796405,-10.242,0,1,20.602520999999996,35.533521,148.30368400000003,1,1,1789158319.5117364,0.9257219760020722,-0.3775309037350873,0.012841837478193311,0.018556052435014597,178.58598377483952,-2.165545950997847,-44.34682343237116,0.0016779595428673484,0.0021113247961375404,-0.0001720894642466409,0.3655919180297852,0.25428643869400025,-9.71054499015808
2026-09-11T16:25:19.552,2.3395218880000357,-503.884765625,-45349.62890625,-181398.515625,-345.16106445312505,0.0,0.0,0.0,0.0,0.0,0.0,-0.04263496398925781,-349.265625,-15.348587036132812,0.0,0.0,0.0,1,1789158319.0505543,38.99081862166667,-76.93796405,-10.242,0,1,20.602520999999996,35.533521,148.30368400000003,1,1,1789158319.5417364,0.9257170185762145,-0.3775446063863386,0.01282145157176835,0.018538664637509604,178.58698071364768,-2.162650948384667,-44.34854688271025,0.00019303341527057285,-0.0008463101542920503,-0.0014788174752147954,0.35813886390686034,0.2545806381988525,-9.705151332569123
2026-09-11T16:25:19.585,2.3729420160000245,-503.884765625,-45349.62890625,-181398.515625,-345.16106445312505,0.0,0.0,0.0,0.0,0.0,0.0,-0.04263496398925781,-349.265625,-15.348587036132812,0.0,0.0,0.0,1,1789158319.0505543,38.99081862166667,-76.93796405,-10.242,0,1,20.602520999999996,35.533521,148.30368400000003,1,1,1789158319.5837364,0.9257187452183576,-0.37754058015667313,0.012794990055900872,0.018552717207503882,178.5843350024769,-2.16044429188013,-44.34802215428382,0.002589195945333588,0.0008983209660014815,0.00046600291028248603,0.3649054525184631,0.2538941726875305,-9.712408253688812
2026-09-11T16:25:19.618,2.4063601279999602,-503.884765625,-45349.62890625,-181398.515625,-345.16106445312505,0.0,0.0,0.0,0.0,0.0,0.0,-0.04263496398925781,-349.265625,-15.348587036132812,0.0,0.0,0.0,1,1789158319.0505543,38.99081862166667,-76.93796405,-10.242,0,1,20.602520999999996,35.533521,148.30368400000003,1,1,1789158319.6097364,0.9257315442916549,-0.37751139239608367,0.012666953071418281,0.018595827877358067,178.57415358652375,-2.1486753421274645,-44.34432484383153,0.0016002923911536007,1.8849555921538758e-05,-0.0005726425275793395,0.36215959047317503,0.25438450519561767,-9.712604386692048
2026-09-11T16:25:19.652,2.4397772479999276,-503.884765625,-45349.62890625,-181398.515625,-345.16106445312505,0.0,0.0,0.0,0.0,0.0,0.0,-0.04263496398925781,-349.265625,-15.348587036132812,0.0,0.0,0.0,1,1789158319.0505543,38.99081862166667,-76.93796405,-10.242,0,1,20.602520999999996,35.533521,148.30368400000003,1,1,1789158319.6427364,0.9257259867546804,-0.37752285836450905,0.012755898544747412,0.01857891040077682,178.5798221565492,-2.1574013726829633,-44.34578045130172,-0.0002933898472602468,-0.0020739747501448617,-0.0025012313510330737,0.3666706495475769,0.25291350767135623,-9.712212120685576
2026-09-11T16:25:19.686,2.473195487999874,-503.884765625,-45349.62890625,-181398.515625,-345.16106445312505,0.0,0.0,0.0,0.0,0.0,0.0,-0.04263496398925781,-349.265625,-15.348587036132812,0.0,0.0,0.0,1,1789158319.0505543,38.99081862166667,-76.93796405,-10.242,0,1,20.602520999999996,35.533521,148.30368400000003,1,1,1789158319.6837363,0.9257094542031422,-0.3775610576427086,0.012917791520391344,0.018514448759703764,178.59375625013328,-2.1718532544519213,-44.35063526946632,0.002210634030576018,0.0025490533725377185,-0.00098803088955399,0.36372865449905395,0.25497290420532226,-9.715056049232484
2026-09-11T16:25:19.719,2.506614367999873,-503.884765625,-45349.62890625,-181398.515625,-345.16106445312505,0.0,0.0,0.0,0.0,0.0,0.0,-0.04263496398925781,-349.265625,-15.348587036132812,0.0,0.0,0.0,1,1789158319.0505543,38.99081862166667,-76.93796405,-10.242,0,1,20.602520999999996,35.533521,148.30368400000003,1,1,1789158319.7117364,0.9257067090201131,-0.3775689139609017,0.012899858136975735,0.01850399269300752,178.59410949285038,-2.1695094419823926,-44.351623376275704,0.00010925761117484503,-0.0007956956059842149,-0.000635299847725936,0.36372865449905395,0.2535019066810608,-9.71054499015808
2026-09-11T16:25:19.752,2.5400359039999785,-503.884765625,-45349.62890625,-181398.515625,-345.16106445312505,0.0,0.0,0.0,0.0,0.0,0.0,-0.04263496398925781,-349.265625,-15.348587036132812,0.0,0.0,0.0,1,1789158319.0505543,38.99081862166667,-76.93796405,-10.242,0,1,20.602520999999996,35.533521,148.30368400000003,1,1,1789158319.7427363,0.9257174502505356,-0.3775439196516357,0.012810669206892692,0.0185385487619206,178.58652520617198,-2.1615005047132314,-44.348460909507764,0.0008881980563399143,-0.0012519246724555326,-0.0026019368488731463,0.36588611753463746,0.25340384017944334,-9.715154115734101
2026-09-11T16:25:19.786,2.5734569920000467,-503.884765625,-45349.62890625,-181398.515625,-345.16106445312505,0.0,0.0,0.0,0.0,0.0,0.0,-0.04263496398925781,-349.265625,-15.348587036132812,0.0,0.0,0.0,1,1789158319.0505543,38.99081862166667,-76.93796405,-10.242,0,1,20.602520999999996,35.533521,148.30368400000003,1,1,1789158319.7837365,0.925706392993112,-0.37756879053942866,0.01287752538803489,0.018537845671914053,178.5895488647959,-2.168603737379472,-44.3515487423333,0.0011301006906663284,0.0009677850702308557,-0.0003834488366631542,0.3659841840362549,0.25614970222473143,-9.714663783226012
2026-09-11T16:25:19.819,2.6068729599999187,-503.884765625,-45349.62890625,-181398.515625,-345.16106445312505,0.0,0.0,0.0,0.0,0.0,0.0,-0.04263496398925781,-349.265625,-15.348587036132812,0.0,0.0,0.0,1,1789158319.0505543,38.99081862166667,-76.93796405,-10.242,0,1,20.602520999999996,35.533521,148.30368400000003,1,1,1789158319.8107364,0.9257100138426773,-0.3775590547222866,0.012884838428655261,0.01855024008661158,178.58852617193423,-2.16990133091368,-44.35032336900657,0.001343205392334836,-0.0017137387925332322,-0.002937563664031656,0.36657258304595947,0.25497290420532226,-9.72466656639099
2026-09-11T16:25:19.853,2.6403077759998723,-503.884765625,-45349.62890625,-181398.515625,-345.16106445312505,0.0,0.0,0.0,0.0,0.0,0.0,-0.04263496398925781,-349.265625,-15.348587036132812,0.0,0.0,0.0,1,1789158319.0505543,38.99081862166667,-76.93796405,-10.242,0,1,20.602520999999996,35.533521,148.30368400000003,1,1,1789158319.8427362,0.9257103913516527,-0.37756018183190637,0.012817527092681585,0.018555091965718362,178.58510308989815,-2.1629689546533153,-44.35044744497281,0.0015283848259714343,-0.0002118829711921116,-0.0011007791592328236,0.36529771852493287,0.25565936971664427,-9.715644448242188
2026-09-11T16:25:19.886,2.6737315519999356,-503.884765625,-45349.62890625,-181398.515625,-345.16106445312505,0.0,0.0,0.0,0.0,0.0,0.0,-0.04263496398925781,-349.265625,-15.348587036132812,0.0,0.0,0.0,1,1789158319.0505543,38.99081862166667,-76.93796405,-10.242,0,1,20.602520999999996,35.533521,148.30368400000003,1,1,1789158319.8817363,0.9257054646431675,-0.3775705509327621,0.012847354760359456,0.018569256144749753,178.58491308981522,-2.1667633672737314,-44.35171074524137,0.0006162757588791978,0.0008869763258635182,-0.0015215780418886564,0.36157119146347044,0.25634583522796633,-9.710839189662934
2026-09-11T16:25:19.919,2.7071476159999293,-503.884765625,-45349.62890625,-181398.515625,-345.16106445312505,0.0,0.0,0.0,0.0,0.0,0.0,-0.04263496398925781,-349.265625,-15.348587036132812,0.0,0.0,0.0,1,1789158319.0505543,38.99081862166667,-76.93796405,-10.242,0,1,20.602520999999996,35.533521,148.30368400000003,1,1,1789158319.9117362,0.9257207840002094,-0.3775353989138612,0.01268382002223295,0.018632588296670825,178.57103517136886,-2.1520928714756047,-44.34723737170528,0.00135123390689401,-0.0014461798182025015,-0.0019928169399271254,0.36480738601684565,0.25644390172958376,-9.712015987682342
2026-09-11T16:25:19.953,2.740565055999923,-503.884765625,-45349.62890625,-181398.515625,-345.16106445312505,0.0,0.0,0.0,0.0,0.0,0.0,-0.04263496398925781,-349.265625,-15.348587036132812,0.0,0.0,0.0,1,1789158319.0505543,38.99081862166667,-76.93796405,-10.242,0,1,20.602520999999996,35.533521,148.30368400000003,1,1,1789158319.9517365,0.9257211111159183,-0.37753585556362923,0.012704421276502243,0.018593006162993933,178.57612999083355,-2.1525676153353115,-44.34736148686463,0.0011770500475449758,6.824237375297829e-05,-0.001676214213615354,0.35960986143112184,0.2545806381988525,-9.710152724151612
2026-09-11T16:25:19.987,2.773992415999828,-503.884765625,-45349.62890625,-181398.515625,-345.16106445312505,0.0,0.0,0.0,0.0,0.0,0.0,-0.04263496398925781,-349.265625,-15.348587036132812,0.0,0.0,0.0,1,1789158319.0505543,38.99081862166667,-76.93796405,-10.242,0,1,20.602520999999996,35.533521,148.30368400000003,1,1,1789158319.9817364,0.9257195736172117,-0.37753887211481724,0.012772047845958466,0.018561946505146525,178.58235904484442,-2.158406011102605,-44.347792979347915,0.0008218755447641298,-0.000848928148170042,-0.0040407862842172714,0.36657258304595947,0.2520309091567993,-9.719959374313355
2026-09-11T16:25:20.020,2.8074175360000027,-503.884765625,-45349.62890625,-181398.515625,-345.16106445312505,0.0,0.0,0.0,0.0,0.0,0.0,-0.04263496398925781,-349.265625,-15.348587036132812,0.0,0.0,0.0,1,1789158319.0505543,38.99081862166667,-76.93796405,-10.242,0,1,20.602520999999996,35.533521,148.30368400000003,1,1,1789158320.0107365,0.9257110814574577,-0.3775585624787584,0.012837925730504608,0.018539504545045372,178.58763647527226,-2.164457056440192,-44.35027518926206,0.0019710003242771963,-0.00020053833105414847,-0.0008607963870836034,0.360786659450531,0.25977816278457644,-9.710839189662934
2026-09-11T16:25:20.053,2.8408455679998497,-503.884765625,-45349.62890625,-181398.515625,-345.16106445312505,0.0,0.0,0.0,0.0,0.0,0.0,-0.04263496398925781,-349.265625,-15.348587036132812,0.0,0.0,0.0,1,1789158319.0505543,38.99081862166667,-76.93796405,-10.242,0,1,20.602520999999996,35.533521,148.30368400000003,1,1,1789158320.0497363,0.9257102799969263,-0.37756002725111093,0.012825437741024395,0.018558326349749393,178.58510134184746,-2.163948247085893,-44.35042372958388,0.0007318165553612224,-0.0013817771688039108,-0.002603333112274742,0.3641209205055237,0.2538941726875305,-9.721920704345703
2026-09-11T16:25:20.086,2.8742654719999337,-503.884765625,-45349.62890625,-181398.515625,-345.16106445312505,0.0,0.0,0.0,0.0,0.0,0.0,-0.04263496398925781,-349.265625,-15.348587036132812,0.0,0.0,0.0,1,1789158319.0505543,38.99081862166667,-76.93796405,-10.242,0,1,20.602520999999996,35.533521,148.30368400000003,1,1,1789158320.0837364,0.9257150135691665,-0.3775501946883614,0.012803462608856115,0.01853740781883253,178.58634940782457,-2.160695854353277,-44.34923898594541,0.0011913617474113294,-0.0004434881629317591,-0.004211130419211918,0.3626499229812622,0.25644390172958376,-9.711231455669402
2026-09-11T16:25:20.120,2.907693055999971,-503.884765625,-45349.62890625,-181398.515625,-345.16106445312505,0.0,0.0,0.0,0.0,0.0,0.0,-0.04263496398925781,-349.265625,-15.348587036132812,0.0,0.0,0.0,1,1789158319.0505543,38.99081862166667,-76.93796405,-10.242,0,1,20.602520999999996,35.533521,148.30368400000003,1,1,1789158320.1117363,0.9257060023979466,-0.37757029977515205,0.012902295988200287,0.01850936547662953,178.59364765362437,-2.170002753061265,-44.35178624130233,0.002948384705394021,0.0009520771069629068,-0.0008471828189180476,0.36637645004272457,0.255365170211792,-9.712800519695282
2026-09-11T16:25:20.153,2.941119487999913,-503.884765625,-45349.62890625,-181398.515625,-345.16106445312505,0.0,0.0,0.0,0.0,0.0,0.0,-0.04263496398925781,-349.265625,-15.348587036132812,0.0,0.0,0.0,1,1789158320.129742,38.990818555,-76.93796355,-10.181999999999999,0,1,20.602520999999996,35.545443999999996,148.279329,1,1,1789158320.1507363,0.925697133255036,-0.3775916312654623,0.012964446322261795,0.018474323079676516,178.60010620207387,-2.175115042189107,-44.354493987392296,0.0012545426663335241,-0.0018051940453377349,-0.0026977554248076353,0.3633363884925842,0.25369803968429566,-9.714859916229248
2026-09-11T16:25:20.186,2.9745391039998594,-503.884765625,-45349.62890625,-181398.515625,-345.16106445312505,0.0,0.0,0.0,0.0,0.0,0.0,-0.04263496398925781,-349.265625,-15.348587036132812,0.0,0.0,0.0,1,1789158320.129742,38.990818555,-76.93796355,-10.181999999999999,0,1,20.602520999999996,35.545443999999996,148.279329,1,1,1789158320.1837363,0.9256922169774626,-0.37760288061559405,0.012969342804954154,0.018487296323781228,178.59896685663037,-2.1762131003570078,-44.35586566107796,0.0017720327895498428,-7.819075048934596e-05,-0.00135123390689401,0.36519965202331545,0.2568361677360535,-9.715742514743805
2026-09-11T16:25:20.220,3.0079642880000392,-503.884765625,-45349.62890625,-181398.515625,-345.16106445312505,0.0,0.0,0.0,0.0,0.0,0.0,-0.04263496398925781,-349.265625,-15.348587036132812,0.0,0.0,0.0,1,1789158320.129742,38.990818555,-76.93796355,-10.181999999999999,0,1,20.602520999999996,35.545443999999996,148.279329,1,1,1789158320.2117364,0.9257096896499029,-0.3775626383144159,0.012781882340398282,0.018564700944916076,178.58254723268385,-2.1596053490990106,-44.35073189974412,0.0027223645672607554,0.0011402236003278956,-0.0001876228945893904,0.36372865449905395,0.2545806381988525,-9.712015987682342
2026-09-11T16:25:20.253,3.041386655999986,-503.884765625,-45349.62890625,-181398.515625,-345.16106445312505,0.0,0.0,0.0,0.0,0.0,0.0,-0.04263496398925781,-349.265625,-15.348587036132812,0.0,0.0,0.0,1,1789158320.129742,38.990818555,-76.93796355,-10.181999999999999,0,1,20.602520999999996,35.545443999999996,148.279329,1,1,1789158320.2507365,0.9257025907268829,-0.37757927640652983,0.012848135221261027,0.01853453455565059,178.58865412666026,-2.165357174995251,-44.352849288317444,0.001965938869446413,-0.00169907802681648,-0.0018662805691575365,0.3641209205055237,0.25340384017944334,-9.703876468048096
2026-09-11T16:25:20.287,3.07480300799989,-503.884765625,-45349.62890625,-181398.515625,-345.16106445312505,0.0,0.0,0.0,0.0,0.0,0.0,-0.04263496398925781,-349.265625,-15.348587036132812,0.0,0.0,0.0,1,1789158320.129742,38.990818555,-76.93796355,-10.181999999999999,0,1,20.602520999999996,35.545443999999996,148.279329,1,1,1789158320.2837365,0.9257026301073265,-0.3775796591312344,0.012867161267043417,0.018511558109651934,178.5919174681964,-2.1663828858867444,-44.352937275636044,0.001700299757292876,-0.0023698080583579007,-0.002268753494667429,0.3655919180297852,0.2538941726875305,-9.715448315238953
2026-09-11T16:25:20.320,3.1082292799999323,-503.884765625,-45349.62890625,-181398.515625,-345.16106445312505,0.0,0.0,0.0,0.0,0.0,0.0,-0.04263496398925781,-349.265625,-15.348587036132812,0.0,0.0,0.0,1,1789158320.129742,38.990818555,-76.93796355,-10.181999999999999,0,1,20.602520999999996,35.545443999999996,148.279329,1,1,1789158320.3107364,0.925701458572329,-0.3775817700984003,0.012838889627081388,0.018546681632166478,178.58697034243872,-2.1649053075717606,-44.353136706704404,0.0013461724520632266,0.0022497294058206906,-0.0008260643349689162,0.36255185647964483,0.2573265002441406,-9.713585051708222
2026-09-11T16:25:20.354,3.1416499519998524,-503.884765625,-45349.62890625,-181398.515625,-345.16106445312505,0.0,0.0,0.0,0.0,0.0,0.0,-0.04263496398925781,-349.265625,-15.348587036132812,0.0,0.0,0.0,1,1789158320.129742,38.990818555,-76.93796355,-10.181999999999999,0,1,20.602520999999996,35.545443999999996,148.279329,1,1,1789158320.3517363,0.9256999608918348,-0.37758513933671695,0.012845353341336366,0.01854836527739334,178.58707895685797,-2.1656693123604316,-44.35355175194704,0.0022266910596943656,-0.0006803293424273896,-0.0012618730491919003,0.36519965202331545,0.255365170211792,-9.714271517219544
2026-09-11T16:25:20.388,3.175066367999989,-503.884765625,-45349.62890625,-181398.515625,-345.16106445312505,0.0,0.0,0.0,0.0,0.0,0.0,-0.04263496398925781,-349.265625,-15.348587036132812,0.0,0.0,0.0,1,1789158320.129742,38.990818555,-76.93796355,-10.181999999999999,0,1,20.602520999999996,35.545443999999996,148.279329,1,1,1789158320.3837364,0.9256908387260179,-0.37760628339323515,0.012887516110107093,0.018543941576188664,178.5894214882899,-2.1699849720243876,-44.35618183932498,0.0036494834659201434,0.0014090043051350222,-0.0010723302924253162,0.3633363884925842,0.255365170211792,-9.716527046756744
2026-09-11T16:25:20.421,3.20848454399993,-503.884765625,-45349.62890625,-181398.515625,-345.16106445312505,0.0,0.0,0.0,0.0,0.0,0.0,-0.04263496398925781,-349.265625,-15.348587036132812,0.0,0.0,0.0,1,1789158320.129742,38.990818555,-76.93796355,-10.181999999999999,0,1,20.602520999999996,35.545443999999996,148.279329,1,1,1789158320.4117362,0.9256975669792024,-0.3775902451751838,0.012843871625396824,0.018564918502374347,178.58526915819246,-2.1662361055364987,-44.35415606166958,0.0009335766168917669,0.0011728612573401894,-0.0006101671064972176,0.36186539096832276,0.2538941726875305,-9.712015987682342
2026-09-11T16:25:20.455,3.2419135999998616,-503.884765625,-45349.62890625,-181398.515625,-345.16106445312505,0.0,0.0,0.0,0.0,0.0,0.0,-0.04263496398925781,-349.265625,-15.348587036132812,0.0,0.0,0.0,1,1789158320.129742,38.990818555,-76.93796355,-10.181999999999999,0,1,20.602520999999996,35.545443999999996,148.279329,1,1,1789158320.4517365,0.9257088909857077,-0.37756456382697273,0.012750326101197655,0.01858705131192296,178.57881398336147,-2.157226155938065,-44.35092997407004,0.0029932396671702756,-0.00043319072034499255,-0.0009318312876397725,0.360786659450531,0.2538941726875305,-9.71093725616455
2026-09-11T16:25:20.488,3.275329823999982,-503.884765625,-45349.62890625,-181398.515625,-345.16106445312505,0.0,0.0,0.0,0.0,0.0,0.0,-0.04263496398925781,-349.265625,-15.348587036132812,0.0,0.0,0.0,1,1789158320.129742,38.990818555,-76.93796355,-10.181999999999999,0,1,20.602520999999996,35.545443999999996,148.279329,1,1,1789158320.4837363,0.92570457549947,-0.3775754175054135,0.012771332888635677,0.018567068998800788,178.5818694304131,-2.158607730561365,-44.35230913860935,0.0027520351645446586,0.0007311184236604246,0.0004633849164044945,0.360786659450531,0.2537961061859131,-9.707504928607941
2026-09-11T16:25:20.521,3.3087507519999235,-503.884765625,-45349.62890625,-181398.515625,-345.16106445312505,0.0,0.0,0.0,0.0,0.0,0.0,-0.04263496398925781,-349.265625,-15.348587036132812,0.0,0.0,0.0,1,1789158320.129742,38.990818555,-76.93796355,-10.181999999999999,0,1,20.602520999999996,35.545443999999996,148.279329,1,1,1789158320.5097363,0.925689792664416,-0.3776095986648258,0.01289082169317688,0.018526345273003442,178.591440628176,-2.1695794177280088,-44.35662221056698,0.0009988519309163549,0.0009873327578531924,-0.00016406094968746698,0.36382672100067137,0.25634583522796633,-9.713585051708222
2026-09-11T16:25:20.555,3.3421703039998647,-503.884765625,-45349.62890625,-181398.515625,-345.16106445312505,0.0,0.0,0.0,0.0,0.0,0.0,-0.04263496398925781,-349.265625,-15.348587036132812,0.0,0.0,0.0,1,1789158320.129742,38.990818555,-76.93796355,-10.181999999999999,0,1,20.602520999999996,35.545443999999996,148.279329,1,1,1789158320.5517364,0.9256801848167172,-0.37763259170324986,0.012947144396392522,0.01849844785796473,178.59689258181317,-2.1743847102329985,-44.359522809482044,0.0028284805857820105,0.0014604915180688551,0.00024329889772800953,0.361473124961853,0.25644390172958376,-9.711623721675872
2026-09-11T16:25:20.588,3.375685183999849,-503.884765625,-45349.62890625,-181398.515625,-345.16106445312505,0.0,0.0,0.0,0.0,0.0,0.0,-0.04263496398925781,-349.265625,-15.348587036132812,0.0,0.0,0.0,1,1789158320.129742,38.990818555,-76.93796355,-10.181999999999999,0,1,20.602520999999996,35.545443999999996,148.279329,1,1,1789158320.5817363,0.9256848644985506,-0.37762169577278304,0.012891626341016614,0.018525455197413176,178.59159829425792,-2.169644704433708,-44.35812161814549,0.0021519909677090083,0.0016046557142835865,-0.001033583983031042,0.3573543318939209,0.2545806381988525,-9.705445532073975
2026-09-11T16:25:20.621,3.4091018239998903,-503.884765625,-45349.62890625,-181398.515625,-345.16106445312505,0.0,0.0,0.0,0.0,0.0,0.0,-0.04263496398925781,-349.265625,-15.348587036132812,0.0,0.0,0.0,1,1789158320.129742,38.990818555,-76.93796355,-10.181999999999999,0,1,20.602520999999996,35.545443999999996,148.279329,1,1,1789158320.6117363,0.9256877604746434,-0.3776162925788107,0.012859614899714615,0.018513130235169904,178.59150993185582,-2.165705726583618,-44.35746956158156,0.0011508701087650608,0.0006721262949430164,-0.002160368548118581,0.36568998453140256,0.2494811801147461,-9.71172178817749
2026-09-11T16:25:20.655,3.4425171839998256,-503.884765625,-45349.62890625,-181398.515625,-345.16106445312505,0.0,0.0,0.0,0.0,0.0,0.0,-0.04263496398925781,-349.265625,-15.348587036132812,0.0,0.0,0.0,1,1789158320.129742,38.990818555,-76.93796355,-10.181999999999999,0,1,20.602520999999996,35.545443999999996,148.279329,1,1,1789158320.6507363,0.9257006743827393,-0.37758720312050437,0.012752369567689038,0.018534901062205768,178.5844925728983,-2.1552212639428117,-44.35382011683519,0.0023034855467821158,0.0026672121628977348,-0.00034086280291449253,0.36314025548934936,0.2538941726875305,-9.713388918704986
2026-09-11T16:25:20.688,3.4759368319998885,-503.884765625,-45349.62890625,-181398.515625,-345.16106445312505,0.0,0.0,0.0,0.0,0.0,0.0,-0.04263496398925781,-349.265625,-15.348587036132812,0.0,0.0,0.0,1,1789158320.129742,38.990818555,-76.93796355,-10.181999999999999,0,1,20.602520999999996,35.545443999999996,148.279329,1,1,1789158320.6837363,0.9256925201021518,-0.37760424003394916,0.012844600519796362,0.018531388852374025,178.58889369114624,-2.1648839662643096,-44.35594502890251,0.001510407934675893,0.0025487043066873194,-0.002168397062677755,0.3655919180297852,0.2565419682312012,-9.716919312763213
2026-09-11T16:25:20.722,3.509362271999862,-503.884765625,-45349.62890625,-181398.515625,-345.16106445312505,0.0,0.0,0.0,0.0,0.0,0.0,-0.04263496398925781,-349.265625,-15.348587036132812,0.0,0.0,0.0,1,1789158320.129742,38.990818555,-76.93796355,-10.181999999999999,0,1,20.602520999999996,35.545443999999996,148.279329,1,1,1789158320.7117364,0.9256884495092647,-0.3776127198970456,0.012854284886209837,0.018555203506109653,178.58680364919655,-2.1669552309478166,-44.35695617651109,-6.475171524898962e-05,-0.0011421434625050893,-0.0013618804153311755,0.3633363884925842,0.25977816278457644,-9.706720396595001
2026-09-11T16:25:20.755,3.5427843200000098,-503.884765625,-45349.62890625,-181398.515625,-345.16106445312505,0.0,0.0,0.0,0.0,0.0,0.0,-0.04263496398925781,-349.265625,-15.348587036132812,0.0,0.0,0.0,1,1789158320.129742,38.990818555,-76.93796355,-10.181999999999999,0,1,20.602520999999996,35.545443999999996,148.279329,1,1,1789158320.7517364,0.9256876999311126,-0.37761363532866693,0.01285843511628532,0.018571086572285265,178.58529877693607,-2.1680844024539443,-44.35704337193248,0.0010983356982800316,0.003599392516387906,-0.0015950564033976177,0.3622576569747925,0.25644390172958376,-9.70603393108368
2026-09-11T16:25:20.788,3.576203423999914,-503.884765625,-45349.62890625,-181398.515625,-345.16106445312505,0.0,0.0,0.0,0.0,0.0,0.0,-0.04263496398925781,-349.265625,-15.348587036132812,0.0,0.0,0.0,1,1789158320.129742,38.990818555,-76.93796355,-10.181999999999999,0,1,20.602520999999996,35.545443999999996,148.279329,1,1,1789158320.7837365,0.9256758728280039,-0.377641474614694,0.012905316033716892,0.018562002397970796,178.5883561192803,-2.1727093010937586,-44.3605108606295,0.0013514084398192094,0.0002705260340591211,-0.00032777283352453514,0.3655919180297852,0.2568361677360535,-9.716919312763213
2026-09-11T16:25:20.822,3.6096321600000465,-503.884765625,-45349.62890625,-181398.515625,-345.16106445312505,0.0,0.0,0.0,0.0,0.0,0.0,-0.04263496398925781,-349.265625,-15.348587036132812,0.0,0.0,0.0,1,1789158320.129742,38.990818555,-76.93796355,-10.181999999999999,0,1,20.602520999999996,35.545443999999996,148.279329,1,1,1789158320.8117363,0.9256833924427621,-0.3776245251538066,0.012810855193863368,0.01859722955773922,178.58049069493936,-2.164182652267651,-44.3583429551356,0.0008047713180945853,-0.0005956808737056647,-0.0012248720690496205,0.3641209205055237,0.2545806381988525,-9.71093725616455
2026-09-11T16:25:20.855,3.6430621759998303,-503.884765625,-45349.62890625,-181398.515625,-345.16106445312505,0.0,0.0,0.0,0.0,0.0,0.0,-0.04263496398925781,-349.265625,-15.348587036132812,0.0,0.0,0.0,1,1789158320.129742,38.990818555,-76.93796355,-10.181999999999999,0,1,20.602520999999996,35.545443999999996,148.279329,1,1,1789158320.8507364,0.9256798143860423,-0.3776331589595291,0.01284047065035175,0.018579580349041055,178.58366570442237,-2.166575225460297,-44.35944456433497,0.0009730210579868388,-6.824237375297829e-05,-0.002432814444354896,0.36255185647964483,0.2581110322570801,-9.715840581245422
2026-09-11T16:25:20.888,3.6764859519998936,-503.884765625,-45349.62890625,-181398.515625,-345.16106445312505,0.0,0.0,0.0,0.0,0.0,0.0,-0.04263496398925781,-349.265625,-15.348587036132812,0.0,0.0,0.0,1,1789158320.129742,38.990818555,-76.93796355,-10.181999999999999,0,1,20.602520999999996,35.545443999999996,148.279329,1,1,1789158320.8817608,0.9256780044637438,-0.3776373632370077,0.012816848376216675,0.018600600450588888,178.58042198575424,-2.164984272007462,-44.35992749442545,0.0007370525431172053,-0.0006581636609270617,-0.0013569934934255913,0.3622576569747925,0.25644390172958376,-9.712015987682342
2026-09-11T16:25:20.922,3.7099178559999473,-503.884765625,-45349.62890625,-181398.515625,-345.16106445312505,0.0,0.0,0.0,0.0,0.0,0.0,-0.04263496398925781,-349.265625,-15.348587036132812,0.0,0.0,0.0,1,1789158320.129742,38.990818555,-76.93796355,-10.181999999999999,0,1,20.602520999999996,35.545443999999996,148.279329,1,1,1789158320.9087608,0.9256726012412357,-0.37765037138090135,0.012858146348459273,0.018576877553382085,178.58475745659757,-2.1683605073353696,-44.36158219301864,0.0023073252711365037,0.0004529129408925285,-0.0018812904007246877,0.3626499229812622,0.255365170211792,-9.713388918704986
2026-09-11T16:25:20.955,3.7433404799999153,-503.884765625,-45349.62890625,-181398.515625,-345.16106445312505,0.0,0.0,0.0,0.0,0.0,0.0,-0.04263496398925781,-349.265625,-15.348587036132812,0.0,0.0,0.0,1,1789158320.129742,38.990818555,-76.93796355,-10.181999999999999,0,1,20.602520999999996,35.545443999999996,148.279329,1,1,1789158320.9487607,0.925667730594654,-0.37766222948110056,0.012902322581067471,0.0185478578580204,178.5897772378783,-2.171811102669382,-44.36310409272397,-0.0001494001839707146,2.7750735106709842e-05,-0.002057045056400517,0.36657258304595947,0.25369803968429566,-9.7128985861969
2026-09-11T16:25:20.988,3.776765952000005,-503.884765625,-45349.62890625,-181398.515625,-345.16106445312505,0.0,0.0,0.0,0.0,0.0,0.0,-0.04263496398925781,-349.265625,-15.348587036132812,0.0,0.0,0.0,1,1789158320.129742,38.990818555,-76.93796355,-10.181999999999999,0,1,20.602520999999996,35.545443999999996,148.279329,1,1,1789158320.9817607,0.9256628068531442,-0.37767255273468664,0.012923639160552974,0.018568534419062116,178.5885280390449,-2.1749840053559883,-44.36435009176176,0.0004384267081009756,-0.0005797983775125162,-0.0017819811662862105,0.3682397135734558,0.25762069974899293,-9.708975926132203
2026-09-11T16:25:21.022,3.810183039999856,-503.884765625,-45349.62890625,-181398.515625,-345.16106445312505,0.0,0.0,0.0,0.0,0.0,0.0,-0.04263496398925781,-349.265625,-15.348587036132812,0.0,0.0,0.0,1,1789158320.129742,38.990818555,-76.93796355,-10.181999999999999,0,1,20.602520999999996,35.545443999999996,148.279329,1,1,1789158321.008761,0.9256550759988984,-0.3776909394950275,0.012969429236678688,0.01854800275264427,178.59273193070962,-2.1789830082627915,-44.366666862321054,0.002451664000276435,0.0007243116395776468,-0.00010506882097005864,0.36637645004272457,0.25516903720855716,-9.719174842300415
2026-09-11T16:25:21.054,3.843598431999908,-503.884765625,-45349.62890625,-181398.515625,-345.16106445312505,0.0,0.0,0.0,0.0,0.0,0.0,-0.04263496398925781,-349.265625,-15.348587036132812,0.0,0.0,0.0,1,1789158321.0441697,38.990818495,-76.93796299833333,-10.105999999999998,0,1,20.602520999999996,35.545443999999996,148.254976,1,1,1789158321.048761,0.9256578318659909,-0.37768429354985583,0.012946843593654039,0.018561571912439793,178.59029859397975,-2.177163211904199,-44.36581832837295,0.000848579082319643,-0.0010374237073854295,-0.002292489972494552,0.36608225053787236,0.25634583522796633,-9.716428980255127
2026-09-11T16:25:21.089,3.8770178239999495,-503.884765625,-45349.62890625,-181398.515625,-345.16106445312505,0.0,0.0,0.0,0.0,0.0,0.0,-0.04263496398925781,-349.265625,-15.348587036132812,0.0,0.0,0.0,1,1789158321.0441697,38.990818495,-76.93796299833333,-10.105999999999998,0,1,20.602520999999996,35.545443999999996,148.254976,1,1,1789158321.081761,0.9256594452837872,-0.37768194261329036,0.01290958758170598,0.018554895020794524,178.58939053884725,-2.172916727470438,-44.36553400540662,0.0005096361415823442,-0.0023930209374094253,-0.001938188134339703,0.3633363884925842,0.25497290420532226,-9.715350248737336
2026-09-11T16:25:21.122,3.910438111999838,-503.884765625,-45349.62890625,-181398.515625,-345.16106445312505,0.0,0.0,0.0,0.0,0.0,0.0,-0.04263496398925781,-349.265625,-15.348587036132812,0.0,0.0,0.0,1,1789158321.0441697,38.990818495,-76.93796299833333,-10.105999999999998,0,1,20.602520999999996,35.545443999999996,148.254976,1,1,1789158321.107761,0.9256554552567202,-0.37769037860094246,0.012946140014714435,0.01855676492468604,178.59079287578035,-2.1768897542062526,-44.36657978492533,0.0028078857006084775,0.0025804692990736163,-0.000759043691692334,0.36814164707183833,0.25467870470047,-9.718684509792327
2026-09-11T16:25:21.156,3.943861792000007,-503.884765625,-45349.62890625,-181398.515625,-345.16106445312505,0.0,0.0,0.0,0.0,0.0,0.0,-0.04263496398925781,-349.265625,-15.348587036132812,0.0,0.0,0.0,1,1789158321.0441697,38.990818495,-76.93796299833333,-10.105999999999998,0,1,20.602520999999996,35.545443999999996,148.254976,1,1,1789158321.1497607,0.925660416196944,-0.37768049885739063,0.01286728735171847,0.018565225157305954,178.5864606633025,-2.1688723624605974,-44.365333079557054,0.0013971360662214608,-0.0008004079949645995,-0.0012946852391293937,0.3659841840362549,0.25497290420532226,-9.71054499015808
2026-09-11T16:25:21.189,3.9772828159998426,-503.884765625,-45349.62890625,-181398.515625,-345.16106445312505,0.0,0.0,0.0,0.0,0.0,0.0,-0.04263496398925781,-349.265625,-15.348587036132812,0.0,0.0,0.0,1,1789158321.0441697,38.990818495,-76.93796299833333,-10.105999999999998,0,1,20.602520999999996,35.545443999999996,148.254976,1,1,1789158321.1807609,0.9256719885213546,-0.37765419902745045,0.012748721931676506,0.018604991614217643,178.57704863186234,-2.1579699047398577,-44.36199811287555,0.002182708762544109,-0.0008452629567408538,-0.000673173492494213,0.36480738601684565,0.25418837219238277,-9.717605778274537
2026-09-11T16:25:21.223,4.010707679999996,-503.884765625,-45349.62890625,-181398.515625,-345.16106445312505,0.0,0.0,0.0,0.0,0.0,0.0,-0.04263496398925781,-349.265625,-15.348587036132812,0.0,0.0,0.0,1,1789158321.0441697,38.990818495,-76.93796299833333,-10.105999999999998,0,1,20.602520999999996,35.545443999999996,148.254976,1,1,1789158321.209761,0.9256728217902512,-0.3776521647383814,0.01274983498433789,0.018604063404540256,178.57719058528875,-2.158044735379275,-44.361747883065426,0.0024530602636780303,0.000882438469808333,-0.0003218387140677544,0.360786659450531,0.2531096406745911,-9.706818463096619
2026-09-11T16:25:21.256,4.044129504000011,-503.884765625,-45349.62890625,-181398.515625,-345.16106445312505,0.0,0.0,0.0,0.0,0.0,0.0,-0.04263496398925781,-349.265625,-15.348587036132812,0.0,0.0,0.0,1,1789158321.0441697,38.990818495,-76.93796299833333,-10.105999999999998,0,1,20.602520999999996,35.545443999999996,148.254976,1,1,1789158321.248761,0.9256771152647806,-0.37764231424852374,0.01274008023373213,0.01859707288073675,178.57748799241213,-2.156691804008537,-44.36053897420341,0.0022479840765686964,-0.0005586798935633848,-0.0018730873532403144,0.36284605598449704,0.25291350767135623,-9.714173450717926
2026-09-11T16:25:21.289,4.077551456000037,-503.884765625,-45349.62890625,-181398.515625,-345.16106445312505,0.0,0.0,0.0,0.0,0.0,0.0,-0.04263496398925781,-349.265625,-15.348587036132812,0.0,0.0,0.0,1,1789158321.0441697,38.990818495,-76.93796299833333,-10.105999999999998,0,1,20.602520999999996,35.545443999999996,148.254976,1,1,1789158321.281761,0.9256668889722871,-0.37766707167424357,0.012810457281311513,0.018554940517635943,178.5850631984959,-2.1623754370067743,-44.363681613496645,0.0025247932959349974,0.0011733848561157878,-5.532693728822025e-05,0.3641209205055237,0.2535019066810608,-9.713192785701752
2026-09-11T16:25:21.323,4.110969183999941,-503.884765625,-45349.62890625,-181398.515625,-345.16106445312505,0.0,0.0,0.0,0.0,0.0,0.0,-0.04263496398925781,-349.265625,-15.348587036132812,0.0,0.0,0.0,1,1789158321.0441697,38.990818495,-76.93796299833333,-10.105999999999998,0,1,20.602520999999996,35.545443999999996,148.254976,1,1,1789158321.3097608,0.9256553725254328,-0.37769390235052613,0.01291788384027848,0.018508801126017115,178.59467165237274,-2.1718203786154007,-44.367093230807136,0.0018041468477865384,0.001395565269894666,0.0009012880257298718,0.36117892545700075,0.2538941726875305,-9.70789719461441
2026-09-11T16:25:21.356,4.144388607999872,-503.884765625,-45349.62890625,-181398.515625,-345.16106445312505,0.0,0.0,0.0,0.0,0.0,0.0,-0.04263496398925781,-349.265625,-15.348587036132812,0.0,0.0,0.0,1,1789158321.0441697,38.990818495,-76.93796299833333,-10.105999999999998,0,1,20.602520999999996,35.545443999999996,148.254976,1,1,1789158321.3487608,0.9256576211405851,-0.3776878993580105,0.012885855089910563,0.018541139163714408,178.58983856256768,-2.16981174766408,-44.3662918874294,0.0026630233726929477,0.0004352851154473858,-0.0012257447336756176,0.3643170535087586,0.25634583522796633,-9.710348857154846
2026-09-11T16:25:21.390,4.1778124799998295,-503.884765625,-45349.62890625,-181398.515625,-345.16106445312505,0.0,0.0,0.0,0.0,0.0,0.0,-0.04263496398925781,-349.265625,-15.348587036132812,0.0,0.0,0.0,1,1789158321.0441697,38.990818495,-76.93796299833333,-10.105999999999998,0,1,20.602520999999996,35.545443999999996,148.254976,1,1,1789158321.3797607,0.9256519731229195,-0.37770104990150877,0.012880163541988713,0.01855917412159085,178.58770828415436,-2.170008353175132,-44.36788930885927,0.0022753857458250077,0.0024371777674848816,-0.0009349728802933624,0.36510158552169797,0.25713036724090577,-9.717899977779389
2026-09-11T16:25:21.424,4.2112301439999555,-503.884765625,-45349.62890625,-181398.515625,-345.16106445312505,0.0,0.0,0.0,0.0,0.0,0.0,-0.04263496398925781,-349.265625,-15.348587036132812,0.0,0.0,0.0,1,1789158321.0441697,38.990818495,-76.93796299833333,-10.105999999999998,0,1,20.602520999999996,35.545443999999996,148.254976,1,1,1789158321.4217608,0.9256478003808888,-0.3777115648605905,0.012860997236487396,0.018566587480451615,178.58611672579988,-2.168311212493606,-44.36917671537194,0.0005145230634879284,-0.00037995817815916554,-0.00023649211364523164,0.3633363884925842,0.2545806381988525,-9.712800519695282
2026-09-11T16:25:21.457,4.244649183999854,-503.884765625,-45349.62890625,-181398.515625,-345.16106445312505,0.0,0.0,0.0,0.0,0.0,0.0,-0.04263496398925781,-349.265625,-15.348587036132812,0.0,0.0,0.0,1,1789158321.0441697,38.990818495,-76.93796299833333,-10.105999999999998,0,1,20.602520999999996,35.545443999999996,148.254976,1,1,1789158321.4487607,0.9256492523213562,-0.37770832371797486,0.012853802072308958,0.018565118996594597,178.5859538125545,-2.167479099265309,-44.36877706044893,0.002357416220668741,0.0018521434022163827,-0.00033021629447732716,0.36157119146347044,0.2550709707069397,-9.710348857154846
2026-09-11T16:25:21.490,4.278068800000028,-503.884765625,-45349.62890625,-181398.515625,-345.16106445312505,0.0,0.0,0.0,0.0,0.0,0.0,-0.04263496398925781,-349.265625,-15.348587036132812,0.0,0.0,0.0,1,1789158321.0441697,38.990818495,-76.93796299833333,-10.105999999999998,0,1,20.602520999999996,35.545443999999996,148.254976,1,1,1789158321.4807608,0.9256367452069192,-0.37773828430020856,0.012930996878143608,0.01852549098979947,178.5935710154599,-2.1740018386094446,-44.372562288726,0.0015247196345422461,0.002166302667575362,-6.161012259539983e-05,0.36088472595214843,0.255365170211792,-9.708681726627349
2026-09-11T16:25:21.524,4.3114848319999055,-503.884765625,-45349.62890625,-181398.515625,-345.16106445312505,0.0,0.0,0.0,0.0,0.0,0.0,-0.04263496398925781,-349.265625,-15.348587036132812,0.0,0.0,0.0,1,1789158321.0441697,38.990818495,-76.93796299833333,-10.105999999999998,0,1,20.602520999999996,35.545443999999996,148.254976,1,1,1789158321.5207608,0.925641530047121,-0.37772757280836317,0.012862599858082,0.018552415401197474,178.58772830350702,-2.1678922910983935,-44.37118276968795,0.001887399053106668,0.00013177235852557189,-0.0009218829109034048,0.36157119146347044,0.25634583522796633,-9.709858524646759
2026-09-11T16:25:21.557,4.3449090239998895,-503.884765625,-45349.62890625,-181398.515625,-345.16106445312505,0.0,0.0,0.0,0.0,0.0,0.0,-0.04263496398925781,-349.265625,-15.348587036132812,0.0,0.0,0.0,1,1789158321.0441697,38.990818495,-76.93796299833333,-10.105999999999998,0,1,20.602520999999996,35.545443999999996,148.254976,1,1,1789158321.5497608,0.925647913150762,-0.37771139117875036,0.012847686559402056,0.01857371270165723,178.5847839992902,-2.16720673375827,-44.36914182100055,0.0032086132968663756,0.002970899452744748,-0.0013126621304249352,0.3659841840362549,0.255365170211792,-9.718782576293945
2026-09-11T16:25:21.591,4.3783273599999575,-503.884765625,-45349.62890625,-181398.515625,-345.16106445312505,0.0,0.0,0.0,0.0,0.0,0.0,-0.04263496398925781,-349.265625,-15.348587036132812,0.0,0.0,0.0,1,1789158321.0441697,38.990818495,-76.93796299833333,-10.105999999999998,0,1,20.602520999999996,35.545443999999996,148.254976,1,1,1789158321.580761,0.9256455820103991,-0.37771633220901213,0.012858430185395906,0.018581971380021985,178.58438342967537,-2.168711945813593,-44.369740959798015,0.0016470672151070488,0.003664842363337693,-0.0025144958533482305,0.3586291964149475,0.256051635723114,-9.70260160352707
2026-09-11T16:25:21.624,4.411745568000015,-503.884765625,-45349.62890625,-181398.515625,-345.16106445312505,0.0,0.0,0.0,0.0,0.0,0.0,-0.04263496398925781,-349.265625,-15.348587036132812,0.0,0.0,0.0,1,1789158321.0441697,38.990818495,-76.93796299833333,-10.105999999999998,0,1,20.602520999999996,35.545443999999996,148.254976,1,1,1789158321.6197608,0.9256550324456474,-0.37769418229178836,0.012791149371894697,0.018607849653589352,178.5786735874464,-2.1626577805755445,-44.366948071187444,0.0018505726058895876,0.000971101195809645,-0.002179741702815718,0.36814164707183833,0.2532077071762085,-9.710643056659698
2026-09-11T16:25:21.657,4.44517276800002,-503.884765625,-45349.62890625,-181398.515625,-345.16106445312505,0.0,0.0,0.0,0.0,0.0,0.0,-0.04263496398925781,-349.265625,-15.348587036132812,0.0,0.0,0.0,1,1789158321.0441697,38.990818495,-76.93796299833333,-10.105999999999998,0,1,20.602520999999996,35.545443999999996,148.254976,1,1,1789158321.6487608,0.9256570519528853,-0.37768994789780164,0.012781917230956829,0.018599677920615326,178.5791320237678,-2.1613178084502302,-44.366436516439755,0.0015002850250143255,0.0022963296968489394,-0.0010665707058937347,0.36284605598449704,0.2550709707069397,-9.707406862106323
2026-09-11T16:25:21.691,4.478592159999835,-503.884765625,-45349.62890625,-181398.515625,-345.16106445312505,0.0,0.0,0.0,0.0,0.0,0.0,-0.04263496398925781,-349.265625,-15.348587036132812,0.0,0.0,0.0,1,1789158321.0441697,38.990818495,-76.93796299833333,-10.105999999999998,0,1,20.602520999999996,35.545443999999996,148.254976,1,1,1789158321.679761,0.9256662070179276,-0.3776670977022564,0.012728081994077631,0.018644903511411386,178.57194818281772,-2.1575265783544495,-44.363526804098214,0.0009827949017980069,-0.0005516985765554076,-0.003599392516387906,0.3643170535087586,0.2566400347328186,-9.71436958372116
2026-09-11T16:25:21.724,4.512006783999823,-503.884765625,-45349.62890625,-181398.515625,-345.16106445312505,0.0,0.0,0.0,0.0,0.0,0.0,-0.04263496398925781,-349.265625,-15.348587036132812,0.0,0.0,0.0,1,1789158321.0441697,38.990818495,-76.93796299833333,-10.105999999999998,0,1,20.602520999999996,35.545443999999996,148.254976,1,1,1789158321.7207608,0.9256614276461148,-0.37767977325574315,0.012776577716896532,0.018592183935488112,178.57967301412714,-2.1604111771993697,-44.365188688725446,0.0028167868797936485,-3.595378259108319e-05,0.0002558652683423687,0.3623557234764099,0.25703230073928834,-9.713388918704986
2026-09-11T16:25:21.758,4.545424959999991,-503.884765625,-45349.62890625,-181398.515625,-345.16106445312505,0.0,0.0,0.0,0.0,0.0,0.0,-0.04263496398925781,-349.265625,-15.348587036132812,0.0,0.0,0.0,1,1789158321.0441697,38.990818495,-76.93796299833333,-10.105999999999998,0,1,20.602520999999996,35.545443999999996,148.254976,1,1,1789158321.748761,0.9256738302160606,-0.37765094180434916,0.01272057512980648,0.018598741241881295,178.57648736013672,-2.154707196549813,-44.36160266294579,0.0014985396957623316,0.0008056439827205825,-0.0013494885776420156,0.3649054525184631,0.25418837219238277,-9.71436958372116
2026-09-11T16:25:21.791,4.578839935999895,-503.884765625,-45349.62890625,-181398.515625,-345.16106445312505,0.0,0.0,0.0,0.0,0.0,0.0,-0.04263496398925781,-349.265625,-15.348587036132812,0.0,0.0,0.0,1,1789158321.0441697,38.990818495,-76.93796299833333,-10.105999999999998,0,1,20.602520999999996,35.545443999999996,148.254976,1,1,1789158321.781761,0.9256795035501066,-0.37763693109641683,0.012703598552809883,0.018612457202560356,178.57426417143296,-2.15347749015605,-44.35984357992012,0.00013142329267517303,-0.0007084291433844984,-0.0034246850582632733,0.36451318651199344,0.25428643869400025,-9.717311578769685
2026-09-11T16:25:21.825,4.6122624639999685,-503.884765625,-45349.62890625,-181398.515625,-345.16106445312505,0.0,0.0,0.0,0.0,0.0,0.0,-0.04263496398925781,-349.265625,-15.348587036132812,0.0,0.0,0.0,1,1789158321.0441697,38.990818495,-76.93796299833333,-10.105999999999998,0,1,20.602520999999996,35.545443999999996,148.254976,1,1,1789158321.821761,0.9256830600780379,-0.37762773183264303,0.012661325680594021,0.018650985697890872,178.5683236117215,-2.150644175729347,-44.358637031837134,0.0033279938177027874,0.0017570229579826914,-8.185594191853405e-05,0.3626499229812622,0.25644390172958376,-9.711231455669402
2026-09-11T16:25:21.858,4.645684895999921,-503.884765625,-45349.62890625,-181398.515625,-345.16106445312505,0.0,0.0,0.0,0.0,0.0,0.0,-0.04263496398925781,-349.265625,-15.348587036132812,0.0,0.0,0.0,1,1789158321.0441697,38.990818495,-76.93796299833333,-10.105999999999998,0,1,20.602520999999996,35.545443999999996,148.254976,1,1,1789158321.8487608,0.925686031406534,-0.3776209039796122,0.012657128134758682,0.018644603611287818,178.56880387717962,-2.149911953603548,-44.35780191739749,0.0005354670145118603,1.466076571675237e-05,-0.0018617427131023513,0.3623557234764099,0.2573265002441406,-9.7128985861969
2026-09-11T16:25:21.891,4.679102847999957,-503.884765625,-45349.62890625,-181398.515625,-345.16106445312505,0.0,0.0,0.0,0.0,0.0,0.0,-0.04263496398925781,-349.265625,-15.348587036132812,0.0,0.0,0.0,1,1789158321.0441697,38.990818495,-76.93796299833333,-10.105999999999998,0,1,20.602520999999996,35.545443999999996,148.254976,1,1,1789158321.880761,0.9257035380597654,-0.3775789156847676,0.01255540529150066,0.018694487206488586,178.55901097922202,-2.1412093302887354,-44.352513477886056,0.00032934362985133,-0.0027555258230486475,-0.004087735641095919,0.36716098205566405,0.2538941726875305,-9.709172059135437
2026-09-11T16:25:21.925,4.71251849600003,-503.884765625,-45349.62890625,-181398.515625,-345.16106445312505,0.0,0.0,0.0,0.0,0.0,0.0,-0.04263496398925781,-349.265625,-15.348587036132812,0.0,0.0,0.0,1,1789158321.0441697,38.990818495,-76.93796299833333,-10.105999999999998,0,1,20.602520999999996,35.545443999999996,148.254976,1,1,1789158321.9207609,0.9256905899958215,-0.3776082630968161,0.012697883955910977,0.01864658084570854,178.57032703125128,-2.15430343967442,-44.35623675621402,0.0016715018246349694,-0.00019512781037296607,0.0013285446266180835,0.3653957850265503,0.25271737466812133,-9.713683118209838
2026-09-11T16:25:21.958,4.745935487999986,-503.884765625,-45349.62890625,-181398.515625,-345.16106445312505,0.0,0.0,0.0,0.0,0.0,0.0,-0.04263496398925781,-349.265625,-15.348587036132812,0.0,0.0,0.0,1,1789158321.0441697,38.990818495,-76.93796299833333,-10.105999999999998,0,1,20.602520999999996,35.545443999999996,148.254976,1,1,1789158321.9487607,0.9256911933988676,-0.37760751368351825,0.01266551872310278,0.018653812184289322,178.5681578355825,-2.151180229444075,-44.356129346953566,0.0014699162960296244,-0.0008499753457212385,-0.0021818360979181115,0.36382672100067137,0.2550709707069397,-9.71093725616455
2026-09-11T16:25:21.991,4.779358944000023,-503.884765625,-45349.62890625,-181398.515625,-345.16106445312505,0.0,0.0,0.0,0.0,0.0,0.0,-0.04263496398925781,-349.265625,-15.348587036132812,0.0,0.0,0.0,1,1789158321.0441697,38.990818495,-76.93796299833333,-10.105999999999998,0,1,20.602520999999996,35.545443999999996,148.254976,1,1,1789158321.9807608,0.9256970148806559,-0.3775927191354151,0.01269710124503598,0.018642926726764156,178.570645008805,-2.1540382499895254,-44.35431820823265,0.0014385003694937263,-0.002634225440035042,-0.0031909854714212327,0.36510158552169797,0.25860136476516726,-9.711133389167786
2026-09-11T16:25:22.025,4.812782047999917,-503.884765625,-45349.62890625,-181398.515625,-345.16106445312505,0.0,0.0,0.0,0.0,0.0,0.0,-0.04263496398925781,-349.265625,-15.348587036132812,0.0,0.0,0.0,1,1789158321.0441697,38.990818495,-76.93796299833333,-10.105999999999998,0,1,20.602520999999996,35.545443999999996,148.254976,1,1,1789158322.0207608,0.9257057090092945,-0.3775718993108454,0.012633392410731433,0.01867614935142864,178.56431407674614,-2.1486819653850127,-44.351680297514456,0.0012849113953182255,0.0003143337982841788,-0.003084869452899977,0.36314025548934936,0.25487483770370484,-9.717605778274537
2026-09-11T16:25:22.058,4.846199264000006,-503.884765625,-45349.62890625,-181398.515625,-345.16106445312505,0.0,0.0,0.0,0.0,0.0,0.0,-0.04263496398925781,-349.265625,-15.348587036132812,0.0,0.0,0.0,1,1789158322.0433638,38.99081829666667,-76.93796233,-10.012999999999998,0,1,20.593444,35.557369,148.230625,1,1,1789158322.048761,0.9257091980936627,-0.3775632197985833,0.01265016620230124,0.018667322120988355,178.56595652056825,-2.1500668384519948,-44.350621553580005,0.001900314489571426,-0.0014175564184697946,-0.0027157323161031764,0.36382672100067137,0.2558555027198791,-9.713683118209838
2026-09-11T16:25:22.092,4.879618047999884,-503.884765625,-45349.62890625,-181398.515625,-345.16106445312505,0.0,0.0,0.0,0.0,0.0,0.0,-0.04263496398925781,-349.265625,-15.348587036132812,0.0,0.0,0.0,1,1789158322.0433638,38.99081829666667,-76.93796233,-10.012999999999998,0,1,20.593444,35.557369,148.230625,1,1,1789158322.0797608,0.9257018614157503,-0.37758220167162626,0.012653147615994934,0.01864517652450839,178.5684810218082,-2.149454448148118,-44.35300876508467,0.002124938364303096,-0.0006255260039147677,0.0005119050696099368,0.3655919180297852,0.2532077071762085,-9.711133389167786
2026-09-11T16:25:22.125,4.913037727999836,-503.884765625,-45349.62890625,-181398.515625,-345.16106445312505,0.0,0.0,0.0,0.0,0.0,0.0,-0.04263496398925781,-349.265625,-15.348587036132812,0.0,0.0,0.0,1,1789158322.0433638,38.99081829666667,-76.93796233,-10.012999999999998,0,1,20.593444,35.557369,148.230625,1,1,1789158322.120761,0.9256875373275597,-0.3776144041856822,0.012827935847986255,0.018584645538997874,178.58254189105213,-2.165435381131743,-44.35711261660086,0.0012754866173574561,0.0006546730024230731,-0.0013510593739688107,0.36578805103302003,0.2554632367134094,-9.720645839824677
2026-09-11T16:25:22.158,4.946467839999968,-503.884765625,-45349.62890625,-181398.515625,-345.16106445312505,0.0,0.0,0.0,0.0,0.0,0.0,-0.04263496398925781,-349.265625,-15.348587036132812,0.0,0.0,0.0,1,1789158322.0433638,38.99081829666667,-76.93796233,-10.012999999999998,0,1,20.593444,35.557369,148.230625,1,1,1789158322.1487608,0.9256856900428301,-0.37761994297855433,0.012788860823930374,0.018591044984855545,178.58018549188753,-2.161573712664254,-44.35778374985343,0.002201907384316046,-0.0006192428186075881,-0.0021146409217163297,0.3653957850265503,0.25369803968429566,-9.71436958372116
2026-09-11T16:25:22.192,4.979887647999931,-503.884765625,-45349.62890625,-181398.515625,-345.16106445312505,0.0,0.0,0.0,0.0,0.0,0.0,-0.04263496398925781,-349.265625,-15.348587036132812,0.0,0.0,0.0,1,1789158322.0433638,38.99081829666667,-76.93796233,-10.012999999999998,0,1,20.593444,35.557369,148.230625,1,1,1789158322.1807609,0.9256882433245712,-0.37761241775304105,0.01284616986376753,0.018577245468679345,178.58411154028556,-2.167047323134368,-44.35688097569164,0.0024434609527920616,-0.0008770279491271506,-0.0014838789300455789,0.36588611753463746,0.25291350767135623,-9.715644448242188
2026-09-11T16:25:22.226,5.01331590399991,-503.884765625,-45349.62890625,-181398.515625,-345.16106445312505,0.0,0.0,0.0,0.0,0.0,0.0,-0.04263496398925781,-349.265625,-15.348587036132812,0.0,0.0,0.0,1,1789158322.0433638,38.99081829666667,-76.93796233,-10.012999999999998,0,1,20.593444,35.557369,148.230625,1,1,1789158322.2207608,0.9256838819374364,-0.37762414877670036,0.012810934072319029,0.018580445368864284,178.582275395581,-2.1634641290155483,-44.35832442619623,0.0007213445798492563,-9.424777960769379e-06,0.0003700098014227979,0.35833499691009524,0.2552671037101746,-9.706131997585297
2026-09-11T16:25:22.259,5.046734175999973,-503.884765625,-45349.62890625,-181398.515625,-345.16106445312505,0.0,0.0,0.0,0.0,0.0,0.0,-0.04263496398925781,-349.265625,-15.348587036132812,0.0,0.0,0.0,1,1789158322.0433638,38.99081829666667,-76.93796233,-10.012999999999998,0,1,20.593444,35.557369,148.230625,1,1,1789158322.2477608,0.9256679711476271,-0.3776615127062974,0.012943174045897662,0.01852196688920341,178.59429155480137,-2.17502503557423,-44.36306374668224,0.0025532421627425046,0.0003633775502652194,-0.0008543386688512244,0.3633363884925842,0.25438450519561767,-9.7128985861969
2026-09-11T16:25:22.292,5.080153471999893,-503.884765625,-45349.62890625,-181398.515625,-345.16106445312505,0.0,0.0,0.0,0.0,0.0,0.0,-0.04263496398925781,-349.265625,-15.348587036132812,0.0,0.0,0.0,1,1789158322.0433638,38.99081829666667,-76.93796233,-10.012999999999998,0,1,20.593444,35.557369,148.230625,1,1,1789158322.2807608,0.9256664792214747,-0.3776657810442933,0.01293718335590386,0.018513680367195664,178.59492233528007,-2.174037098499608,-44.36360542976906,0.0026218336023458816,-0.0013603096190043804,0.0006101671064972176,0.36215959047317503,0.25359997318267824,-9.705935864582061
2026-09-11T16:25:22.326,5.113579935999951,-503.884765625,-45349.62890625,-181398.515625,-345.16106445312505,0.0,0.0,0.0,0.0,0.0,0.0,-0.04263496398925781,-349.265625,-15.348587036132812,0.0,0.0,0.0,1,1789158322.0433638,38.99081829666667,-76.93796233,-10.012999999999998,0,1,20.593444,35.557369,148.230625,1,1,1789158322.3197608,0.9256839674644125,-0.3776253709746424,0.01278917108022873,0.01856633185874126,178.58283565706688,-2.1605455280558017,-44.358497124460555,0.0012849113953182255,-0.00018133970928221085,-0.001362578547031973,0.3653957850265503,0.256051635723114,-9.708681726627349
2026-09-11T16:25:22.359,5.1469955519999075,-503.884765625,-45349.62890625,-181398.515625,-345.16106445312505,0.0,0.0,0.0,0.0,0.0,0.0,-0.04263496398925781,-349.265625,-15.348587036132812,0.0,0.0,0.0,1,1789158322.0433638,38.99081829666667,-76.93796233,-10.012999999999998,0,1,20.593444,35.557369,148.230625,1,1,1789158322.3487608,0.9256877337409238,-0.3776158918326503,0.012766012028258856,0.018587274515620318,178.5795882694732,-2.158979370327896,-44.35728622506115,0.00271765217828037,0.0010211921453418822,-0.0008457865555164521,0.36657258304595947,0.25340384017944334,-9.714173450717926
2026-09-11T16:25:22.393,5.180415743999902,-503.884765625,-45349.62890625,-181398.515625,-345.16106445312505,0.0,0.0,0.0,0.0,0.0,0.0,-0.04263496398925781,-349.265625,-15.348587036132812,0.0,0.0,0.0,1,1789158322.0433638,38.99081829666667,-76.93796233,-10.012999999999998,0,1,20.593444,35.557369,148.230625,1,1,1789158322.380761,0.9256942706239194,-0.37759984477216946,0.012745291030140578,0.01860193857210084,178.57709771556353,-2.15739012032376,-44.35527295143206,0.002473829681776763,0.0030017917805050475,-0.0029412288554608442,0.36510158552169797,0.25359997318267824,-9.706426197090149
2026-09-11T16:25:22.426,5.213833439999917,-503.884765625,-45349.62890625,-181398.515625,-345.16106445312505,0.0,0.0,0.0,0.0,0.0,0.0,-0.04263496398925781,-349.265625,-15.348587036132812,0.0,0.0,0.0,1,1789158322.0433638,38.99081829666667,-76.93796233,-10.012999999999998,0,1,20.593444,35.557369,148.230625,1,1,1789158322.419761,0.9256975122833827,-0.3775934934396196,0.01270812696577247,0.018594971724700118,178.57621557890647,-2.1531346000332907,-44.35449482666041,0.0021855012893472994,0.0008998917623282763,-0.0010213666782670817,0.3626499229812622,0.256051635723114,-9.707406862106323
2026-09-11T16:25:22.460,5.247250656000006,-503.884765625,-45349.62890625,-181398.515625,-345.16106445312505,0.0,0.0,0.0,0.0,0.0,0.0,-0.04263496398925781,-349.265625,-15.348587036132812,0.0,0.0,0.0,1,1789158322.0433638,38.99081829666667,-76.93796233,-10.012999999999998,0,1,20.593444,35.557369,148.230625,1,1,1789158322.449761,0.9256860999851968,-0.37762022702592984,0.012848813156963672,0.018523402374793732,178.58996128551033,-2.1650098228009407,-44.357938303033436,0.003672521812046468,0.0003944444109507185,0.00016144295580947546,0.3659841840362549,0.25095217763900757,-9.716527046756744
2026-09-11T16:25:22.493,5.280675104000011,-503.884765625,-45349.62890625,-181398.515625,-345.16106445312505,0.0,0.0,0.0,0.0,0.0,0.0,-0.04263496398925781,-349.265625,-15.348587036132812,0.0,0.0,0.0,1,1789158322.0433638,38.99081829666667,-76.93796233,-10.012999999999998,0,1,20.593444,35.557369,148.230625,1,1,1789158322.4807608,0.9256792654874306,-0.377635213931445,0.012951025655700084,0.01848820110416287,178.59815461463165,-2.174357173611249,-44.35986519807217,0.0017676694664198569,0.003011740157241415,-0.0029614746747839782,0.3623557234764099,0.2568361677360535,-9.712408253688812
2026-09-11T16:25:22.526,5.314092383999878,-503.884765625,-45349.62890625,-181398.515625,-345.16106445312505,0.0,0.0,0.0,0.0,0.0,0.0,-0.04263496398925781,-349.265625,-15.348587036132812,0.0,0.0,0.0,1,1789158322.0433638,38.99081829666667,-76.93796233,-10.012999999999998,0,1,20.593444,35.557369,148.230625,1,1,1789158322.5207608,0.9256861650676088,-0.3776187569805582,0.012890605175837825,0.018521081963060692,178.59201160060843,-2.1693426113537804,-44.357764958587836,0.0026453955472478053,-0.001970127659651199,-0.0019807741680883647,0.3636305879974365,0.2578168327522278,-9.709662391643525
2026-09-11T16:25:22.560,5.347508383999866,-503.884765625,-45349.62890625,-181398.515625,-345.16106445312505,0.0,0.0,0.0,0.0,0.0,0.0,-0.04263496398925781,-349.265625,-15.348587036132812,0.0,0.0,0.0,1,1789158322.0433638,38.99081829666667,-76.93796233,-10.012999999999998,0,1,20.593444,35.557369,148.230625,1,1,1789158322.548761,0.925702316987968,-0.37758111796529636,0.012718695967024655,0.018599850861845978,178.57612572904145,-2.1544483986386336,-44.352955384853466,0.0023458970476055783,0.0027691393912142033,-0.0010836749325632792,0.36284605598449704,0.25830716526031494,-9.711819854679108
2026-09-11T16:25:22.593,5.380927455999881,-503.884765625,-45349.62890625,-181398.515625,-345.16106445312505,0.0,0.0,0.0,0.0,0.0,0.0,-0.04263496398925781,-349.265625,-15.348587036132812,0.0,0.0,0.0,1,1789158322.0433638,38.99081829666667,-76.93796233,-10.012999999999998,0,1,20.593444,35.557369,148.230625,1,1,1789158322.580761,0.9256914565515532,-0.3776066713749798,0.012789486186918846,0.018573046159595933,178.58209269372236,-2.1608408860986823,-44.35617063912091,0.001341634596008041,0.0016107643666655666,0.0003471459882216722,0.3636305879974365,0.25438450519561767,-9.711623721675872
2026-09-11T16:25:22.626,5.414345407999917,-503.884765625,-45349.62890625,-181398.515625,-345.16106445312505,0.0,0.0,0.0,0.0,0.0,0.0,-0.04263496398925781,-349.265625,-15.348587036132812,0.0,0.0,0.0,1,1789158322.0433638,38.99081829666667,-76.93796233,-10.012999999999998,0,1,20.593444,35.557369,148.230625,1,1,1789158322.620761,0.9256752784725397,-0.37764464479721194,0.01290184519734814,0.01852952971009248,178.5916614219481,-2.1709404752364514,-44.36095747690652,0.0026396359607162244,0.0013037609512397642,0.0005152211951887261,0.3655919180297852,0.25614970222473143,-9.7128985861969
2026-09-11T16:25:22.659,5.447763423999959,-503.884765625,-45349.62890625,-181398.515625,-345.16106445312505,0.0,0.0,0.0,0.0,0.0,0.0,-0.04263496398925781,-349.265625,-15.348587036132812,0.0,0.0,0.0,1,1789158322.0433638,38.99081829666667,-76.93796233,-10.012999999999998,0,1,20.593444,35.557369,148.230625,1,1,1789158322.6497607,0.9256793454849405,-0.37763544244438496,0.012834230982800387,0.018560831540799756,178.58539196087895,-2.165105141209178,-44.35975801245367,0.0006602580560294549,0.00036808993924560414,0.00023300145514124301,0.3641209205055237,0.25762069974899293,-9.714957982730866
2026-09-11T16:25:22.693,5.481184927999948,-503.884765625,-45349.62890625,-181398.515625,-345.16106445312505,0.0,0.0,0.0,0.0,0.0,0.0,-0.04263496398925781,-349.265625,-15.348587036132812,0.0,0.0,0.0,1,1789158322.0433638,38.99081829666667,-76.93796233,-10.012999999999998,0,1,20.593444,35.557369,148.230625,1,1,1789158322.6807609,0.925669396820276,-0.3776572335854181,0.012937614752969092,0.018541840132506114,178.59193090630274,-2.1752886029229512,-44.362499823409145,0.0012048007826516857,0.0013978341979222584,8.185594191853405e-05,0.36608225053787236,0.25516903720855716,-9.717605778274537
2026-09-11T16:25:22.727,5.514609024000038,-503.884765625,-45349.62890625,-181398.515625,-345.16106445312505,0.0,0.0,0.0,0.0,0.0,0.0,-0.04263496398925781,-349.265625,-15.348587036132812,0.0,0.0,0.0,1,1789158322.0433638,38.99081829666667,-76.93796233,-10.012999999999998,0,1,20.593444,35.557369,148.230625,1,1,1789158322.7207608,0.9256745219873003,-0.37764674450302765,0.012876353822736209,0.01854225504299796,178.5892126643679,-2.1687889784396264,-44.361193163908055,0.0031337386719558183,0.0024827308609619335,-0.0016146040910199541,0.360100193939209,0.2557574362182617,-9.705347465572357
2026-09-11T16:25:22.760,5.54805449599985,-503.884765625,-45349.62890625,-181398.515625,-345.16106445312505,0.0,0.0,0.0,0.0,0.0,0.0,-0.04263496398925781,-349.265625,-15.348587036132812,0.0,0.0,0.0,1,1789158322.0433638,38.99081829666667,-76.93796233,-10.012999999999998,0,1,20.593444,35.557369,148.230625,1,1,1789158322.7477608,0.9256619542122374,-0.3776767097979135,0.012958549363080543,0.018502037688018717,178.5971083766913,-2.175817337183563,-44.364980884868665,0.0008349655141540873,-0.0006291911953439558,-0.0017835519626130053,0.3636305879974365,0.25291350767135623,-9.716134780750275
2026-09-11T16:25:22.793,5.581472575999896,-503.884765625,-45349.62890625,-181398.515625,-345.16106445312505,0.0,0.0,0.0,0.0,0.0,0.0,-0.04263496398925781,-349.265625,-15.348587036132812,0.0,0.0,0.0,1,1789158322.0433638,38.99081829666667,-76.93796233,-10.012999999999998,0,1,20.593444,35.557369,148.230625,1,1,1789158322.788761,0.9256750979072708,-0.377646852297013,0.012797298475134004,0.01856602316763726,178.5832700866564,-2.161427610366057,-44.36115821487357,0.002012539160474661,0.0007902850853030325,0.00020315632493213994,0.3633363884925842,0.2545806381988525,-9.708387527122497
2026-09-11T16:25:22.827,5.6148873919999005,-503.884765625,-45349.62890625,-181398.515625,-345.16106445312505,0.0,0.0,0.0,0.0,0.0,0.0,-0.04263496398925781,-349.265625,-15.348587036132812,0.0,0.0,0.0,1,1789158322.0433638,38.99081829666667,-76.93796233,-10.012999999999998,0,1,20.593444,35.557369,148.230625,1,1,1789158322.8207607,0.925670987543307,-0.3776570855724196,0.012805679699776763,0.018557023063295337,178.58461210845377,-2.161943260381625,-44.362441172612925,0.0020882864500112153,0.0010974630336540345,0.0013233086388621006,0.3610808589553833,0.2538941726875305,-9.710643056659698
2026-09-11T16:25:22.860,5.6483050560000265,-503.884765625,-45349.62890625,-181398.515625,-345.16106445312505,0.0,0.0,0.0,0.0,0.0,0.0,-0.04263496398925781,-349.265625,-15.348587036132812,0.0,0.0,0.0,1,1789158322.0433638,38.99081829666667,-76.93796233,-10.012999999999998,0,1,20.593444,35.557369,148.230625,1,1,1789158322.8497608,0.925671117481072,-0.3776570916700437,0.012809664569436234,0.018547664712460995,178.58577813870448,-2.1619611732833772,-44.362457977383954,0.00015934856070708227,0.00039601520727751335,-0.000848928148170042,0.36676871604919437,0.252423175163269,-9.717311578769685
2026-09-11T16:25:22.894,5.681724255999825,-503.884765625,-45349.62890625,-181398.515625,-345.16106445312505,0.0,0.0,0.0,0.0,0.0,0.0,-0.04263496398925781,-349.265625,-15.348587036132812,0.0,0.0,0.0,1,1789158322.0433638,38.99081829666667,-76.93796233,-10.012999999999998,0,1,20.593444,35.557369,148.230625,1,1,1789158322.8887608,0.9256882661664217,-0.3776177047181761,0.012650584565987243,0.018602840517490477,178.57294792051837,-2.1474053169407723,-44.35747462753323,0.002591988472136779,0.002631956512007449,0.00013945180723434693,0.359413728427887,0.25409030569076535,-9.705151332569123
2026-09-11T16:25:22.928,5.715147775999867,-503.884765625,-45349.62890625,-181398.515625,-345.16106445312505,0.0,0.0,0.0,0.0,0.0,0.0,-0.04263496398925781,-349.265625,-15.348587036132812,0.0,0.0,0.0,1,1789158322.0433638,38.99081829666667,-76.93796233,-10.012999999999998,0,1,20.593444,35.557369,148.230625,1,1,1789158322.9207609,0.9256823984371039,-0.3776301422260167,0.012738813488159952,0.018582129506679167,178.57899154554133,-2.155891992657291,-44.35905665782198,0.0018989182261698304,0.002047794811364947,0.00011117747335203878,0.3641209205055237,0.2550709707069397,-9.711623721675872
2026-09-11T16:25:22.961,5.748569023999835,-503.884765625,-45349.62890625,-181398.515625,-345.16106445312505,0.0,0.0,0.0,0.0,0.0,0.0,-0.04263496398925781,-349.265625,-15.348587036132812,0.0,0.0,0.0,1,1789158322.0433638,38.99081829666667,-76.93796233,-10.012999999999998,0,1,20.593444,35.557369,148.230625,1,1,1789158322.9487607,0.9256862915126678,-0.37762068048510267,0.0127050854180678,0.018603552886792357,178.5752361328843,-2.153224945080843,-44.35784644029422,0.0009054768159346582,-0.0006979571678725323,-0.0005590289594137838,0.36255185647964483,0.25703230073928834,-9.710839189662934
2026-09-11T16:25:22.994,5.781983584000045,-503.884765625,-45349.62890625,-181398.515625,-345.16106445312505,0.0,0.0,0.0,0.0,0.0,0.0,-0.04263496398925781,-349.265625,-15.348587036132812,0.0,0.0,0.0,1,1789158322.0433638,38.99081829666667,-76.93796233,-10.012999999999998,0,1,20.593444,35.557369,148.230625,1,1,1789158322.9897609,0.9256967661167531,-0.37759490709124377,0.012634067563015505,0.01865378451020738,178.56677143697414,-2.1478215634582547,-44.35456613915675,0.0013063789451177557,0.002152340033559407,-0.0020092230348958723,0.36451318651199344,0.25497290420532226,-9.711623721675872
2026-09-11T16:25:23.028,5.8153978559998905,-503.884765625,-45349.62890625,-181398.515625,-345.16106445312505,0.0,0.0,0.0,0.0,0.0,0.0,-0.04263496398925781,-349.265625,-15.348587036132812,0.0,0.0,0.0,1,1789158322.0433638,38.99081829666667,-76.93796233,-10.012999999999998,0,1,20.593444,35.557369,148.230625,1,1,1789158323.0197608,0.9256770884477693,-0.377639658559626,0.012847657573799163,0.01857831802656727,178.58412577990387,-2.167293291218912,-44.3602522082711,0.0006363470452771325,-0.0004846779332788253,-0.002284461457935378,0.3653957850265503,0.2531096406745911,-9.709662391643525
2026-09-11T16:25:23.061,5.8488168639999,-503.884765625,-45349.62890625,-181398.515625,-345.16106445312505,0.0,0.0,0.0,0.0,0.0,0.0,-0.04263496398925781,-349.265625,-15.348587036132812,0.0,0.0,0.0,1,1789158323.0440764,38.990818155,-76.93796164166666,-9.969000000000001,0,1,17.489124000000004,35.164899999999996,102.61690000000002,1,1,1789158323.048761,0.9256614500070339,-0.3776784011268992,0.012946777450239446,0.01850097961618406,178.59671551679438,-2.1745247690251723,-44.365190587022546,0.0015151203236562774,-0.0011398745344774967,-0.0008946557745722933,0.36284605598449704,0.2531096406745911,-9.71436958372116
2026-09-11T16:25:23.094,5.8822330559999045,-503.884765625,-45349.62890625,-181398.515625,-345.16106445312505,0.0,0.0,0.0,0.0,0.0,0.0,-0.04263496398925781,-349.265625,-15.348587036132812,0.0,0.0,0.0,1,1789158323.0440764,38.990818155,-76.93796164166666,-9.969000000000001,0,1,17.489124000000004,35.164899999999996,102.61690000000002,1,1,1789158323.0897608,0.925669598264857,-0.3776594979075673,0.012892531694879849,0.01851704930271338,178.59261860790235,-2.1694345060284577,-44.362816395241886,0.0010887363873940627,0.0011496483782886648,-0.0029087657313737495,0.3622576569747925,0.25830716526031494,-9.70603393108368
2026-09-11T16:25:23.128,5.915652575999957,-503.884765625,-45349.62890625,-181398.515625,-345.16106445312505,0.0,0.0,0.0,0.0,0.0,0.0,-0.04263496398925781,-349.265625,-15.348587036132812,0.0,0.0,0.0,1,1789158323.0440764,38.990818155,-76.93796164166666,-9.969000000000001,0,1,17.489124000000004,35.164899999999996,102.61690000000002,1,1,1789158323.1217608,0.9256703516013064,-0.3776569020011354,0.012851699418799689,0.018560666994145207,178.58621515932154,-2.1669847256430104,-44.362417253028134,0.0003406882699892931,-0.0003728023282259888,-0.0021729349187329405,0.3678474475669861,0.255365170211792,-9.710152724151612
2026-09-11T16:25:23.161,5.949069408000014,-503.884765625,-45349.62890625,-181398.515625,-345.16106445312505,0.0,0.0,0.0,0.0,0.0,0.0,-0.04263496398925781,-349.265625,-15.348587036132812,0.0,0.0,0.0,1,1789158323.0440764,38.990818155,-76.93796164166666,-9.969000000000001,0,1,17.489124000000004,35.164899999999996,102.61690000000002,1,1,1789158323.1497607,0.9256610788564101,-0.37767742411317856,0.012942161165438297,0.01854267699090254,178.59208615387183,-2.1758380362808505,-44.36499895656667,0.0014599679192932567,-0.0012449433554475554,-0.0005457644570986269,0.3655919180297852,0.2520309091567993,-9.713585051708222
2026-09-11T16:25:23.195,5.9824845440000445,-503.884765625,-45349.62890625,-181398.515625,-345.16106445312505,0.0,0.0,0.0,0.0,0.0,0.0,-0.04263496398925781,-349.265625,-15.348587036132812,0.0,0.0,0.0,1,1789158323.0440764,38.990818155,-76.93796164166666,-9.969000000000001,0,1,17.489124000000004,35.164899999999996,102.61690000000002,1,1,1789158323.1887608,0.9256569782201884,-0.37768678544990886,0.012933553900775949,0.018562703258951006,178.58960949091244,-2.1758055600044153,-44.36612337102742,4.188790204786391e-06,-0.0017283995582499847,-0.00124965574442794,0.36588611753463746,0.25271737466812133,-9.716919312763213
2026-09-11T16:25:23.228,6.015898623999874,-503.884765625,-45349.62890625,-181398.515625,-345.16106445312505,0.0,0.0,0.0,0.0,0.0,0.0,-0.04263496398925781,-349.265625,-15.348587036132812,0.0,0.0,0.0,1,1789158323.0440764,38.990818155,-76.93796164166666,-9.969000000000001,0,1,17.489124000000004,35.164899999999996,102.61690000000002,1,1,1789158323.2207608,0.9256728797766581,-0.37765082179915016,0.01281966639723752,0.018580435782795002,178.58271643700135,-2.1644313188861823,-44.3616279200997,0.0008478809506188452,-0.0011280062955639353,-0.0021624629432209744,0.35764853139877323,0.2513444436454773,-9.708975926132203
2026-09-11T16:25:23.262,6.049318112000037,-503.884765625,-45349.62890625,-181398.515625,-345.16106445312505,0.0,0.0,0.0,0.0,0.0,0.0,-0.04263496398925781,-349.265625,-15.348587036132812,0.0,0.0,0.0,1,1789158323.0440764,38.990818155,-76.93796164166666,-9.969000000000001,0,1,17.489124000000004,35.164899999999996,102.61690000000002,1,1,1789158323.2497609,0.925685687369051,-0.3776203782690401,0.012705301852723415,0.018639566005288908,178.57142087013236,-2.154805860332151,-44.35774909527809,0.0021914354088040803,-0.0012709487613022706,0.0002731440279371126,0.3633363884925842,0.25644390172958376,-9.716134780750275
2026-09-11T16:25:23.295,6.082734527999946,-503.884765625,-45349.62890625,-181398.515625,-345.16106445312505,0.0,0.0,0.0,0.0,0.0,0.0,-0.04263496398925781,-349.265625,-15.348587036132812,0.0,0.0,0.0,1,1789158323.0440764,38.990818155,-76.93796164166666,-9.969000000000001,0,1,17.489124000000004,35.164899999999996,102.61690000000002,1,1,1789158323.2897608,0.9256858848834246,-0.3776188394886227,0.012698826626590257,0.01866532595923869,178.56840203125006,-2.1552309800715888,-44.357515137916714,0.0006599089901790561,0.00033440508468211356,0.0002654645792283375,0.36186539096832276,0.2568361677360535,-9.713486985206604
2026-09-11T16:25:23.328,6.116152895999903,-503.884765625,-45349.62890625,-181398.515625,-345.16106445312505,0.0,0.0,0.0,0.0,0.0,0.0,-0.04263496398925781,-349.265625,-15.348587036132812,0.0,0.0,0.0,1,1789158323.0440764,38.990818155,-76.93796164166666,-9.969000000000001,0,1,17.489124000000004,35.164899999999996,102.61690000000002,1,1,1789158323.3207607,0.9256720371537528,-0.3776524000181051,0.012781748228370336,0.018616425661568452,178.57725875449236,-2.16196703568224,-44.36175939194925,0.0009173450548482197,-0.0028797932657906437,-0.000391826417072727,0.36441512001037596,0.25340384017944334,-9.711917921180724
2026-09-11T16:25:23.362,6.149571680000008,-503.884765625,-45349.62890625,-181398.515625,-345.16106445312505,0.0,0.0,0.0,0.0,0.0,0.0,-0.04263496398925781,-349.265625,-15.348587036132812,0.0,0.0,0.0,1,1789158323.0440764,38.990818155,-76.93796164166666,-9.969000000000001,0,1,17.489124000000004,35.164899999999996,102.61690000000002,1,1,1789158323.3487608,0.9256628256944814,-0.37767389639897453,0.012886236482048815,0.018566260136420123,178.5871549021302,-2.1709181218975777,-44.36451595634178,0.003060434843372057,0.0007827801695194568,-0.002403667445846591,0.3623557234764099,0.25340384017944334,-9.716134780750275
2026-09-11T16:25:23.395,6.182991167999944,-503.884765625,-45349.62890625,-181398.515625,-345.16106445312505,0.0,0.0,0.0,0.0,0.0,0.0,-0.04263496398925781,-349.265625,-15.348587036132812,0.0,0.0,0.0,1,1789158323.0440764,38.990818155,-76.93796164166666,-9.969000000000001,0,1,17.489124000000004,35.164899999999996,102.61690000000002,1,1,1789158323.3887608,0.9256598748292321,-0.37768136097337485,0.012876560612997797,0.018568249546188235,178.58654266038846,-2.1699887321379445,-44.36543579180208,0.001707979206001651,-0.0003710569989739945,0.00016598081186466074,0.36186539096832276,0.25703230073928834,-9.708387527122497
2026-09-11T16:25:23.429,6.21640940799989,-503.884765625,-45349.62890625,-181398.515625,-345.16106445312505,0.0,0.0,0.0,0.0,0.0,0.0,-0.04263496398925781,-349.265625,-15.348587036132812,0.0,0.0,0.0,1,1789158323.0440764,38.990818155,-76.93796164166666,-9.969000000000001,0,1,17.489124000000004,35.164899999999996,102.61690000000002,1,1,1789158323.4207609,0.9256648200647599,-0.37767208176487344,0.012808404663931175,0.018557594667067034,178.5847043082052,-2.1622801230085953,-44.36429730832336,0.0013252285010392944,-0.0005881759579220891,-0.0008428194957880617,0.3636305879974365,0.25291350767135623,-9.717703844776153
2026-09-11T16:25:23.462,6.2498356159999275,-503.884765625,-45349.62890625,-181398.515625,-345.16106445312505,0.0,0.0,0.0,0.0,0.0,0.0,-0.04263496398925781,-349.265625,-15.348587036132812,0.0,0.0,0.0,1,1789158323.0440764,38.990818155,-76.93796164166666,-9.969000000000001,0,1,17.489124000000004,35.164899999999996,102.61690000000002,1,1,1789158323.449761,0.9256793109034933,-0.3776372768758007,0.012700121676134187,0.01861739478216825,178.57359033355982,-2.153322697112927,-44.35987787891799,0.0017643533408410678,0.0009677850702308557,0.0008627162492607971,0.3674551815605164,0.25428643869400025,-9.707504928607941
2026-09-11T16:25:23.496,6.283270111999855,-503.884765625,-45349.62890625,-181398.515625,-345.16106445312505,0.0,0.0,0.0,0.0,0.0,0.0,-0.04263496398925781,-349.265625,-15.348587036132812,0.0,0.0,0.0,1,1789158323.0440764,38.990818155,-76.93796164166666,-9.969000000000001,0,1,17.489124000000004,35.164899999999996,102.61690000000002,1,1,1789158323.488761,0.9256806449461719,-0.3776344599522651,0.012674289750971027,0.018625804892914842,178.57157362068952,-2.1509407593061107,-44.3595129599017,0.0016111134325159657,-0.0022753857458250077,-0.0002755874888899046,0.36804358057022096,0.2581110322570801,-9.719076775798797
2026-09-11T16:25:23.529,6.3166973439999765,-503.884765625,-45349.62890625,-181398.515625,-345.16106445312505,0.0,0.0,0.0,0.0,0.0,0.0,-0.04263496398925781,-349.265625,-15.348587036132812,0.0,0.0,0.0,1,1789158323.0440764,38.990818155,-76.93796164166666,-9.969000000000001,0,1,17.489124000000004,35.164899999999996,102.61690000000002,1,1,1789158323.5197608,0.9256809436523445,-0.37763234719253486,0.012678597786271078,0.018650846386578768,178.56909609838073,-2.1524783762598543,-44.35921007688279,0.0024822072621863357,-1.3439035240356336e-05,-0.000662352451131848,0.3653957850265503,0.25291350767135623,-9.703190002536774
2026-09-11T16:25:23.562,6.35012387200004,-503.884765625,-45349.62890625,-181398.515625,-345.16106445312505,0.0,0.0,0.0,0.0,0.0,0.0,-0.04263496398925781,-349.265625,-15.348587036132812,0.0,0.0,0.0,1,1789158323.0440764,38.990818155,-76.93796164166666,-9.969000000000001,0,1,17.489124000000004,35.164899999999996,102.61690000000002,1,1,1789158323.548761,0.9256962117641258,-0.37759570646545026,0.012587098085824214,0.018696816471853513,178.56017297309398,-2.1446998617804356,-44.35459050486393,0.001852317935141582,0.002768266726588206,-0.002943148717638038,0.36588611753463746,0.25634583522796633,-9.710839189662934
2026-09-11T16:25:23.596,6.38354316799996,-503.884765625,-45349.62890625,-181398.515625,-345.16106445312505,0.0,0.0,0.0,0.0,0.0,0.0,-0.04263496398925781,-349.265625,-15.348587036132812,0.0,0.0,0.0,1,1789158323.0440764,38.990818155,-76.93796164166666,-9.969000000000001,0,1,17.489124000000004,35.164899999999996,102.61690000000002,1,1,1789158323.5887609,0.9256872185462361,-0.3776169401322246,0.012686842983398653,0.018645749124760965,178.569958069232,-2.1531090593055855,-44.35731158505497,0.003009122163363424,-0.00031555552876057474,-0.00020804324683772408,0.36215959047317503,0.2526193081665039,-9.709466258640289
2026-09-11T16:25:23.629,6.416962143999854,-503.884765625,-45349.62890625,-181398.515625,-345.16106445312505,0.0,0.0,0.0,0.0,0.0,0.0,-0.04263496398925781,-349.265625,-15.348587036132812,0.0,0.0,0.0,1,1789158323.0440764,38.990818155,-76.93796164166666,-9.969000000000001,0,1,17.489124000000004,35.164899999999996,102.61690000000002,1,1,1789158323.6217608,0.9256768525277683,-0.3776415304307845,0.012776000814901869,0.018601424444304834,178.5785776335828,-2.1606911669603655,-44.36043804834472,0.0027742008460449868,-0.00010175269539126941,0.0008459610884416515,0.36451318651199344,0.2538941726875305,-9.712800519695282
2026-09-11T16:25:23.663,6.450379039999916,-503.884765625,-45349.62890625,-181398.515625,-345.16106445312505,0.0,0.0,0.0,0.0,0.0,0.0,-0.04263496398925781,-349.265625,-15.348587036132812,0.0,0.0,0.0,1,1789158323.0440764,38.990818155,-76.93796164166666,-9.969000000000001,0,1,17.489124000000004,35.164899999999996,102.61690000000002,1,1,1789158323.6487608,0.9256655338167178,-0.37766918499527397,0.012872068649805737,0.018536883704961708,178.5896502318174,-2.168135927524805,-44.36398022797563,0.0014069099100326291,0.001755975760431495,-0.00037332592700158707,0.36088472595214843,0.2526193081665039,-9.710152724151612
2026-09-11T16:25:23.696,6.483808927999917,-503.884765625,-45349.62890625,-181398.515625,-345.16106445312505,0.0,0.0,0.0,0.0,0.0,0.0,-0.04263496398925781,-349.265625,-15.348587036132812,0.0,0.0,0.0,1,1789158323.0440764,38.990818155,-76.93796164166666,-9.969000000000001,0,1,17.489124000000004,35.164899999999996,102.61690000000002,1,1,1789158323.6887608,0.9256527998597135,-0.37769803895052373,0.012988517269433914,0.01850361867158334,178.59828695396595,-2.179098516551205,-44.36762311032454,0.002918714108110117,0.0029075440008973536,-0.0018053685782629346,0.3646112530136108,0.2578168327522278,-9.71633091375351
2026-09-11T16:25:23.729,6.517225823999979,-503.884765625,-45349.62890625,-181398.515625,-345.16106445312505,0.0,0.0,0.0,0.0,0.0,0.0,-0.04263496398925781,-349.265625,-15.348587036132812,0.0,0.0,0.0,1,1789158323.0440764,38.990818155,-76.93796164166666,-9.969000000000001,0,1,17.489124000000004,35.164899999999996,102.61690000000002,1,1,1789158323.7207608,0.925650856094982,-0.3777022609793343,0.012958588352348003,0.01853563189212833,178.59360316427035,-2.177314253053054,-44.3680881649927,0.002245715148541104,0.0019549432951588485,-0.0010070549784007281,0.36686678255081173,0.25516903720855716,-9.711623721675872
2026-09-11T16:25:23.763,6.550644415999841,-503.884765625,-45349.62890625,-181398.515625,-345.16106445312505,0.0,0.0,0.0,0.0,0.0,0.0,-0.04263496398925781,-349.265625,-15.348587036132812,0.0,0.0,0.0,1,1789158323.0440764,38.990818155,-76.93796164166666,-9.969000000000001,0,1,17.489124000000004,35.164899999999996,102.61690000000002,1,1,1789158323.748761,0.9256431769678056,-0.3777197387998477,0.013010048937451304,0.01852691233227689,178.59679621811767,-2.1824247288648375,-44.370273634075325,0.0004258603374866164,-0.00022392574303087246,-0.0008360127117052838,0.3691223120880127,0.25301157417297365,-9.716919312763213
2026-09-11T16:25:23.796,6.584063455999967,-503.884765625,-45349.62890625,-181398.515625,-345.16106445312505,0.0,0.0,0.0,0.0,0.0,0.0,-0.04263496398925781,-349.265625,-15.348587036132812,0.0,0.0,0.0,1,1789158323.0440764,38.990818155,-76.93796164166666,-9.969000000000001,0,1,17.489124000000004,35.164899999999996,102.61690000000002,1,1,1789158323.788761,0.9256290557769701,-0.37775277459758133,0.013121180661753662,0.018480449218167088,178.60661526631816,-2.192257376460862,-44.37445854423109,0.002517462913076621,0.002294584367596945,-0.0005653121447209634,0.36735711505889895,0.251736709651947,-9.714663783226012
