timestamp,time_s,drive_pos_turns,drive_encoder_count,drive_wheel_angle_deg,drive_distance_m,drive_distance_since_start_m,drive_velocity_turns_s,drive_velocity_mps,drive_velocity_mph,drive_acceleration_mps2,drive_iq_A,steer_pos_turns,steer_encoder_count,steer_angle_deg,steer_velocity_turns_s,steer_velocity_deg_s,steer_acceleration_deg_s2,gps_received,gps_ros_stamp_s,gps_latitude_deg,gps_longitude_deg,gps_altitude_m,gps_status,gps_service,gps_cov_x_m2,gps_cov_y_m2,gps_cov_z_m2,gps_covariance_type,imu_received,imu_ros_stamp_s,imu_qx,imu_qy,imu_qz,imu_qw,imu_roll_deg,imu_pitch_deg,imu_yaw_deg,imu_gyro_x_rad_s,imu_gyro_y_rad_s,imu_gyro_z_rad_s,imu_accel_x_mps2,imu_accel_y_mps2,imu_accel_z_mps2
2026-09-11T16:31:30.211,1.0528000075282762e-05,-1315.922607421875,-118433.03466796875,-473732.138671875,-901.4069860839844,-0.0020068359375,-0.6008299589157104,-0.41156852185726167,-0.9206525632096931,0.0,0.0,-0.1372833251953125,-1124.625,-49.4219970703125,0.0762939527630806,27.465822994709015,5513.418693906897,0,nan,nan,nan,nan,-999,-999,nan,nan,nan,-999,1,1789158690.20108,0.6063239639793528,0.7782266658042797,0.15234057940420473,-0.05938733200194902,170.10593460944168,-16.09132008474862,105.5569713013666,0.002506641871714256,-0.018237468952864346,-0.03310627791645444,-0.12022953098297119,-0.0641354920578003,-9.566877565288545
2026-09-11T16:31:30.245,0.03343878400005451,-1315.9339599609375,-118434.05639648438,-473736.2255859375,-901.4147625732422,-0.009783325195312501,-0.3941790759563446,-0.2700126670300961,-0.6040011341940225,4.234616811216641,0.0,-0.13345718383789062,-1093.28125,-48.044586181640625,0.0762939602136612,27.46582567691803,8.023777892852815e-05,0,nan,nan,nan,nan,-999,-999,nan,nan,nan,-999,1,1789158690.24108,0.6065054170556297,0.7783462864278576,0.15103025185965202,-0.059313577782412016,170.2278971762411,-15.993859728688733,105.52302586584845,0.0034126422864245126,-0.0012356931104119853,-0.031125154682515675,-0.1816191609954834,0.2463430520629883,-9.657098746776581
2026-09-11T16:31:30.279,0.06685932799996408,-1315.9483642578125,-118435.35278320312,-473741.4111328125,-901.4246295166016,-0.019650268554687503,-0.4462760388851166,-0.3056990866363049,-0.6838293813446327,-1.0677988846113753,0.0,-0.1307525634765625,-1071.125,-47.0709228515625,0.0762939602136612,27.46582567691803,0.0,0,nan,nan,nan,nan,-999,-999,nan,nan,nan,-999,1,1789158690.2690802,0.6065849702719135,0.7783427728707438,0.150670644794316,-0.05946056304281635,170.27370863225946,-15.982902531598222,105.50805578281238,0.005295678016401195,0.006834360284959396,-0.022023611699215646,0.2902768447875977,0.15102241249084472,-9.919328572101593
2026-09-11T16:31:30.312,0.10027395199995226,-1315.9632568359375,-118436.69311523438,-473746.7724609375,-901.4348309326173,-0.029851684570312502,-0.4462760388851166,-0.3056990866363049,-0.6838293813446327,0.0,0.0,-0.1289196014404297,-1056.109375,-46.41105651855469,0.061035171151161194,21.97266161441803,-164.3940109127651,0,nan,nan,nan,nan,-999,-999,nan,nan,nan,-999,1,1789158690.30108,0.606630302225825,0.7781932124249984,0.15091095347714553,-0.06033974376548516,170.3138012093629,-16.081610666402355,105.4960861532705,0.0006839945338565778,0.026233694920876367,-0.028534038875004896,0.4481639123916626,0.07168661268234253,-9.853918215522766
2026-09-11T16:31:30.346,0.13369833599995218,-1315.9803466796875,-118438.23120117188,-473752.9248046875,-901.446537475586,-0.041558227539062506,-0.4987974464893341,-0.3416762508451939,-0.7643080056486969,-1.0763747870084623,0.0,-0.12767791748046875,-1045.9375,-45.96405029296875,0.061035171151161194,21.97266161441803,0.0,0,nan,nan,nan,nan,-999,-999,nan,nan,nan,-999,1,1789158690.3410802,0.6067633277552523,0.7780275574700249,0.1507121130131325,-0.06162177293551296,170.42544320119467,-16.18740726278461,105.46522880125796,0.0038543851201042773,0.03396532897428605,-0.016528791615161898,0.5782981600379944,-0.16994924730300906,-9.88500529653549
2026-09-11T16:31:30.379,0.16711663999990378,-1315.9896240234375,-118439.06616210938,-473756.2646484375,-901.4528924560548,-0.047913208007812506,-0.2152896225452423,-0.147473391443491,-0.32988858143228983,5.811272151991439,0.0,-0.1253662109375,-1027.0,-45.1318359375,0.0915527492761612,32.95898973941803,328.75181592147555,1,1789158690.3553808,38.990780281666666,-76.93789827,-5.856999999999999,0,1,12.327121,14.2884,83.612736,1,1,1789158690.36908,0.6069734036622082,0.7778907462500114,0.1501327028707975,-0.06268529073094514,170.55925276987756,-16.246939422242395,105.42207542497698,0.0015165165870578729,0.03070016700965506,-0.020092230348958722,0.5248519166564941,-0.2935130393409729,-9.659256209812165
2026-09-11T16:31:30.412,0.20053520000010394,-1315.996337890625,-118439.67041015625,-473758.681640625,-901.4574914550782,-0.05251220703125,-0.2152896225452423,-0.147473391443491,-0.32988858143228983,0.0,0.0,-0.12188529968261719,-998.484375,-43.87870788574219,0.0915527492761612,32.95898973941803,0.0,1,1789158690.3553808,38.990780281666666,-76.93789827,-5.856999999999999,0,1,12.327121,14.2884,83.612736,1,1,1789158690.4010801,0.6073165283961683,0.7777032061877407,0.1494124512540424,-0.06340565300028814,170.68502099590398,-16.266343906597033,105.3608043789128,0.0010278243964994605,0.00974766387238833,-0.013854947201106587,0.2321234093284607,-0.15798513410568238,-9.52578770111084
2026-09-11T16:31:30.446,0.23395212800005538,-1316.0035400390625,-118440.31860351562,-473761.2744140625,-901.4624249267579,-0.0574456787109375,-0.2152896225452423,-0.147473391443491,-0.32988858143228983,0.0,0.0,-0.11756134033203125,-963.0625,-42.32208251953125,0.1220703274011612,43.94531786441803,328.76535284799263,1,1789158690.3553808,38.990780281666666,-76.93789827,-5.856999999999999,0,1,12.327121,14.2884,83.612736,1,1,1789158690.44108,0.6078158997361988,0.7774129787640526,0.14876022003002434,-0.06371255303075372,170.77855911827592,-16.254211735043665,105.27990609163318,0.0018428931571808126,-0.004882384049528937,-0.008913047424084643,0.314891536693573,-0.04442412523269654,-9.663276936378479
2026-09-11T16:31:30.479,0.2673719039999014,-1316.017578125,-118441.58203125,-473766.328125,-901.4720410156251,-0.067061767578125,-0.3975203335285187,-0.2723014284670353,-0.6091209477161663,-3.735154808461895,0.0,-0.11292076110839844,-925.046875,-40.65147399902344,0.1831054836511612,65.91797411441803,657.4746715867046,1,1789158690.3553808,38.990780281666666,-76.93789827,-5.856999999999999,0,1,12.327121,14.2884,83.612736,1,1,1789158690.4690802,0.6080969525064831,0.7771749480183103,0.14897537374690684,-0.06343133722407143,170.74445178503146,-16.246921725698815,105.24146946797269,0.0003926990816987241,-0.004630882104316555,-0.008381245601001971,0.2526193081665039,0.1013026961708069,-9.74114173866272
2026-09-11T16:31:30.512,0.30079004799995346,-1316.03076171875,-118442.7685546875,-473771.07421875,-901.4810717773438,-0.076092529296875,-0.3975203335285187,-0.2723014284670353,-0.6091209477161663,0.0,0.0,-0.10872077941894531,-890.640625,-39.13948059082031,0.045776382088661194,16.47949755191803,-1479.3902546599534,1,1789158690.3553808,38.990780281666666,-76.93789827,-5.856999999999999,0,1,12.327121,14.2884,83.612736,1,1,1789158690.50108,0.6084707555831907,0.7768724814538733,0.14901485754847246,-0.06345911588992283,170.75063772859258,-16.25672208659354,105.18555874456834,0.0023406610598495953,-0.0045003314762673795,-0.007420616380704291,0.43100227460861207,-0.007158854618072509,-9.729962157478331
2026-09-11T16:31:30.547,0.3342111360000217,-1316.03125,-118442.8125,-473771.25,-901.4814062500001,-0.076427001953125,-0.08188369870185852,-0.05609033361077309,-0.12547050288737704,6.469301503763749,0.0,-0.10811424255371094,-885.671875,-38.92112731933594,0.03051757998764515,10.986328795552254,-164.36235577832042,1,1789158690.3553808,38.990780281666666,-76.93789827,-5.856999999999999,0,1,12.327121,14.2884,83.612736,1,1,1789158690.54108,0.6088950395775616,0.7764893861868694,0.14921701385881617,-0.0636030399590825,170.75085899972126,-16.289402065188586,105.12200170559818,0.002928313418996086,0.005930279732426333,-0.010124829523744305,0.3003776944541931,0.09787036861419678,-9.721528438339233
2026-09-11T16:31:30.579,0.3676295039999786,-1316.03369140625,-118443.0322265625,-473772.12890625,-901.4830786132814,-0.07809936523437501,-0.08188369870185852,-0.05609033361077309,-0.12547050288737704,0.0,0.0,-0.107757568359375,-882.75,-38.792724609375,0.0,0.0,-328.751206389445,1,1789158690.3553808,38.990780281666666,-76.93789827,-5.856999999999999,0,1,12.327121,14.2884,83.612736,1,1,1789158690.56908,0.6090864265899698,0.7762705011968398,0.1497342025469717,-0.0632258056737169,170.6797105986326,-16.29379702148068,105.09943889661623,0.001334304213149665,0.001811651763570114,-0.012191124825180392,0.32038326078414914,0.2513444436454773,-9.718684509792327
2026-09-11T16:31:30.612,0.4010590079999474,-1316.036376953125,-118443.27392578125,-473773.095703125,-901.4849182128906,-0.07993896484375,-0.08188369870185852,-0.05609033361077309,-0.12547050288737704,0.0,0.0,-0.107757568359375,-882.75,-38.792724609375,0.0,0.0,0.0,1,1789158690.3553808,38.990780281666666,-76.93789827,-5.856999999999999,0,1,12.327121,14.2884,83.612736,1,1,1789158690.6010802,0.609229071203974,0.7760832813602562,0.15040262037345115,-0.06255981919603379,170.572908725123,-16.281844425312727,105.08736682153588,0.0022530455313994804,0.006074618461566265,-0.013666975240666797,0.14337322536468505,0.21535403755187987,-9.74418180021286
2026-09-11T16:31:30.646,0.43447955200008437,-1316.0391845703125,-118443.52661132812,-473774.1064453125,-901.4868414306642,-0.0818621826171875,-0.08188369870185852,-0.05609033361077309,-0.12547050288737704,0.0,0.0,-0.107757568359375,-882.75,-38.792724609375,0.0,0.0,0.0,1,1789158690.3553808,38.990780281666666,-76.93789827,-5.856999999999999,0,1,12.327121,14.2884,83.612736,1,1,1789158690.6400802,0.6095696203140555,0.7757910589329972,0.1507011136858599,-0.06214728637389337,170.52295966731037,-16.269292238809665,105.04142891450972,0.002571219054038046,-0.0012812462038890374,-0.011294898254281304,0.22849494876861573,0.2110391114807129,-9.77968187379837
2026-09-11T16:31:30.680,0.4678928000000724,-1316.0418701171875,-118443.76831054688,-473775.0732421875,-901.4886810302735,-0.08370178222656251,-0.08188369870185852,-0.05609033361077309,-0.12547050288737704,0.0,0.0,-0.10759544372558594,-881.421875,-38.73435974121094,0.015258789993822575,5.493164397776127,164.40079090120472,1,1789158690.3553808,38.990780281666666,-76.93789827,-5.856999999999999,0,1,12.327121,14.2884,83.612736,1,1,1789158690.66908,0.6098163363254373,0.7755983580843884,0.15095140737725649,-0.06152150435618254,170.4604440140068,-16.232586737751237,105.01094114442857,0.0015849334937360507,-0.006174451294780339,-0.007923445738203857,0.2600723622894287,0.24320492401123045,-9.695246615905761
2026-09-11T16:31:30.713,0.5013078080000923,-1316.060546875,-118445.44921875,-473781.796875,-901.5014746093751,-0.096495361328125,-0.5210168957710266,-0.35689657360315324,-0.7983548980027578,-9.002129821192936,0.0,-0.10591697692871094,-867.671875,-38.13011169433594,0.015258795581758022,5.493166409432888,6.0202193013637236e-05,1,1789158690.3553808,38.990780281666666,-76.93789827,-5.856999999999999,0,1,12.327121,14.2884,83.612736,1,1,1789158690.7130802,0.6102791262384758,0.775193848088162,0.15122434615106325,-0.06136027293822517,170.43325712477727,-16.24291741426247,104.94443164975876,0.0012400564335419712,-0.006999642965123259,-0.008240397530366027,0.27419393852233886,0.14464808988571165,-9.75026192331314
2026-09-11T16:31:30.746,0.5347315520000393,-1316.0726318359375,-118446.53686523438,-473786.1474609375,-901.5097528076172,-0.10477355957031251,-0.28658056259155273,-0.19630768537521365,-0.43912778582501216,4.80463493940698,0.0,-0.1055450439453125,-864.625,-37.9962158203125,0.015258789993822575,5.493164397776127,-6.0186457901682876e-05,1,1789158690.3553808,38.990780281666666,-76.93789827,-5.856999999999999,0,1,12.327121,14.2884,83.612736,1,1,1789158690.74108,0.6106103696782643,0.7749695413295206,0.15112359530480804,-0.061146098771992126,170.43456385042606,-16.220101575652738,104.89595239249945,0.0007108726043372905,-0.011514460674182192,-0.007666184206459894,0.24908891410827635,0.12984004814147948,-9.67622171459198
2026-09-11T16:31:30.780,0.5681497600000966,-1316.072265625,-118446.50390625,-473786.015625,-901.5095019531251,-0.10452270507812501,-0.05214422941207886,-0.03571879714727402,-0.07990067364726643,4.805430866540302,0.0,-0.10437583923339844,-855.046875,-37.57530212402344,0.015258791856467724,5.493165068328381,2.006547609381071e-05,1,1789158690.3553808,38.990780281666666,-76.93789827,-5.856999999999999,0,1,12.327121,14.2884,83.612736,1,1,1789158690.76808,0.6109202093499642,0.7747490464811805,0.1511173976560104,-0.06086004362447511,170.42144484856692,-16.197181447775556,104.85176054221179,0.0019020598188234203,-0.01031419774758569,-0.006864379948093698,0.22496455471038818,0.19858466577529907,-9.709858524646759
2026-09-11T16:31:30.814,0.6015647680001166,-1316.0721435546875,-118446.49291992188,-473785.9716796875,-901.509418334961,-0.1044390869140625,0.0,0.0,0.0,1.0689447432498802,0.0,-0.10372352600097656,-849.703125,-37.34046936035156,0.0610351599752903,21.972657591104507,493.1763752014151,1,1789158690.3553808,38.990780281666666,-76.93789827,-5.856999999999999,0,1,12.327121,14.2884,83.612736,1,1,1789158690.81308,0.611417791153516,0.7743454233395449,0.15135700109291259,-0.06040288266479139,170.37713077178148,-16.17846288178345,104.78209583067466,0.0005106833391335409,-0.010170731683071756,-0.007603526886313296,0.2752726700401306,0.177892633934021,-9.716232847251892
2026-09-11T16:31:30.847,0.6350110079999922,-1316.0721435546875,-118446.49291992188,-473785.9716796875,-901.509418334961,-0.1044390869140625,0.0,0.0,0.0,0.0,0.0,-0.103240966796875,-845.75,-37.166748046875,0.0,0.0,-656.9544914820387,1,1789158690.3553808,38.990780281666666,-76.93789827,-5.856999999999999,0,1,12.327121,14.2884,83.612736,1,1,1789158690.8410802,0.6117429870659582,0.7741035690882182,0.15137493107172603,-0.060164876327732944,170.3654521681658,-16.161919000525568,104.73529521043316,0.000592539281052075,-0.013799969329668765,-0.006602755093219748,0.2616414263153076,0.20907778144836425,-9.697502145442963
2026-09-11T16:31:30.880,0.6684331199999178,-1316.0721435546875,-118446.49291992188,-473785.9716796875,-901.509418334961,-0.1044390869140625,0.0,0.0,0.0,0.0,0.0,-0.10297966003417969,-843.609375,-37.07267761230469,0.015258789993822575,5.493164397776127,164.35718956923944,1,1789158690.3553808,38.990780281666666,-76.93789827,-5.856999999999999,0,1,12.327121,14.2884,83.612736,1,1,1789158690.86908,0.612082767740093,0.7738574374768581,0.1513566705004243,-0.05992086608522856,170.35702998832423,-16.142427595247426,104.68613692862553,0.003171263250873697,-0.010103711039795174,-0.005003858965467743,0.24928504711151125,0.17102797882080079,-9.748300593280792
2026-09-11T16:31:30.914,0.7018614720000187,-1316.0721435546875,-118446.49291992188,-473785.9716796875,-901.509418334961,-0.1044390869140625,0.0,0.0,0.0,0.0,0.0,-0.10225677490234375,-837.6875,-36.81243896484375,0.015258789993822575,5.493164397776127,0.0,1,1789158690.3553808,38.990780281666666,-76.93789827,-5.856999999999999,0,1,12.327121,14.2884,83.612736,1,1,1789158690.91208,0.6126762140905939,0.7734740370732717,0.15099221534324248,-0.05972538461099814,170.38976831006346,-16.10573056659704,104.59664003826076,-1.1693705988362009e-05,-0.01228711793404008,-0.003648087202518548,0.22025736263275147,0.12709418609619139,-9.712408253688812
2026-09-11T16:31:30.947,0.7353126079999583,-1316.0733642578125,-118446.60278320312,-473786.4111328125,-901.5102545166017,-0.10527526855468751,-0.026048483327031136,-0.01784321107901633,-0.03991412642943878,-0.5334112144666333,0.0,-0.10149002075195312,-831.40625,-36.536407470703125,0.015258791856467724,5.493165068328381,2.0045724417979534e-05,1,1789158690.3553808,38.990780281666666,-76.93789827,-5.856999999999999,0,1,12.327121,14.2884,83.612736,1,1,1789158690.94108,0.6130854670381577,0.7732029359025657,0.15080942610096887,-0.05949745387286277,170.3992819899515,-16.076785184913227,104.53600350135038,0.0018622663118779497,-0.011066085589344847,-0.003263242102453798,0.23947839694976808,0.1596522646331787,-9.704955199565887
2026-09-11T16:31:30.981,0.7687304959999892,-1316.07421875,-118446.6796875,-473786.71875,-901.5108398437501,-0.105860595703125,-0.026048483327031136,-0.01784321107901633,-0.03991412642943878,0.0,0.0,-0.10066795349121094,-824.671875,-36.24046325683594,0.0305175818502903,10.986329466104507,164.3779642139878,1,1789158690.3553808,38.990780281666666,-76.93789827,-5.856999999999999,0,1,12.327121,14.2884,83.612736,1,1,1789158690.9690802,0.6134857378436154,0.7729526796888186,0.1506250202850175,-0.059088981108895336,170.39588418218446,-16.03106962414895,104.47809476427075,0.0014131930953398086,-0.006490355889391313,-0.0006391395720803235,0.23908613094329834,0.19936919778823853,-9.74526053173065
2026-09-11T16:31:31.014,0.8021471039999142,-1316.0750732421875,-118446.75659179688,-473787.0263671875,-901.5114251708985,-0.10644592285156251,-0.026048483327031136,-0.01784321107901633,-0.03991412642943878,0.0,0.0,-0.09976959228515625,-817.3125,-35.91705322265625,0.015258789993822575,5.493164397776127,-164.3842806648932,1,1789158690.3553808,38.990780281666666,-76.93789827,-5.856999999999999,0,1,12.327121,14.2884,83.612736,1,1,1789158691.0090802,0.613951530832652,0.7724949716813465,0.15111250197603535,-0.058991933870841846,170.3532459645758,-16.062958083771697,104.41147112366669,0.0016568410589182171,-0.006097133208916991,-0.0017941984710501708,0.25222704216003416,0.24595078605651857,-9.724960765895844
2026-09-11T16:31:31.047,0.8355660160000298,-1316.075927734375,-118446.83349609375,-473787.333984375,-901.512010498047,-0.10703125000000001,-0.026048483327031136,-0.01784321107901633,-0.03991412642943878,0.0,0.0,-0.09922027587890625,-812.8125,-35.71929931640625,0.03051757998764515,10.986328795552254,164.3729274536863,1,1789158690.3553808,38.990780281666666,-76.93789827,-5.856999999999999,0,1,12.327121,14.2884,83.612736,1,1,1789158691.04108,0.6143068552724388,0.7721410530745255,0.15156318410822894,-0.05876974515194791,170.30283415662993,-16.079428197888856,104.36217933704282,0.002678382270110498,-0.003935542930322013,-0.0027736772472693886,0.2497753796195984,0.3093998126029968,-9.737121012096404
2026-09-11T16:31:31.080,0.8689839359999496,-1316.0767822265625,-118446.91040039062,-473787.6416015625,-901.5125958251954,-0.1076165771484375,-0.026048483327031136,-0.01784321107901633,-0.03991412642943878,0.0,0.0,-0.099090576171875,-811.75,-35.672607421875,0.0,0.0,-328.7556136222305,1,1789158690.3553808,38.990780281666666,-76.93789827,-5.856999999999999,0,1,12.327121,14.2884,83.612736,1,1,1789158691.06908,0.6145825665661184,0.7718479905085582,0.1520598285450795,-0.058453032117624336,170.2397304182435,-16.08960575570458,104.32579212108969,0.0015252432333178446,-0.0006218608124855797,-0.0003841469683639519,0.25977816278457644,0.34244822364807126,-9.713585051708222
2026-09-11T16:31:31.114,0.9024045119999755,-1316.07763671875,-118446.9873046875,-473787.94921875,-901.5131811523438,-0.10820190429687501,-0.026048483327031136,-0.01784321107901633,-0.03991412642943878,0.0,0.0,-0.099090576171875,-811.75,-35.672607421875,0.0,0.0,0.0,1,1789158690.3553808,38.990780281666666,-76.93789827,-5.856999999999999,0,1,12.327121,14.2884,83.612736,1,1,1789158691.10908,0.6149915743259043,0.7714601675275867,0.15248678213355332,-0.05815801493352105,170.18749704990543,-16.098491426733936,104.26878310882543,0.002647315409424999,0.00034592425774527613,-0.004531747402803277,0.24428365552902223,0.27880306409835814,-9.718096110782623
2026-09-11T16:31:31.148,0.9358220799999799,-1316.0784912109375,-118447.06420898438,-473788.2568359375,-901.5137664794922,-0.10878723144531251,-0.026048483327031136,-0.01784321107901633,-0.03991412642943878,0.0,0.0,-0.099090576171875,-811.75,-35.672607421875,0.0,0.0,0.0,1,1789158690.3553808,38.990780281666666,-76.93789827,-5.856999999999999,0,1,12.327121,14.2884,83.612736,1,1,1789158691.1400802,0.6153523311011329,0.7711585501516305,0.15257620902085928,-0.058107655065919514,170.18318573210368,-16.10489180834488,104.21535511775849,0.00272707695624114,0.0014360569085409346,-0.00519549611733672,0.3006718939590454,0.2814508596420288,-9.720351640319825
2026-09-11T16:31:31.180,0.9692408319999686,-1316.0794677734375,-118447.15209960938,-473788.6083984375,-901.5144354248048,-0.10945617675781251,-0.026048483327031136,-0.01784321107901633,-0.03991412642943878,0.0,0.0,-0.099090576171875,-811.75,-35.672607421875,0.0,0.0,0.0,1,1789158690.3553808,38.990780281666666,-76.93789827,-5.856999999999999,0,1,12.327121,14.2884,83.612736,1,1,1789158691.16908,0.6156112932402077,0.7708805046798524,0.15301413821349605,-0.05790212989550811,170.13315385993684,-16.120936221766136,104.1802409280952,0.002349736771959966,-0.005617865796319348,-0.006538526976746357,0.30351582250595094,0.4195284939193725,-9.659452342815399
2026-09-11T16:31:31.214,1.0026646399999208,-1316.080322265625,-118447.22900390625,-473788.916015625,-901.5150207519532,-0.11004150390625,-0.026048483327031136,-0.01784321107901633,-0.03991412642943878,0.0,0.0,-0.099090576171875,-811.75,-35.672607421875,0.0,0.0,0.0,1,1789158690.3553808,38.990780281666666,-76.93789827,-5.856999999999999,0,1,12.327121,14.2884,83.612736,1,1,1789158691.2090802,0.6158885319658978,0.7706107607388258,0.1536616126508546,-0.05681971861913959,170.0014245042457,-16.07221038034674,104.14996956478592,0.0030693360225572276,-0.003886848244191372,-0.004415333941695254,0.29812216491699217,0.48680211402893064,-9.719370975303649
2026-09-11T16:31:31.248,1.0360864320000474,-1316.0811767578125,-118447.30590820312,-473789.2236328125,-901.5156060791016,-0.11062683105468751,-0.026048483327031136,-0.01784321107901633,-0.03991412642943878,0.0,0.0,-0.099090576171875,-811.75,-35.672607421875,0.0,0.0,0.0,1,1789158690.3553808,38.990780281666666,-76.93789827,-5.856999999999999,0,1,12.327121,14.2884,83.612736,1,1,1789158691.24108,0.6160894684448616,0.7703715606177566,0.15425359957413393,-0.05627834824435536,169.91184766411425,-16.068030080597335,104.12675305953893,0.0009424777960769379,0.006913423700074739,-0.00837810400834838,0.2272200842475891,0.478466461391449,-9.7258433644104
2026-09-11T16:31:31.282,1.0695039679999354,-1316.08203125,-118447.3828125,-473789.53125,-901.5161914062501,-0.11121215820312501,-0.026048483327031136,-0.01784321107901633,-0.03991412642943878,0.0,0.0,-0.09939765930175781,-814.265625,-35.78315734863281,0.0,0.0,0.0,1,1789158690.3553808,38.990780281666666,-76.93789827,-5.856999999999999,0,1,12.327121,14.2884,83.612736,1,1,1789158691.2690802,0.6162465901237764,0.7701674012680342,0.15478185031933087,-0.05590074236166695,169.83896983334373,-16.07368975417204,104.1085624320577,0.00021275563581810877,0.012951390247349122,-0.009454099492202885,0.3108708101272583,0.5381889608764648,-9.747908327274322
2026-09-11T16:31:31.315,1.1029253760000302,-1316.0828857421875,-118447.45971679688,-473789.8388671875,-901.5167767333985,-0.1117974853515625,-0.026048483327031136,-0.01784321107901633,-0.03991412642943878,0.0,0.0,-0.09964370727539062,-816.28125,-35.871734619140625,-0.015258789993822575,-5.493164397776127,-164.3606516446152,1,1789158690.3553808,38.990780281666666,-76.93789827,-5.856999999999999,0,1,12.327121,14.2884,83.612736,1,1,1789158691.313082,0.616251452797247,0.769954553897996,0.15626261156553833,-0.05464547633371126,169.61147302728457,-16.065923848455338,104.12432604469076,0.002992890601319876,0.005051506454047189,-0.012500571701558987,0.29586663537979124,0.7854146114540099,-9.699267342472076
2026-09-11T16:31:31.348,1.1363476159999664,-1316.0975341796875,-118448.77807617188,-473795.1123046875,-901.526810913086,-0.12183166503906251,-0.5250018239021301,-0.3596262493729592,-0.8044610087977783,-10.226215786093189,0.0,-0.10116386413574219,-828.734375,-36.41899108886719,-0.0915527418255806,-32.958987057209015,-821.782820645334,1,1789158690.3553808,38.990780281666666,-76.93789827,-5.856999999999999,0,1,12.327121,14.2884,83.612736,1,1,1789158691.341082,0.6160674968376622,0.7699100481630571,0.15764566045202763,-0.05335918682270493,169.3869372915708,-16.04571775334175,104.16782107904395,0.003645818274490955,-0.010105630901972367,-0.017633410498749114,0.40011132659912113,1.0764759882545472,-9.633366653385163
2026-09-11T16:31:31.381,1.1697653759999866,-1316.1143798828125,-118450.29418945312,-473801.1767578125,-901.5383502197267,-0.1333709716796875,-0.47345495223999023,-0.32431664228439333,-0.725475667243184,1.0566120257175948,0.0,-0.10331535339355469,-846.359375,-37.19352722167969,-0.0762939527630806,-27.465822994709015,164.37858379785678,1,1789158690.3553808,38.990780281666666,-76.93789827,-5.856999999999999,0,1,12.327121,14.2884,83.612736,1,1,1789158691.369082,0.6157970649459678,0.7699378779298421,0.15905870892998783,-0.05186488259263823,169.14305424734297,-16.007384672064273,104.2253421422355,0.0006335545184739416,-0.024053953218060652,-0.022391701638461253,0.34499795269012457,1.1723850268363953,-9.696913746433257
2026-09-11T16:31:31.415,1.2031816640001125,-1316.1143798828125,-118450.29418945312,-473801.1767578125,-901.5383502197267,-0.1333709716796875,-0.08685331046581268,-0.05949451766908169,-0.13308544575224057,7.924941412233285,0.0,-0.107208251953125,-878.25,-38.594970703125,-0.1373291164636612,-49.43848192691803,-657.5433792085541,1,1789158690.3553808,38.990780281666666,-76.93789827,-5.856999999999999,0,1,12.327121,14.2884,83.612736,1,1,1789158691.4130821,0.6154535543591086,0.7701114394660382,0.16027123394397239,-0.04958250498273285,168.860628256284,-15.881406955714633,104.29667395818323,0.0032534682586426297,-0.011928452772755246,-0.02542717827352979,0.4756225328445435,1.0710823306655883,-9.703876468048096
2026-09-11T16:31:31.448,1.2366000639999584,-1316.1171875,-118450.546875,-473802.1875,-901.5402734375001,-0.13529418945312502,-0.08685331046581268,-0.05949451766908169,-0.13308544575224057,0.0,0.0,-0.11409378051757812,-934.65625,-41.073760986328125,-0.2899170219898224,-104.37012791633606,-1643.7545181597982,1,1789158690.3553808,38.990780281666666,-76.93789827,-5.856999999999999,0,1,12.327121,14.2884,83.612736,1,1,1789158691.441082,0.6150887552091366,0.7702378863154886,0.16145363933277904,-0.04829227728865264,168.6511068433117,-15.84344147300409,104.36463876320367,0.001059414855960558,-0.0007792895110154682,-0.03595099006427999,0.2835102561759949,1.1116818623352052,-9.823811799526213
2026-09-11T16:31:31.481,1.2700219519999791,-1316.1387939453125,-118452.49145507812,-473809.9658203125,-901.5550738525392,-0.1500946044921875,-0.8157764673233032,-0.5588068801164627,-1.2500153903822078,-14.939681517904395,0.0,-0.12991905212402344,-1064.296875,-46.77085876464844,-0.4425049424171448,-159.30177927017212,-1643.5831319224671,1,1789158690.3553808,38.990780281666666,-76.93789827,-5.856999999999999,0,1,12.327121,14.2884,83.612736,1,1,1789158691.469082,0.6146407643737233,0.7705154898565904,0.16232567879078702,-0.04661528361228652,168.44170758657768,-15.746374894515265,104.4448915677493,4.60766922526503e-05,-0.015020303542663201,-0.0417679979282519,0.2835102561759949,1.2174956175804137,-9.585117934589386
2026-09-11T16:31:31.515,1.3034434240000792,-1316.157958984375,-118454.21630859375,-473816.865234375,-901.568201904297,-0.16322265625000001,-0.5264428853988647,-0.3606133764982224,-0.8066691492891509,5.930124909448844,0.0,-0.131317138671875,-1075.75,-47.274169921875,0.0,0.0,4766.450121338022,1,1789158690.3553808,38.990780281666666,-76.93789827,-5.856999999999999,0,1,12.327121,14.2884,83.612736,1,1,1789158691.513082,0.6139141319250803,0.7708555812719304,0.16397775241473708,-0.04474827547068884,168.14037226325468,-15.683633032867139,104.57106716428422,0.0023214624380776577,-0.0515261337761522,-0.0511569966393554,0.4097218437576294,1.1583615171051025,-9.741239805164337
2026-09-11T16:31:31.548,1.3368652480000947,-1316.17822265625,-118456.0400390625,-473824.16015625,-901.5820825195314,-0.17710327148437502,-0.6555995941162109,-0.4490857219696045,-1.0045761497172603,-2.6471429408323477,0.0,-0.13157272338867188,-1077.84375,-47.366180419921875,-0.015258789993822575,-5.493164397776127,-164.35860585507191,1,1789158690.3553808,38.990780281666666,-76.93789827,-5.856999999999999,0,1,12.327121,14.2884,83.612736,1,1,1789158691.541082,0.6133325535706007,0.7711900873035699,0.16500483016787335,-0.043155926551862046,167.92017326623014,-15.602896603119987,104.67016089903849,-0.004455825580341524,-0.06208502668486749,-0.06573189215690964,0.24712758407592775,1.2605468117904661,-9.624638734741211
2026-09-11T16:31:31.582,1.3702803839998978,-1316.201416015625,-118458.12744140625,-473832.509765625,-901.5979699707032,-0.19299072265625,-0.7076965570449829,-0.48477214157581333,-1.0844043968678705,-1.0679717002025382,0.0,-0.13419342041015625,-1099.3125,-48.30963134765625,-0.0610351637005806,-21.972658932209015,-493.17454624544877,1,1789158690.3553808,38.990780281666666,-76.93789827,-5.856999999999999,0,1,12.327121,14.2884,83.612736,1,1,1789158691.573082,0.6127258288930565,0.7715696307372416,0.16578963706450342,-0.041966174156499246,167.75068884389336,-15.540938715492636,104.76957431491162,-0.00733771324123456,-0.051533289626085374,-0.06995907960523991,0.5793768915557861,1.0974622196006774,-9.480579043865204
2026-09-11T16:31:31.616,1.40367977599999,-1316.2286376953125,-118460.57739257812,-473842.3095703125,-901.6166168212891,-0.21163757324218752,-0.8127392530441284,-0.556726388335228,-1.2453614628114429,-2.154357982301481,0.0,-0.1360340118408203,-1114.390625,-48.97224426269531,-0.1068115383386612,-38.45215380191803,-493.4070317706251,1,1789158690.3553808,38.990780281666666,-76.93789827,-5.856999999999999,0,1,12.327121,14.2884,83.612736,1,1,1789158691.609082,0.6117134731036408,0.772454977430799,0.16597559096373207,-0.03964893277384975,167.5506588951897,-15.326137607077984,104.9295602902798,0.0003298672286269283,-0.032973283827452474,-0.08151874430704875,0.142000294342041,1.448148029384613,-9.831853252658844
2026-09-11T16:31:31.649,1.4370955839999624,-1316.2589111328125,-118463.30200195312,-473853.2080078125,-901.6373541259767,-0.23237487792968753,-0.8900596499443054,-0.6096908602118493,-1.3638396121417515,-1.585012455083082,0.0,-0.13768577575683594,-1127.921875,-49.56687927246094,-0.0610351599752903,-21.972657591104507,493.16467855055623,1,1789158690.3553808,38.990780281666666,-76.93789827,-5.856999999999999,0,1,12.327121,14.2884,83.612736,1,1,1789158691.641082,0.6105679824083043,0.7730614775633459,0.16756891046525976,-0.038773070692359884,167.31688300478396,-15.341543783771858,105.11139259607705,0.0022577579203798648,-0.005324999547834699,-0.0845816226113736,0.5755522979927062,1.4505016254234315,-9.602181505870819
2026-09-11T16:31:31.682,1.4705105600000934,-1316.293212890625,-118466.38916015625,-473865.556640625,-901.6608508300782,-0.25587158203125004,-1.0213048458099365,-0.6995938193798066,-1.56494680426764,-2.6904989896627454,0.0,-0.137664794921875,-1127.75,-49.559326171875,0.0,0.0,657.5691567463156,1,1789158690.3553808,38.990780281666666,-76.93789827,-5.856999999999999,0,1,12.327121,14.2884,83.612736,1,1,1789158691.669082,0.6095839658696549,0.7739126010606925,0.1675861101086276,-0.037169479048752424,167.1841914526136,-15.179712621267294,105.26217011843953,0.006873630193129268,0.005932723193379125,-0.08739247537171047,0.13033038064956665,1.2882996317481994,-9.687107096271514
2026-09-11T16:31:31.716,1.5039243200001238,-1316.330078125,-118469.70703125,-473878.828125,-901.6861035156251,-0.28112426757812503,-1.072967529296875,-0.7349827575683594,-1.6441096044388837,-1.0591127184884503,0.0,-0.13712120056152344,-1123.296875,-49.36363220214844,0.015258789993822575,5.493164397776127,164.39827178297602,1,1789158690.3553808,38.990780281666666,-76.93789827,-5.856999999999999,0,1,12.327121,14.2884,83.612736,1,1,1789158691.7090821,0.6085112963263744,0.775220743507031,0.16574201801343905,-0.03572652438223467,167.23693752069977,-14.89827308151203,105.41513479197123,0.007394785507774775,-0.005896769410788042,-0.08368120725026973,-0.28066632762908933,0.9924329963684082,-10.233043310775756
2026-09-11T16:31:31.750,1.5373420799999167,-1316.368408203125,-118473.15673828125,-473892.626953125,-901.7123596191407,-0.30738037109375005,-1.1512624025344849,-0.7886147457361222,-1.7640809451863846,-1.6048947675755403,0.0,-0.1344165802001953,-1101.140625,-48.38996887207031,0.1983642727136612,71.41113817691803,1972.5431560807906,1,1789158690.3553808,38.990780281666666,-76.93789827,-5.856999999999999,0,1,12.327121,14.2884,83.612736,1,1,1789158691.741082,0.6078303709307766,0.7759538201342464,0.16479175896325,-0.035799237017321975,167.31852237855415,-14.826208581949608,105.51108678276302,0.01159195329297074,-0.01681485107956377,-0.07512822125087151,-0.05933023347854614,0.8051259782791138,-9.663473069381714
2026-09-11T16:31:31.783,1.5707605120001062,-1316.408447265625,-118476.76025390625,-473907.041015625,-901.7397863769532,-0.33480712890625003,-1.1772953271865845,-0.8064472991228104,-1.803971231037065,-0.5336143056199362,0.0,-0.12575340270996094,-1030.171875,-45.27122497558594,0.3204346001148224,115.35645604133606,1315.0023874300489,1,1789158691.757047,38.99077931833333,-76.937898725,-5.899999999999999,0,1,11.812968999999999,14.137599999999999,62.141689,1,1,1789158691.781082,0.607386918904429,0.7767458908608716,0.1624249880783212,-0.03694692168899269,167.61269637017145,-14.7561866197048,105.56196726680268,0.01950492705566263,0.008196066167365372,-0.05775399214604356,0.3476457482337952,0.5633920517921448,-8.869624738788605
2026-09-11T16:31:31.816,1.604177312000047,-1316.4483642578125,-118480.35278320312,-473921.4111328125,-901.7671295166016,-0.3621502685546875,-1.229392409324646,-0.8421338003873826,-1.8837996608522318,-1.067920963845591,0.0,-0.11653709411621094,-954.671875,-41.95335388183594,0.2441406548023224,87.89063572883606,-821.9165303843761,1,1789158691.757047,38.99077931833333,-76.937898725,-5.899999999999999,0,1,11.812968999999999,14.137599999999999,62.141689,1,1,1789158691.813082,0.606707864597104,0.777422213594745,0.16166959049254273,-0.03719156296046687,167.68797557921806,-14.714310015113815,105.65808606300996,0.010133905235854675,0.04536006006178143,-0.07372933985539806,-2.9945586933898927,0.37951736125946045,-10.943829314498903
2026-09-11T16:31:31.849,1.6375938240000778,-1316.4892578125,-118484.033203125,-473936.1328125,-901.7951416015626,-0.390162353515625,-1.2036190032958984,-0.8244790172576905,-1.8443070357410736,0.5283251324876734,0.0,-0.10296821594238281,-843.515625,-37.06855773925781,0.5340576767921448,192.26076364517212,3123.3100545095836,1,1789158691.757047,38.99077931833333,-76.937898725,-5.899999999999999,0,1,11.812968999999999,14.137599999999999,62.141689,1,1,1789158691.841082,0.6066756053470325,0.7774201349965091,0.1611802982716777,-0.03979390691895235,167.91379582833645,-14.918302553184954,105.65336469419333,0.019248363655619466,0.056234857565107696,-0.014988014951501306,1.9976146379470825,1.1701294972991942,-10.078000171718598
2026-09-11T16:31:31.882,1.6710197120000885,-1316.5294189453125,-118487.64770507812,-473950.5908203125,-901.8226519775392,-0.41767272949218753,-1.2562144994735718,-0.8605069321393968,-1.9248991860670093,-1.077844659854506,0.0,-0.09395790100097656,-769.703125,-33.82484436035156,0.09155279397964478,32.95900583267212,-4765.8197685712685,1,1789158691.757047,38.99077931833333,-76.937898725,-5.899999999999999,0,1,11.812968999999999,14.137599999999999,62.141689,1,1,1789158691.869082,0.6063779195118446,0.777859975705485,0.16008167311161797,-0.04016882942946997,168.03765286364958,-14.870276757183284,105.69056077449956,0.034945854948056465,0.04216017341117503,-0.03537084262091709,-0.03628460559844971,0.689309439868927,-8.723995983886718
2026-09-11T16:31:31.917,1.7044414720000987,-1316.57568359375,-118491.8115234375,-473967.24609375,-901.8543432617188,-0.44936401367187506,-1.3604459762573242,-0.9319054937362672,-2.08461321970353,-2.1362896985930324,0.0,-0.081085205078125,-664.25,-29.190673828125,0.5035400986671448,181.27443552017212,4437.6905850396515,1,1789158691.757047,38.99077931833333,-76.937898725,-5.899999999999999,0,1,11.812968999999999,14.137599999999999,62.141689,1,1,1789158691.9130821,0.6059301734121675,0.7781729788698611,0.16040451587882368,-0.03957058492349687,167.9572151272895,-14.831270855164728,105.76037658396582,0.040596532934313305,0.020836264209083903,-0.01665445532130549,-0.268996413936615,0.7522681339073182,-9.905893461380003
2026-09-11T16:31:31.949,1.7378692160000355,-1316.6231689453125,-118496.08520507812,-473984.3408203125,-901.8868707275391,-0.4818914794921875,-1.4129674434661865,-0.9678826987743379,-2.165091935339873,-1.0762678162827446,0.0,-0.06370162963867188,-521.84375,-22.932586669921875,0.3509522080421448,126.34279489517212,-1643.294881793511,1,1789158691.757047,38.99077931833333,-76.937898725,-5.899999999999999,0,1,11.812968999999999,14.137599999999999,62.141689,1,1,1789158691.941082,0.6055416752274386,0.778062616312398,0.16223449155504077,-0.04022206371795017,167.82214813661378,-15.014889949359258,105.82581653841895,-0.013601874459567408,0.04672543113561659,-0.03577488634275377,1.0084178361320497,1.1886640661048888,-8.500698559703826
2026-09-11T16:31:31.983,1.7712895679999292,-1316.678955078125,-118501.10595703125,-474004.423828125,-901.9250842285157,-0.5201049804687501,-1.648412823677063,-1.1291627842187881,-2.5258652116561984,-4.825804511124339,0.0,-0.06228446960449219,-510.234375,-22.422409057617188,0.0610351637005806,21.972658932209015,-3122.951426822049,1,1789158691.757047,38.99077931833333,-76.937898725,-5.899999999999999,0,1,11.812968999999999,14.137599999999999,62.141689,1,1,1789158691.973082,0.6045426831350742,0.7780129008347237,0.16614233316436874,-0.04025910497370361,167.4357476591666,-15.279294977171658,105.99508011165284,-0.04714221576099284,0.06985435985012026,-0.009102590180851227,1.1943519231986999,2.3787991297340394,-9.604535101909637
2026-09-11T16:31:32.017,1.8047086399999444,-1316.73974609375,-118506.5771484375,-474026.30859375,-901.9667260742189,-0.561746826171875,-1.8310511112213135,-1.2542700111865999,-2.805722108058783,-3.7435877024878197,0.0,-0.062061309814453125,-508.40625,-22.342071533203125,-0.015258791856467724,-5.493165068328381,-821.8607626365252,1,1789158691.757047,38.99077931833333,-76.937898725,-5.899999999999999,0,1,11.812968999999999,14.137599999999999,62.141689,1,1,1789158692.013082,0.6033470075093055,0.7779519247340657,0.1708524212132671,-0.0396565441975604,166.92392308176846,-15.537461371954176,106.20024602961686,-0.07351553702202876,0.11064444979847972,-0.029873230010060144,1.9737844780540468,3.070756365146637,-8.576896231460571
2026-09-11T16:31:32.050,1.838133120000066,-1316.80517578125,-118512.4658203125,-474049.86328125,-902.0115454101564,-0.6065661621093751,-1.9620261192321777,-1.3439878916740418,-3.0064152909673414,-2.6841967470283947,0.0,-0.06242179870605469,-511.359375,-22.471847534179688,-0.0610351599752903,-21.972657591104507,-493.03661635771743,1,1789158691.757047,38.99077931833333,-76.937898725,-5.899999999999999,0,1,11.812968999999999,14.137599999999999,62.141689,1,1,1789158692.041082,0.6027575737037547,0.7782680856408132,0.17124326141553944,-0.04071657691304692,166.94786374998145,-15.65314969970929,106.28719231397027,0.016885187848419143,0.0902752356972295,-0.06295332798773466,0.16955698129653932,1.1829762090110778,-11.97597924402237
2026-09-11T16:31:32.084,1.8715551360000973,-1316.875244140625,-118518.77197265625,-474075.087890625,-902.0595422363282,-0.65456298828125,-2.0928423404693604,-1.433597003221512,-3.2068651646866284,-2.6811402264718596,0.0,-0.06326484680175781,-518.265625,-22.775344848632812,-0.015258789993822575,-5.493164397776127,493.07298498429645,1,1789158692.0687206,38.990777265,-76.937899815,-5.927,0,1,11.812968999999999,14.137599999999999,62.141689,1,1,1789158692.081082,0.6015104148789944,0.7790195211486471,0.17252372199781768,-0.039362060533621616,166.70811206586893,-15.597468104768922,106.48234228973277,-0.00736563850926647,0.028700194219794757,-0.06133488417236033,1.072357195186615,1.7083184581756592,-9.559326444664002
2026-09-11T16:31:32.117,1.904968800000006,-1316.9510498046875,-118525.59448242188,-474102.3779296875,-902.111469116211,-0.7064898681640626,-2.249192714691162,-1.5406970095634462,-3.4464410557521576,-3.2052757321743215,0.0,-0.06387901306152344,-523.296875,-22.996444702148438,-0.015258789993822575,-5.493164397776127,0.0,1,1789158692.0687206,38.990777265,-76.937899815,-5.927,0,1,11.812968999999999,14.137599999999999,62.141689,1,1,1789158692.113082,0.6002265771191122,0.7795588692219403,0.17487424059463813,-0.037881730606358,166.35722391673843,-15.604199314205756,106.68862402297793,0.01429110498117997,-0.04332779868075923,-0.07258492746486538,0.9434978120613099,2.165896754722595,-9.189909933071137
2026-09-11T16:31:32.150,1.938398559999996,-1317.0318603515625,-118532.86743164062,-474131.4697265625,-902.1668243408204,-0.7618450927734376,-2.432429552078247,-1.6662142431735993,-3.7272151108929794,-3.7546555407574185,0.0,-0.06399726867675781,-524.265625,-23.039016723632812,0.0,0.0,164.31958822850575,1,1789158692.0687206,38.990777265,-76.937899815,-5.927,0,1,11.812968999999999,14.137599999999999,62.141689,1,1,1789158692.141082,0.5997141915814043,0.7801914893465836,0.17400739798202594,-0.03695340058164178,166.36644304886224,-15.448425995682314,106.7606003253309,-0.008018391649512348,-0.06258820510821746,-0.061135043973006974,-1.5048304673194886,1.8503187525177,-9.830186122131348
2026-09-11T16:31:32.183,1.9718120960001215,-1317.1151123046875,-118540.36010742188,-474161.4404296875,-902.223851928711,-0.8188726806640626,-2.5102951526641846,-1.7195521795749666,-3.8465286765724875,-1.5962972730921658,0.0,-0.06399726867675781,-524.265625,-23.039016723632812,0.0,0.0,0.0,1,1789158692.0687206,38.990777265,-76.937899815,-5.927,0,1,11.812968999999999,14.137599999999999,62.141689,1,1,1789158692.181082,0.5993131920348992,0.7808309004248778,0.17254590553140825,-0.03680642985894248,166.4879728971024,-15.325200679049637,106.81140499450505,-0.0028256880589788195,-0.07563384313517427,-0.06489169065499957,-1.6208431387329103,0.8876979726409913,-9.682203771190643
2026-09-11T16:31:32.216,2.00528681600008,-1317.200439453125,-118548.03955078125,-474192.158203125,-902.2823010253907,-0.87732177734375,-2.537069797515869,-1.7378928112983705,-3.8875555012937735,-0.5478950002696562,0.0,-0.06381034851074219,-522.734375,-22.971725463867188,0.015258791856467724,5.493165068328381,164.09891011292163,1,1789158692.0687206,38.990777265,-76.937899815,-5.927,0,1,11.812968999999999,14.137599999999999,62.141689,1,1,1789158692.213082,0.599215264458051,0.7815742118251263,0.16939907900458712,-0.03723936469380085,166.81554787812664,-15.142683496408297,106.80697378638516,0.028612753224269837,-0.04338312561804745,-0.057229695238744466,1.819623937511444,-0.4305119421005249,-9.935509544868468
2026-09-11T16:31:32.250,2.038715008000054,-1317.28564453125,-118555.7080078125,-474222.83203125,-902.3406665039063,-0.9356872558593751,-2.5641300678253174,-1.7564290964603426,-3.9290199902924585,-0.5545105509142283,0.0,-0.063812255859375,-522.75,-22.972412109375,0.0,0.0,-164.3273159473496,1,1789158692.0687206,38.990777265,-76.937899815,-5.927,0,1,11.812968999999999,14.137599999999999,62.141689,1,1,1789158692.241082,0.5990490301195507,0.782147082162571,0.16715309399979375,-0.03802689237497929,167.0799448144421,-15.055290465373075,106.817197777655,0.013906958012816018,-0.01718119568955738,-0.059117094291851136,-0.7002928880500794,0.15729866859436034,-9.09811968755722
2026-09-11T16:31:32.285,2.0721301440000843,-1317.3690185546875,-118563.21166992188,-474252.8466796875,-902.397777709961,-0.9927984619140626,-2.513383388519287,-1.7216676211357118,-3.8512607845734386,1.0402913016603923,0.0,-0.063812255859375,-522.75,-22.972412109375,0.0,0.0,0.0,1,1789158692.0687206,38.990777265,-76.937899815,-5.927,0,1,11.812968999999999,14.137599999999999,62.141689,1,1,1789158692.281082,0.5986625510173634,0.7831420513250009,0.16354927217881937,-0.03928502291752824,167.5013171663962,-14.913065551622227,106.85099377120538,0.04360914575618072,0.0364730180435515,-0.0634378313880883,-0.3719662406349182,0.07835513479232789,-8.304271356964112
2026-09-11T16:31:32.318,2.1055482239999037,-1317.4510498046875,-118570.59448242188,-474282.3779296875,-902.453969116211,-1.0489898681640626,-2.4364824295043945,-1.6689904642105104,-3.7334253404852107,1.576307104581893,0.0,-0.06547164916992188,-536.34375,-23.569793701171875,-0.0610351637005806,-21.972658932209015,-657.5081193272555,1,1789158692.0687206,38.990777265,-76.937899815,-5.927,0,1,11.812968999999999,14.137599999999999,62.141689,1,1,1789158692.309082,0.5982508239133018,0.7835784351618231,0.16232198950753432,-0.04186119155877002,167.7860471056133,-15.059475711501891,106.8980578867174,0.011548145528745682,0.06446321232363496,-0.06364447837152443,0.8768125909614564,-0.16445752321243287,-10.56509648525238
2026-09-11T16:31:32.352,2.1389780800000153,-1317.534423828125,-118578.09814453125,-474312.392578125,-902.5110803222657,-1.10610107421875,-2.5168635845184326,-1.7240515553951266,-3.856593493636195,-1.6470633670821757,0.0,-0.06569099426269531,-538.140625,-23.648757934570312,-0.015258789993822575,-5.493164397776127,492.95738917863923,1,1789158692.0687206,38.990777265,-76.937899815,-5.927,0,1,11.812968999999999,14.137599999999999,62.141689,1,1,1789158692.341082,0.5976669550828612,0.7842149960324054,0.16108354853373347,-0.04304812645929875,167.9736834943856,-15.07401402262502,106.97336718853155,-0.01468781832015828,0.067774800046369,-0.06954072418353686,1.162970642681122,0.4795451929092407,-9.80870955827713
2026-09-11T16:31:32.386,2.1724016959999517,-1317.6177978515625,-118585.60180664062,-474342.4072265625,-902.5681915283204,-1.1632122802734375,-2.492218494415283,-1.707169668674469,-3.818829788552405,0.5050885793054117,0.0,-0.06582832336425781,-539.265625,-23.698196411132812,0.0,0.0,164.34979380407506,1,1789158692.0687206,38.990777265,-76.937899815,-5.927,0,1,11.812968999999999,14.137599999999999,62.141689,1,1,1789158692.381082,0.5965591720408646,0.7849599783249294,0.16133682872939045,-0.04387954395373388,167.98491030221615,-15.1520394902642,107.13511006760172,-0.002812249023738463,0.07804344470047765,-0.0842428542035615,1.1513007289886474,1.666247928981781,-9.57197702337265
2026-09-11T16:31:32.418,2.2058171200001198,-1317.7025146484375,-118593.22631835938,-474372.9052734375,-902.6262225341798,-1.2212432861328126,-2.518829345703125,-1.7253981018066407,-3.8596056321730465,-0.5455095566670025,0.0,-0.06595039367675781,-540.265625,-23.742141723632812,0.0,0.0,0.0,1,1789158692.0687206,38.990777265,-76.937899815,-5.927,0,1,11.812968999999999,14.137599999999999,62.141689,1,1,1789158692.4130821,0.5956286692702828,0.7856774540918252,0.16110849846913455,-0.04451379781731587,168.03186621508925,-15.180970502794654,107.26844499411018,-0.011823907550560784,0.05230472515546687,-0.06244788063635711,4.450650109405518,1.1031500766944886,-10.173124678287506
2026-09-11T16:31:32.452,2.2392352320000555,-1317.7894287109375,-118601.04858398438,-474404.1943359375,-902.6857586669922,-1.2807794189453126,-2.5986809730529785,-1.7800964665412904,-3.9819623893640133,-1.6367880009126472,0.0,-0.06598472595214844,-540.546875,-23.754501342773438,-0.015258789993822575,-5.493164397776127,-164.37686239685513,1,1789158692.0687206,38.990777265,-76.937899815,-5.927,0,1,11.812968999999999,14.137599999999999,62.141689,1,1,1789158692.441082,0.5950101136787614,0.7865634342518774,0.15914263067485948,-0.04421031123804812,168.18675734615712,-15.006663350026678,107.34869783005804,0.047002065822057695,0.014802311919089109,-0.08061518735329128,-0.12317152603149414,1.4445195688247678,-8.559538460674286
2026-09-11T16:31:32.485,2.272654399999965,-1317.8798828125,-118609.189453125,-474436.7578125,-902.7477197265625,-1.3427404785156252,-2.7032315731048584,-1.8517136275768282,-4.142165416018312,-2.1429965292891784,0.0,-0.06564903259277344,-537.796875,-23.633651733398438,0.0457763709127903,16.479493528604507,657.4866832842816,1,1789158692.0687206,38.990777265,-76.937899815,-5.927,0,1,11.812968999999999,14.137599999999999,62.141689,1,1,1789158692.481082,0.5937799472038303,0.7873056828483733,0.16068616929610152,-0.04189380682413069,167.8589228979219,-14.879731208023006,107.54465804075677,-0.000732863752912419,-0.08053368047722315,-0.06896808165595752,1.4069600987052917,2.1311812131500245,-10.211272547416687
2026-09-11T16:31:32.519,2.306076320000102,-1317.9769287109375,-118617.92358398438,-474471.6943359375,-902.8141961669922,-1.4092169189453125,-2.8867385387420654,-1.977415899038315,-4.423353389044186,-3.761072716976498,0.0,-0.064666748046875,-529.75,-23.280029296875,0.030517585575580597,10.986330807209015,-164.35808359821812,1,1789158692.0687206,38.990777265,-76.937899815,-5.927,0,1,11.812968999999999,14.137599999999999,62.141689,1,1,1789158692.513082,0.5930567755455158,0.7882716106691005,0.15937720056450572,-0.03886433754638073,167.76547733043492,-14.495902427190886,107.64982082551137,0.037030825272488896,-0.12168383185026906,-0.051246881095833106,-2.1052916567230224,1.5059091988372804,-9.66592473192215
2026-09-11T16:31:32.552,2.3394943999999214,-1318.0765380859375,-118626.88842773438,-474507.5537109375,-902.8824285888672,-1.4774493408203127,-2.9649012088775635,-2.030957328081131,-4.5431221547985166,-1.6021695155169113,0.0,-0.064178466796875,-525.75,-23.104248046875,0.0,0.0,-328.7540997947337,1,1789158692.0687206,38.990777265,-76.937899815,-5.927,0,1,11.812968999999999,14.137599999999999,62.141689,1,1,1789158692.541082,0.5926576317226102,0.7886846562724764,0.15911195557470412,-0.03764080385042445,167.70089548286467,-14.357495306471924,107.7088710727816,-0.013771694995786456,-0.16301863905817596,-0.07035090602231263,3.854798045578003,1.720086438369751,-8.023212763328551
2026-09-11T16:31:32.585,2.3729138240000793,-1318.1815185546875,-118636.33666992188,-474545.3466796875,-902.9543402099611,-1.5493609619140627,-3.146707773208618,-2.1554948246479038,-4.821704600590331,-3.7265003898985234,0.0,-0.064178466796875,-525.75,-23.104248046875,0.0,0.0,0.0,1,1789158692.0687206,38.990777265,-76.937899815,-5.927,0,1,11.812968999999999,14.137599999999999,62.141689,1,1,1789158692.581082,0.5916648717582823,0.7894373998766104,0.1596721230728524,-0.035015486812550185,167.45265903085746,-14.136324373867563,107.86052338191396,-0.05062903454062711,-0.08614718295041252,-0.10045591575703762,-0.27772433258056645,1.9759419410896302,-10.082609297294617
2026-09-11T16:31:32.619,2.4063334079999095,-1318.290283203125,-118646.12548828125,-474584.501953125,-903.0288439941407,-1.62386474609375,-3.2503786087036133,-2.226509346961975,-4.980559562817584,-2.124937351537123,0.0,-0.06721687316894531,-550.640625,-24.198074340820312,-0.3814697563648224,-137.32911229133606,-4109.2406264552565,1,1789158692.0687206,38.990777265,-76.937899815,-5.927,0,1,11.812968999999999,14.137599999999999,62.141689,1,1,1789158692.613082,0.5906002294758341,0.789830802394917,0.16130336525438213,-0.0366046020181176,167.38431898103084,-14.380160927691746,108.02286951100253,-0.0180364070230346,-0.011700687305369986,-0.10110639996925593,2.774987796268463,1.951425315685272,-11.442693608226776
2026-09-11T16:31:32.652,2.4397503679999772,-1318.4022216796875,-118656.19995117188,-474624.7998046875,-903.105521850586,-1.7005426025390626,-3.3547110557556152,-2.297977073192597,-5.140428313333469,-2.138666300898605,0.0,-0.08633804321289062,-707.28125,-31.081695556640625,-0.7781983017921448,-280.1513886451721,-4273.945815344855,1,1789158692.0687206,38.990777265,-76.937899815,-5.927,0,1,11.812968999999999,14.137599999999999,62.141689,1,1,1789158692.641082,0.5890763377109188,0.7907402345485651,0.16219132697882832,-0.037588871598102175,167.33748617041894,-14.509007981304032,108.24849323122372,0.028940526057794375,0.04876886262385155,-0.15553431815977387,-0.00843371913909912,1.1871930685806273,-11.178796652374269
2026-09-11T16:31:32.686,2.473164896000071,-1318.5172119140625,-118666.54907226562,-474666.1962890625,-903.1842901611329,-1.7793109130859377,-3.4337522983551025,-2.3521203243732454,-5.26154331686928,-1.6203506205593077,0.0,-0.10821723937988281,-886.515625,-38.95820617675781,-0.5187988877296448,-186.76759958267212,2794.7062146811563,1,1789158692.0687206,38.990777265,-76.937899815,-5.927,0,1,11.812968999999999,14.137599999999999,62.141689,1,1,1789158692.681082,0.5857440556301858,0.7928668195629884,0.1631294238448315,-0.04068044746590764,167.39230076998055,-14.809883727224015,108.73353948022837,-0.010484890948430737,0.12861104365143455,-0.23343726385546595,2.3710518761062622,0.8547476280975342,-9.261302346248627
2026-09-11T16:31:32.719,2.506588383999997,-1318.6343994140625,-118677.09594726562,-474708.3837890625,-903.2645635986329,-1.8595843505859377,-3.460340976715088,-2.3703335690498353,-5.30228518488241,-0.544923518354229,0.0,-0.1376514434814453,-1127.640625,-49.55451965332031,-0.7934571504592896,-285.64457416534424,-2958.3080791236293,1,1789158692.0687206,38.990777265,-76.937899815,-5.927,0,1,11.812968999999999,14.137599999999999,62.141689,1,1,1789158692.712082,0.582433955767137,0.7950980730806773,0.163515272139372,-0.04304064509305069,167.44982388671917,-15.005796318759398,109.21157077216766,-0.000888896188040712,0.14497751964616096,-0.28613381542800553,1.6106442225646973,0.8727918643951416,-8.627792745800019
2026-09-11T16:31:32.753,2.5400093440000546,-1318.7525634765625,-118687.73071289062,-474750.9228515625,-903.3455059814454,-1.9405267333984377,-3.5138633251190186,-2.4069963777065277,-5.384297552135211,-1.097000464876808,0.0,-0.13581085205078125,-1112.5625,-48.89190673828125,0.030517607927322388,10.98633885383606,8875.59522583039,1,1789158692.0687206,38.990777265,-76.937899815,-5.927,0,1,11.812968999999999,14.137599999999999,62.141689,1,1,1789158692.741082,0.5789183074465492,0.7975406602903583,0.16332178988618404,-0.04591820374551949,167.5919984753463,-15.209145919042752,109.71273061202949,0.022796094426148335,0.15714857318494344,-0.3118657281889336,1.172777292842865,0.7549159294509888,-10.682384021186827
2026-09-11T16:31:32.786,2.5734341439999753,-1318.869384765625,-118698.24462890625,-474792.978515625,-903.4255285644532,-2.02054931640625,-3.514620542526245,-2.407515071630478,-5.385457837398165,-0.015518235679841046,0.0,-0.13442420959472656,-1101.203125,-48.39271545410156,0.1678466945886612,60.42481005191803,1479.0954978997431,1,1789158692.0687206,38.990777265,-76.937899815,-5.927,0,1,11.812968999999999,14.137599999999999,62.141689,1,1,1789158692.781082,0.5745614531999353,0.8012997809291319,0.16035245505121656,-0.045660570942018294,167.78123951897948,-14.918232061496251,110.32191313581298,0.05141739976375295,-0.018764907452817035,-0.2780833097202565,-0.7225539839172362,0.5447594164848328,-10.934512996845246
2026-09-11T16:31:32.819,2.6068514240000695,-1318.9871826171875,-118708.84643554688,-474835.3857421875,-903.5062200927736,-2.1012408447265627,-3.541131019592285,-2.4256747484207155,-5.426079877462224,-0.5434217503694564,0.0,-0.10916519165039062,-894.28125,-39.299468994140625,1.1291505098342896,406.49418354034424,10356.000652580047,1,1789158692.0687206,38.990777265,-76.937899815,-5.927,0,1,11.812968999999999,14.137599999999999,62.141689,1,1,1789158692.813082,0.5717308344274703,0.803918488548858,0.15833512534839428,-0.04205835012333049,167.69113650089335,-14.399007987647575,110.72141284482042,0.042177277637844575,-0.07300502821582042,-0.19944348601437242,-0.6999986885452271,1.2984985479164124,-8.602785787887573
2026-09-11T16:31:32.853,2.6402644800000417,-1319.108642578125,-118719.77783203125,-474879.111328125,-903.5894201660157,-2.1844409179687503,-3.6199445724487305,-2.4796620321273806,-5.5468459916951005,-1.615754144329393,0.0,-0.0720672607421875,-590.375,-25.9442138671875,1.0528565645217896,379.02836322784424,-822.0086277807965,1,1789158692.0687206,38.990777265,-76.937899815,-5.927,0,1,11.812968999999999,14.137599999999999,62.141689,1,1,1789158692.841082,0.5701246404346907,0.8055209113080638,0.15691765194450474,-0.03835109285097662,167.56073209032476,-13.92847573275558,110.94584149712986,0.0206837224324596,-0.09253648427611336,-0.12621348485796993,-1.956818973274231,1.6352589144706726,-9.49146442554474
2026-09-11T16:31:32.887,2.6736797119999665,-1319.234130859375,-118731.07177734375,-474924.287109375,-903.675379638672,-2.2704003906250003,-3.751004457473755,-2.5694380533695225,-5.747669231767895,-2.686679573026575,0.0,-0.04942893981933594,-404.921875,-17.794418334960938,0.7476807832717896,269.16508197784424,-3287.82039431141,1,1789158692.0687206,38.990777265,-76.937899815,-5.927,0,1,11.812968999999999,14.137599999999999,62.141689,1,1,1789158692.881082,0.5692971277914554,0.8065464773302734,0.15585462856248947,-0.033058961722575504,167.3087091308554,-13.343137093860893,111.0581550437036,-0.10035747918722515,-0.0730984033308021,-0.0161284130847544,-0.1441577573776245,2.467058981189728,-7.921615867652894
2026-09-11T16:31:32.920,2.7070989759999975,-1319.3642578125,-118742.783203125,-474971.1328125,-903.7645166015626,-2.359537353515625,-3.908493995666504,-2.6773183870315553,-5.988990665335434,-3.228088256579579,0.0,-0.026212692260742188,-214.734375,-9.436569213867188,0.30517590045928955,109.86332416534424,-4766.764397096,1,1789158692.0687206,38.990777265,-76.937899815,-5.927,0,1,11.812968999999999,14.137599999999999,62.141689,1,1,1789158692.9130821,0.5696014051316713,0.8066239313910367,0.15494269984694983,-0.030080431237462783,167.21040141833413,-13.005133319750165,111.00774993619306,-0.05742552118081823,0.0078792889081284,0.04945128636138133,-2.636615962486267,-0.32626725088119507,-13.400493246517183
2026-09-11T16:31:32.953,2.7405239039999287,-1319.490234375,-118754.12109375,-475016.484375,-903.8508105468751,-2.445831298828125,-3.7806448936462402,-2.589741752147675,-5.7930873124276845,2.620099432497225,0.0,-0.022382736206054688,-183.359375,-8.057785034179688,0.0,0.0,-3286.867937772977,1,1789158692.0687206,38.990777265,-76.937899815,-5.927,0,1,11.812968999999999,14.137599999999999,62.141689,1,1,1789158692.953082,0.5710031636592003,0.8060074674476598,0.1525876507505974,-0.0320055987009755,167.58579131194622,-13.05284070275076,110.79561363182736,-0.005655041309386827,0.11057027330526996,0.057222015790035684,-0.9514411986923217,0.7854146114540099,-8.032627147483826
2026-09-11T16:31:32.987,2.773939328000097,-1319.618408203125,-118765.65673828125,-475062.626953125,-903.9386096191407,-2.53363037109375,-3.860206127166748,-2.644241197109223,-5.914999098758992,-1.6309667344419692,0.0,-0.020051956176757812,-164.265625,-7.2187042236328125,0.0,0.0,0.0,1,1789158692.0687206,38.990777265,-76.937899815,-5.927,0,1,11.812968999999999,14.137599999999999,62.141689,1,1,1789158692.981082,0.5718410099002837,0.8057108803412428,0.1509338595976049,-0.03235439263737281,167.78213550049554,-12.988584233766895,110.66674941182406,0.015142476590302803,0.08312863600908832,0.07890877894361643,-2.5941531672859193,0.43002160959243774,-11.16840160320282
2026-09-11T16:31:33.020,2.807360704000075,-1319.74853515625,-118777.3681640625,-475109.47265625,-904.0277465820313,-2.6227673339843753,-3.9132580757141113,-2.6805817818641664,-5.9962906716718045,-1.0873455585720675,0.0,-0.01802825927734375,-147.6875,-6.49017333984375,0.0305175818502903,10.986329466104507,328.7216380950804,1,1789158692.0687206,38.990777265,-76.937899815,-5.927,0,1,11.812968999999999,14.137599999999999,62.141689,1,1,1789158693.013082,0.5728104416801146,0.8046487489984516,0.1521971584045251,-0.035561406201759814,167.88368728020077,-13.390648250776234,110.5352561046485,-0.05022725974681802,0.12217653829810707,0.09912457860361636,1.8245272625923157,1.09010723197937,-8.424893153953551
2026-09-11T16:31:33.053,2.840772128000026,-1319.880126953125,-118789.21142578125,-475156.845703125,-904.1178869628907,-2.7129077148437504,-3.9399807453155518,-2.698886810541153,-6.0372378546464525,-0.5478673604876513,0.0,-0.013212203979492188,-108.234375,-4.7563934326171875,0.04577639698982239,16.47950291633606,164.41003682571696,1,1789158692.0687206,38.990777265,-76.937899815,-5.927,0,1,11.812968999999999,14.137599999999999,62.141689,1,1,1789158693.053082,0.574625697925493,0.8032200126777062,0.1520690047629443,-0.03896070209934023,168.14806415326586,-13.730397046872364,110.27191424244018,-0.04707344978846426,0.07749837837507982,0.11212152194444251,1.1105050643157959,-0.3574523983955384,-9.63385698589325
2026-09-11T16:31:33.087,2.87419632000001,-1320.0086669921875,-118800.78002929688,-475203.1201171875,-904.2059368896485,-2.800957641601563,-3.8362579345703125,-2.6278366851806645,-5.878303250672561,2.125709586652765,0.0,-0.0019741058349609375,-16.171875,-0.7106781005859375,0.3967285752296448,142.82228708267212,3779.98020614519,1,1789158692.0687206,38.990777265,-76.937899815,-5.927,0,1,11.812968999999999,14.137599999999999,62.141689,1,1,1789158693.081082,0.5762669706249063,0.801853469599809,0.1526982397828977,-0.04038117661418824,168.20836552124183,-13.930779327287565,110.0383927289096,-0.06058474165985316,0.0034552283201731743,0.13512723041375538,1.5989743088722228,0.011866046695709228,-8.7109531391716
2026-09-11T16:31:33.120,2.9076193599998987,-1320.135986328125,-118812.23876953125,-475248.955078125,-904.2931506347657,-2.88817138671875,-3.8357977867126465,-2.627521483898163,-5.877598165484431,0.00943065868641655,0.0,0.005908966530114412,48.406253814697266,2.1272279508411884,-0.1831054836511612,-65.91797411441803,-6245.4002148752825,1,1789158692.0687206,38.990777265,-76.937899815,-5.927,0,1,11.812968999999999,14.137599999999999,62.141689,1,1,1789158693.113082,0.5782677870163802,0.8009972770048629,0.14969200465314964,-0.04002539784804895,168.50968947173095,-13.723971163938813,109.7336757411018,-0.005769883974168054,-0.029257826915806945,0.1269044607088345,-2.602979152431488,-1.2057276373863222,-9.482932639904023
2026-09-11T16:31:33.154,2.9410353920000034,-1320.264404296875,-118823.79638671875,-475295.185546875,-904.3811169433594,-2.9761376953125,-3.8620476722717285,-2.6455026555061343,-5.9178209008279605,-0.5381001433059097,0.0,0.006011963356286287,49.250003814697266,2.1643068082630634,0.0,0.0,1972.645169666211,1,1789158692.0687206,38.990777265,-76.937899815,-5.927,0,1,11.812968999999999,14.137599999999999,62.141689,1,1,1789158693.1530821,0.5805507565119733,0.7991529707037364,0.15102165623011418,-0.03883050190612981,168.34195765559323,-13.73399187620783,109.41512706030211,-0.04193345514134096,-0.10933719818873598,0.1277921351663988,3.140285514793396,2.1925708431625366,-10.645609083080291
2026-09-11T16:31:33.187,2.9744474880001235,-1320.394287109375,-118835.48583984375,-475341.943359375,-904.4700866699219,-3.065107421875,-3.915029764175415,-2.6817953884601593,-5.999005432310658,-1.0862153919914093,0.0,0.006149292457848787,50.375003814697266,2.2137452848255634,-0.0610351599752903,-21.972657591104507,-657.6258367935236,1,1789158692.0687206,38.990777265,-76.937899815,-5.927,0,1,11.812968999999999,14.137599999999999,62.141689,1,1,1789158693.181082,0.5823686771417839,0.7976758393067562,0.15185230161734153,-0.03874090556384206,168.2874596730927,-13.80825757256782,109.15810683196294,-0.06495609330439817,-0.069866402621959,0.13619292845502312,-1.8978810058021547,1.7478392583274842,-10.060054001922609
2026-09-11T16:31:33.220,3.0078630400000748,-1320.5299072265625,-118847.69165039062,-475390.7666015625,-904.5629864501954,-3.1580072021484376,-4.046730995178223,-2.772010731697083,-6.2008114076974765,-2.699801075770199,0.0,0.005582809913903475,45.734378814697266,2.009811569005251,0.0,0.0,657.5578219128789,1,1789158692.0687206,38.990777265,-76.937899815,-5.927,0,1,11.812968999999999,14.137599999999999,62.141689,1,1,1789158693.2090821,0.5840124161775484,0.796120078796655,0.1538517249409604,-0.038104653521068364,168.08169848336516,-13.908638489923359,108.93337116974342,-0.01044649370488686,-0.08363600322264307,0.14405336780723,2.181489328479767,1.2078851004219056,-10.84841060842514
2026-09-11T16:31:33.253,3.0412762880000628,-1320.66943359375,-118860.2490234375,-475440.99609375,-904.6585620117188,-3.2535827636718753,-4.177945137023926,-2.8618924188613892,-6.401871015706393,-2.69000149773942,0.0,0.004421234596520662,36.218753814697266,1.5916444547474384,-0.0457763746380806,-16.479494869709015,-493.20242287475094,1,1789158692.0687206,38.990777265,-76.937899815,-5.927,0,1,11.812968999999999,14.137599999999999,62.141689,1,1,1789158693.253082,0.586026305144996,0.7940835052416781,0.15650346613426286,-0.03887443207501909,167.91391927419176,-14.191844166026454,108.6560766002632,-0.11527969522592627,-0.0033738959770302384,0.11065858696542089,2.8051922787666324,6.375401336650848,-13.892590951633453
2026-09-11T16:31:33.287,3.0746898560000773,-1320.813720703125,-118873.23486328125,-475492.939453125,-904.7573986816407,-3.35241943359375,-4.334476470947266,-2.969116382598877,-6.641724191568705,-3.2089947334400617,0.0,-0.00102996826171875,-8.4375,-0.37078857421875,-0.10681155323982239,-38.45215916633606,-657.597066455684,1,1789158692.0687206,38.990777265,-76.937899815,-5.927,0,1,11.812968999999999,14.137599999999999,62.141689,1,1,1789158693.281082,0.586893733111803,0.7931443018494906,0.1579446495182411,-0.03913246946380651,167.80841704420334,-14.327781594734118,108.5382684943016,0.08392817133942691,-0.023358788576991307,0.10466809337380074,-0.9546773932456971,2.5949376992988586,-10.55519176858902
2026-09-11T16:31:33.320,3.108109759999934,-1320.963623046875,-118886.72607421875,-475546.904296875,-904.8600817871095,-3.4551025390625,-4.465595722198486,-3.0589330697059633,-6.8426383985906405,-2.6875207992061134,0.0,-0.007762908935546875,-63.59375,-2.794647216796875,-0.2899170219898224,-104.37012791633606,-1972.4164602711849,1,1789158692.0687206,38.990777265,-76.937899815,-5.927,0,1,11.812968999999999,14.137599999999999,62.141689,1,1,1789158693.313082,0.587794249662258,0.7921339598702256,0.15969444890577814,-0.03897938779635879,167.64663205122034,-14.447261184809932,108.41805680695651,0.027484572395780706,-0.005159891400596036,0.06288229308717849,0.04393379272460937,1.4655058001708983,-7.481983740901947
2026-09-11T16:31:33.354,3.141521664000038,-1321.11669921875,-118900.5029296875,-475602.01171875,-904.9649389648438,-3.5599597167968753,-4.570188999176025,-3.1305794644355776,-7.00290681915617,-2.144337381353388,0.0,-0.0140380859375,-115.0,-5.0537109375,-0.2899170219898224,-104.37012791633606,0.0,1,1789158692.0687206,38.990777265,-76.937899815,-5.927,0,1,11.812968999999999,14.137599999999999,62.141689,1,1,1789158693.353082,0.5887780396830573,0.79146136654667,0.15947456063235974,-0.03869353643917619,167.66647946356713,-14.42065936454078,108.27425689825183,0.02612548450725272,-0.05530110641529073,0.026372623129335117,-2.0021256970214845,0.3217561918067932,-10.28599922164917
2026-09-11T16:31:33.387,3.1749334399999043,-1321.2725830078125,-118914.53247070312,-475658.1298828125,-905.0717193603516,-3.6667401123046877,-4.597477912902832,-3.14927237033844,-7.044721658774241,-0.5594705861471566,0.0,-0.022645950317382812,-185.515625,-8.152542114257812,-0.2288818657398224,-82.39747166633606,657.6320950460095,1,1789158693.3672736,38.99076796833333,-76.93790299833333,-5.846,0,1,13.571856,31.505769000000004,129.846025,1,1,1789158693.381082,0.5892027180570412,0.7913464981361066,0.15867335893044845,-0.037863466397635284,167.6952826975281,-14.294606371901173,108.20923166652466,0.061168030695869666,-0.11270236751950624,0.012820839619299947,-0.5880067436981201,0.44169152328491207,-9.15882285205841
2026-09-11T16:31:33.420,3.208355296000036,-1321.4296875,-118928.671875,-475714.6875,-905.1793359375,-3.7743566894531253,-4.703401565551758,-3.2218300724029545,-7.207028615790423,-2.1709656718115276,0.0,-0.02544403076171875,-208.4375,-9.15985107421875,-0.0762939527630806,-27.465822994709015,1643.5846253245302,1,1789158693.3672736,38.99076796833333,-76.93790299833333,-5.846,0,1,13.571856,31.505769000000004,129.846025,1,1,1789158693.4130821,0.5898709231306316,0.790783015795799,0.158987523570351,-0.037914157288332945,167.6806729793967,-14.331278729509625,108.11376308531598,-0.003726452485933093,-0.14957977835074482,0.010813187380730869,1.7802992703628542,1.5503333240699768,-11.065137576999664
2026-09-11T16:31:33.454,3.2417673279999235,-1321.5867919921875,-118942.81127929688,-475771.2451171875,-905.2869525146485,-3.881973266601563,-4.678530216217041,-3.2047931981086735,-7.168918213378378,0.5099023697313123,0.0,-0.028507232666015625,-233.53125,-10.262603759765625,-0.1678466945886612,-60.42481005191803,-986.4406647677125,1,1789158693.3672736,38.99076796833333,-76.93790299833333,-5.846,0,1,13.571856,31.505769000000004,129.846025,1,1,1789158693.453082,0.5905963749266335,0.7908054307783839,0.1561008018738621,-0.03814750619989341,167.98542427158804,-14.165266264081808,107.99132588945398,0.012733049557924632,-0.1398312418137305,-0.008633096612064753,1.8183490729904175,1.1170755199241638,-10.10957758523941
2026-09-11T16:31:33.487,3.2753059839999423,-1321.745849609375,-118957.12646484375,-475828.505859375,-905.3959069824219,-3.9909277343750005,-4.732059001922607,-3.2414604163169862,-7.25094044451723,-1.0932822772711042,0.0,-0.036285400390625,-297.25,-13.062744140625,-0.2899170219898224,-104.37012791633606,-1310.2885775862148,1,1789158693.3672736,38.99076796833333,-76.93790299833333,-5.846,0,1,13.571856,31.505769000000004,129.846025,1,1,1789158693.481082,0.5908828237311046,0.7907958233730846,0.15484235816562508,-0.03902945647776353,168.170091781035,-14.165053319888685,107.94080364256962,-0.02771251239609116,-0.14498572269364535,-0.035297713325258516,0.9495779351615906,-0.2305543453025818,-10.010138152599335
2026-09-11T16:31:33.521,3.3087274879999313,-1321.9027099609375,-118971.24389648438,-475884.9755859375,-905.5033563232422,-4.098377075195313,-4.7065510749816895,-3.2239874863624576,-7.211854613373421,0.5228050166304424,0.0,-0.05999755859375,-491.5,-21.59912109375,-0.9307861924171448,-335.0830292701721,-6903.127440162836,1,1789158693.3672736,38.99076796833333,-76.93790299833333,-5.846,0,1,13.571856,31.505769000000004,129.846025,1,1,1789158693.513082,0.5905263729687512,0.7916768964269127,0.1519670273515904,-0.03784596530865286,168.3584938499225,-13.85140368019803,107.97901802022166,0.06891938696982688,-0.11278090733584599,-0.10240719386076728,-0.4879789120483398,1.5981897768592834,-11.049152737236023
2026-09-11T16:31:33.554,3.342140384000004,-1322.0595703125,-118985.361328125,-475941.4453125,-905.6108056640626,-4.205826416015626,-4.680227279663086,-3.2059556865692143,-7.171518626004856,0.5396658761097557,0.0,-0.07115936279296875,-582.9375,-25.61737060546875,-0.7171631455421448,-258.1787323951721,2301.6351792682967,1,1789158693.3672736,38.99076796833333,-76.93790299833333,-5.846,0,1,13.571856,31.505769000000004,129.846025,1,1,1789158693.553082,0.5885322550859374,0.7932957557055023,0.1512555099295454,-0.037860261740386154,168.392652964617,-13.774797359907176,108.26464992255073,-0.009180257332564973,-0.006868219672448085,-0.19252290646436448,2.2536662736701962,1.210729028968811,-10.014060812664033
2026-09-11T16:31:33.588,3.375551423999923,-1322.2205810546875,-118999.85229492188,-475999.4091796875,-905.721098022461,-4.316118774414063,-4.811351299285889,-3.295775640010834,-7.3724401396090515,-2.688331564711469,0.0,-0.0879669189453125,-720.625,-31.6680908203125,-0.3509522080421448,-126.34279489517212,3945.8794907407723,1,1789158693.3672736,38.99076796833333,-76.93790299833333,-5.846,0,1,13.571856,31.505769000000004,129.846025,1,1,1789158693.581082,0.586066912011773,0.794911879102667,0.15225978215833424,-0.03817902360653118,168.27509998213492,-13.837367063611211,108.62697574253922,-0.033567568437756545,-0.020638867470683345,-0.25680861880307165,0.3962867330360413,0.007551120624542236,-11.306577303981781
2026-09-11T16:31:33.621,3.4089786239999285,-1322.383544921875,-119014.51904296875,-476058.076171875,-905.8327282714845,-4.4277490234375,-4.811807632446289,-3.2960882282257082,-7.373139379531372,-0.009351313148399513,0.0,-0.09530448913574219,-780.734375,-34.30961608886719,-0.0762939527630806,-27.465822994709015,2957.9794867786327,1,1789158693.3672736,38.99076796833333,-76.93790299833333,-5.846,0,1,13.571856,31.505769000000004,129.846025,1,1,1789158693.613082,0.5829349497313648,0.7970507074922655,0.1524714680792998,-0.04061361212097804,168.36207653977675,-14.03438232561725,109.07651376323379,-0.007729190592456889,0.011174470535893695,-0.2769148117860463,2.08705128742218,-0.43159067361831666,-9.921584101638793
2026-09-11T16:31:33.655,3.4423903360000168,-1322.548828125,-119029.39453125,-476117.578125,-905.945947265625,-4.540968017578125,-4.917036056518555,-3.36816969871521,-7.534381036853987,-2.157371357963081,0.0,-0.09585762023925781,-785.265625,-34.50874328613281,0.015258789993822575,5.493164397776127,986.4501224121062,1,1789158693.3672736,38.99076796833333,-76.93790299833333,-5.846,0,1,13.571856,31.505769000000004,129.846025,1,1,1789158693.6530821,0.5784787355930477,0.8001540848466374,0.1530607744822905,-0.04108761717099905,168.25834615603233,-14.054081851585964,109.7215419583608,0.007010289473560425,0.05132297745122005,-0.26989771552840314,3.889121321144104,1.6429081015968323,-12.100327568073272
2026-09-11T16:31:33.688,3.47580255999992,-1322.70947265625,-119043.8525390625,-476175.41015625,-906.0559887695313,-4.651009521484375,-4.839341163635254,-3.3149486970901494,-7.415329046819402,1.592860194676498,0.0,-0.09461212158203125,-775.0625,-34.06036376953125,0.0915527418255806,32.958987057209015,822.0291669154494,1,1789158693.3672736,38.99076796833333,-76.93790299833333,-5.846,0,1,13.571856,31.505769000000004,129.846025,1,1,1789158693.681082,0.575645987010375,0.8020733598396854,0.15367929217580972,-0.04114241401123432,168.15250942985259,-14.059430024270517,110.13226139985217,0.05107287176940927,0.03344050846821135,-0.23453804301469883,-2.7700844711875914,-3.6729827515792843,-5.957834172763825
2026-09-11T16:31:33.721,3.5092225280000093,-1322.8677978515625,-119058.10180664062,-476232.4072265625,-906.1644415283204,-4.759462280273437,-4.736142158508301,-3.2442573785781863,-7.257197070906815,2.115241956897572,0.0,-0.09151268005371094,-749.671875,-32.94456481933594,0.2136230617761612,76.90430223941803,1314.9418689476786,1,1789158693.3672736,38.99076796833333,-76.93790299833333,-5.846,0,1,13.571856,31.505769000000004,129.846025,1,1,1789158693.713082,0.5728440776469239,0.8042010839105519,0.15284296854835938,-0.04182470929084503,168.229157303537,-14.027131222228194,110.52750118322892,0.035187233983607284,0.059448706849730054,-0.22793371712515226,-4.683950316753387,-2.3025033914756774,-9.218937617549896
2026-09-11T16:31:33.755,3.5426353919999656,-1323.0225830078125,-119072.03247070312,-476288.1298828125,-906.2704693603516,-4.865490112304688,-4.633585453033447,-3.1740060353279116,-7.100049291624705,2.1025238438215506,0.0,-0.08687210083007812,-711.65625,-31.273956298828125,0.1373291313648224,49.43848729133606,-822.0131907315081,1,1789158693.3672736,38.99076796833333,-76.93790299833333,-5.846,0,1,13.571856,31.505769000000004,129.846025,1,1,1789158693.753082,0.5701668821020512,0.8057652717726931,0.15432044161949257,-0.04286320866977292,168.10623615646097,-14.184917427252197,110.91796213398497,-0.121205960701073,0.03362917856035194,-0.16321516313195053,0.9980227869606018,0.9889026023101807,-5.900955601825714
2026-09-11T16:31:33.788,3.576057887999923,-1323.178955078125,-119086.10595703125,-476344.423828125,-906.3775842285157,-4.97260498046875,-4.661585330963135,-3.1931859517097476,-7.142953542657803,-0.573862478190153,0.0,-0.07706069946289062,-631.28125,-27.741851806640625,0.3051758110523224,109.86329197883606,1807.9082031329149,1,1789158693.3672736,38.99076796833333,-76.93790299833333,-5.846,0,1,13.571856,31.505769000000004,129.846025,1,1,1789158693.781082,0.5687305205101557,0.8065815271437358,0.15490999388803733,-0.044437921917375035,168.12535490631092,-14.352670376055295,111.12415744195204,-0.059583969866759616,0.05330375161930842,-0.13320178318295522,0.4100160432624817,0.505042483329773,-10.700232124481202
2026-09-11T16:31:33.822,3.6094854719999603,-1323.3330078125,-119099.970703125,-476399.8828125,-906.4831103515626,-5.078131103515625,-4.584897041320801,-3.140654473304749,-7.025443972138389,1.5715009019180146,0.0,-0.06797027587890625,-556.8125,-24.46929931640625,0.15258795022964478,54.93166208267212,-1643.302426406366,1,1789158693.3672736,38.99076796833333,-76.93790299833333,-5.846,0,1,13.571856,31.505769000000004,129.846025,1,1,1789158693.809082,0.5673176057221164,0.8076365592945606,0.1544659849475307,-0.044879637061346435,168.17206582133412,-14.344728973087719,111.32203394187495,0.007247828784756852,0.043834118696762785,-0.13329725269303933,2.7246796809387206,-0.4682675452232361,-13.43795465013504
2026-09-11T16:31:33.855,3.6429166719999557,-1323.4862060546875,-119113.75854492188,-476455.0341796875,-906.588051147461,-5.183071899414063,-4.560327053070068,-3.123824031352997,-6.987795345725201,0.5034351728850313,0.0,-0.066131591796875,-541.75,-23.807373046875,0.0,0.0,-1643.125645584951,1,1789158693.3672736,38.99076796833333,-76.93790299833333,-5.846,0,1,13.571856,31.505769000000004,129.846025,1,1,1789158693.853082,0.5656472800398908,0.8090647850928789,0.15283455533134252,-0.04581404591124503,168.36190614399783,-14.302066569950624,111.5474332394337,-0.003775670770839333,0.009773145679467448,-0.0985891115891045,0.38971627742767334,0.5203408575820924,-10.471737175712585
2026-09-11T16:31:33.888,3.676328607999949,-1323.6375732421875,-119127.38159179688,-476509.5263671875,-906.6917376708985,-5.2867584228515625,-4.561032772064209,-3.1243074488639833,-6.98887671989974,-0.014468407666839133,0.0,-0.0655059814453125,-536.625,-23.5821533203125,0.061035171151161194,21.97266161441803,657.6291063894812,1,1789158693.3672736,38.99076796833333,-76.93790299833333,-5.846,0,1,13.571856,31.505769000000004,129.846025,1,1,1789158693.881082,0.5647174624356059,0.8098985498095973,0.15195649101658573,-0.045472535387062175,168.4093498215129,-14.198455270576687,111.67463194305506,-0.06920021044647277,-0.05545748791626942,-0.10859909844806757,0.7779615573310852,-0.009218251152038575,-8.435876602134705
2026-09-11T16:31:33.922,3.7097504000000754,-1323.789794921875,-119141.08154296875,-476564.326171875,-906.7960095214844,-5.391030273437501,-4.561457633972168,-3.124598479270935,-6.989527736379142,-0.008707803787145372,0.0,-0.06549453735351562,-536.53125,-23.578033447265625,-0.0762939527630806,-27.465822994709015,-1479.2290194655002,1,1789158693.3672736,38.99076796833333,-76.93790299833333,-5.846,0,1,13.571856,31.505769000000004,129.846025,1,1,1789158693.909082,0.5635995770150093,0.8110945794924824,0.1501271243811518,-0.04407886604101784,168.47928477252592,-13.929477612558044,111.82404792686897,0.04299304453022672,-0.040709804802767736,-0.11404103505578589,-1.2012165783119202,0.7765886263084412,-12.510343611335754
2026-09-11T16:31:33.956,3.7431627519999893,-1323.943359375,-119154.90234375,-476619.609375,-906.9012011718751,-5.496221923828125,-4.5870561599731445,-3.142133469581604,-7.0287523925859,-0.5248056260964257,0.0,-0.06582832336425781,-539.265625,-23.698196411132812,0.0,0.0,822.0260278228784,1,1789158693.3672736,38.99076796833333,-76.93790299833333,-5.846,0,1,13.571856,31.505769000000004,129.846025,1,1,1789158693.953082,0.5616733573789878,0.8125334639579135,0.1498041163986167,-0.04325663266135985,168.42541563725342,-13.802562190533486,112.09640487146021,-0.05816135199345904,0.01657120311598536,-0.12475456413622789,-0.48484078399658204,0.03726527061462402,-11.262741577758788
2026-09-11T16:31:33.989,3.7765752319999137,-1324.0963134765625,-119168.66821289062,-476674.6728515625,-907.0059747314453,-5.600995483398438,-4.6142659187316895,-3.1607721543312075,-7.0704459429384485,-0.5578360166514287,0.0,-0.06568527221679688,-538.09375,-23.646697998046875,0.0762939527630806,27.465822994709015,822.0228787199005,1,1789158693.3672736,38.99076796833333,-76.93790299833333,-5.846,0,1,13.571856,31.505769000000004,129.846025,1,1,1789158693.981082,0.5599670749314537,0.8136848556430563,0.15013829609327428,-0.04257138400449962,168.32020356289408,-13.734575236622286,112.34100415341534,0.01210822168571066,-0.0139118449347216,-0.1441634980830308,-0.8332710642433167,0.45336143697738646,-9.255320289649964
2026-09-11T16:31:34.023,3.809998751999956,-1324.252197265625,-119182.69775390625,-476730.791015625,-907.1127551269532,-5.707775878906251,-4.667084693908691,-3.1969530153274537,-7.151380223978727,-1.0824970259326543,0.0,-0.06670570373535156,-546.453125,-24.014053344726562,-0.0457763746380806,-16.479494869709015,-1314.8022070794057,1,1789158693.3672736,38.99076796833333,-76.93790299833333,-5.846,0,1,13.571856,31.505769000000004,129.846025,1,1,1789158694.021082,0.5577759773540268,0.8151800053056252,0.14952721002016967,-0.044823336558815666,168.48592438284157,-13.87966731023163,112.6434212844184,-0.004081452455788739,0.03138800126786602,-0.15283464287278903,1.9932997118759155,0.943988144569397,-9.026531141376495
2026-09-11T16:31:34.057,3.843413344000055,-1324.41259765625,-119197.1337890625,-476788.53515625,-907.2226293945313,-5.817650146484375,-4.746232986450195,-3.251169595718384,-7.272659260286284,-1.6225420436307965,0.0,-0.06700515747070312,-548.90625,-24.121856689453125,0.0457763709127903,16.479493528604507,986.3651304859762,1,1789158694.0503254,38.990753705,-76.93790893666667,-5.9289999999999985,0,1,24.860196,16.516096,78.641424,1,1,1789158694.053082,0.5553428626227465,0.8164923856548086,0.15182771697559277,-0.043391628912405625,168.12807116092037,-13.85648580666405,113.00401454150207,0.012356232972419057,0.03072442708625778,-0.16640422874119457,0.8046356457710266,2.1403013978004455,-10.68267822069168
2026-09-11T16:31:34.089,3.8768244479999794,-1324.572998046875,-119211.56982421875,-476846.279296875,-907.3325036621095,-5.927524414062501,-4.876953601837158,-3.3407132172584535,-7.47296263703125,-2.6800557545261725,0.0,-0.066864013671875,-547.75,-24.071044921875,0.015258795581758022,5.493166409432888,-328.82263091924494,1,1789158694.0503254,38.990753705,-76.93790893666667,-5.9289999999999985,0,1,24.860196,16.516096,78.641424,1,1,1789158694.081082,0.5530722384354705,0.8177324058873949,0.1537269948969359,-0.04234173441827949,167.8365998383234,-13.844797716076474,113.33744012231112,0.034253308300865114,0.012894317980808907,-0.1689482206589015,1.9716270150184632,2.468824178218841,-11.085633475837707
2026-09-11T16:31:34.123,3.9102450240000053,-1324.741943359375,-119226.77490234375,-476907.099609375,-907.4482312011719,-6.043251953125001,-5.008141040802002,-3.4305766129493716,-7.673981328179509,-2.688864359813799,0.0,-0.06728744506835938,-551.21875,-24.223480224609375,0.0610351599752903,21.972657591104507,493.0941699406631,1,1789158694.0503254,38.990753705,-76.93790893666667,-5.9289999999999985,0,1,24.860196,16.516096,78.641424,1,1,1789158694.109082,0.5510373416176353,0.8191933699894004,0.15379333114529262,-0.04034454118729219,167.67126294706443,-13.62650390344842,113.62446767564805,0.0393039420902863,-0.02619966100046248,-0.17056509367794906,-2.160208897628784,2.1498138484573364,-11.044935877666475
2026-09-11T16:31:34.156,3.9436799679999694,-1324.9122314453125,-119242.10083007812,-476968.4033203125,-907.5648785400391,-6.159899291992188,-5.139514923095703,-3.520567722320557,-7.87528570669415,-2.691528640552885,0.0,-0.06755256652832031,-553.390625,-24.318923950195312,-0.030517585575580597,-10.986330807209015,-985.7647256220573,1,1789158694.0503254,38.990753705,-76.93790893666667,-5.9289999999999985,0,1,24.860196,16.516096,78.641424,1,1,1789158694.149082,0.5478950139260003,0.8212548072164234,0.15478910210366073,-0.03730856749977811,167.33291921935447,-13.349830821335223,114.07042681324006,-0.023649560430373563,0.030088952705606645,-0.17743331335039714,3.4557654504966733,3.467631497192383,-9.645134633579254
2026-09-11T16:31:34.189,3.977091967999968,-1325.089111328125,-119258.02001953125,-477032.080078125,-907.6860412597657,-6.281062011718751,-5.323282241821289,-3.6464483356475834,-8.156872619111443,-3.7675270360059967,0.0,-0.06741523742675781,-552.265625,-24.269485473632812,0.0,0.0,328.8139233571629,1,1789158694.0503254,38.990753705,-76.93790893666667,-5.9289999999999985,0,1,24.860196,16.516096,78.641424,1,1,1789158694.181082,0.5454313802019878,0.8226446070468376,0.15632310238642097,-0.03638059438757836,167.08394297364413,-13.319659902415063,114.42394074574264,0.06625915612393712,-0.04560126456440705,-0.18180815565344613,0.9717409645271301,2.090189415473938,-8.175608106842041
2026-09-11T16:31:34.224,4.010511936000057,-1325.2728271484375,-119274.55444335938,-477098.2177734375,-907.8118865966798,-6.406907348632813,-5.4021759033203125,-3.7004904937744145,-8.277761483926295,-1.617061935148673,0.0,-0.06688499450683594,-547.921875,-24.078598022460938,-0.0762939527630806,-27.465822994709015,-821.8386981889282,1,1789158694.0503254,38.990753705,-76.93790893666667,-5.9289999999999985,0,1,24.860196,16.516096,78.641424,1,1,1789158694.221082,0.5423673115175173,0.8247243413712074,0.15665828889145197,-0.03355056882812664,166.82868641451415,-13.018909212326209,114.84883735739047,0.0711324644613557,-0.027194324141174047,-0.17567978105091842,-0.2427145915031433,1.300459877948761,-8.363601590442657
2026-09-11T16:31:34.256,4.043930047999993,-1325.4586181640625,-119291.27563476562,-477165.1025390625,-907.9391534423829,-6.534174194335938,-5.585249423980713,-3.8258958554267886,-8.558285288624697,-3.7526165946363235,0.0,-0.06729316711425781,-551.265625,-24.225540161132812,0.0,0.0,821.8843420825763,1,1789158694.0503254,38.990753705,-76.93790893666667,-5.9289999999999985,0,1,24.860196,16.516096,78.641424,1,1,1789158694.253082,0.539871459799167,0.8259309578718022,0.15914551911761507,-0.03239696695785892,166.47184766644156,-13.02355220718896,115.20983384930976,-0.05043687378998253,-0.01698414801700722,-0.16510622737648636,0.9363389574432373,2.4412674912643433,-8.258180101203918
2026-09-11T16:31:34.289,4.077340031999938,-1325.6529541015625,-119308.76586914062,-477235.0634765625,-908.0722735595704,-6.667294311523438,-5.793788909912109,-3.968745403289795,-8.877830626543018,-4.275654482900689,0.0,-0.067230224609375,-550.75,-24.202880859375,0.0457763709127903,16.479493528604507,493.25056631668775,1,1789158694.0503254,38.990753705,-76.93790893666667,-5.9289999999999985,0,1,24.860196,16.516096,78.641424,1,1,1789158694.281082,0.5375107120446139,0.8273698802718013,0.16022316636991882,-0.029493263887109312,166.1522727153181,-12.770536533303808,115.53666113805416,-0.026773525258518217,0.016336630864517324,-0.17299633732597716,-0.6044819159698487,2.771163202705383,-10.468304848155974
2026-09-11T16:31:34.324,4.110755295999979,-1325.85400390625,-119326.8603515625,-477307.44140625,-908.2099926757813,-6.805013427734376,-5.923736095428467,-4.0577592253685,-9.076948875645346,-2.663867090159608,0.0,-0.066375732421875,-543.75,-23.895263671875,-0.0457763709127903,-16.479493528604507,-986.3452539883701,1,1789158694.0503254,38.990753705,-76.93790893666667,-5.9289999999999985,0,1,24.860196,16.516096,78.641424,1,1,1789158694.321082,0.5346223489490751,0.8293922368021748,0.1592280952151195,-0.030559372222340515,166.2719009631642,-12.764555705944165,115.9315719030893,-0.04375575341334824,0.04499650797859101,-0.18423486144541903,-0.7321645010757447,0.949676001663208,-15.322890877723694
2026-09-11T16:31:34.357,4.1441777279999314,-1326.0511474609375,-119344.60327148438,-477378.4130859375,-908.3450360107422,-6.940056762695313,-5.898864269256592,-4.040722024440766,-9.038837742575074,0.5097534771783997,0.0,-0.06645393371582031,-544.390625,-23.923416137695312,-0.0762939527630806,-27.465822994709015,-328.71125195558045,1,1789158694.0503254,38.990753705,-76.93790893666667,-5.9289999999999985,0,1,24.860196,16.516096,78.641424,1,1,1789158694.353082,0.532631890509895,0.8310372198616974,0.15722407690548915,-0.03099996867116086,166.46877502236893,-12.650855212558666,116.19327470557336,0.034923514733630937,0.027671148092818898,-0.17794033149810148,-0.10738281927108764,-0.49101897359848024,-5.678050443649291
2026-09-11T16:31:34.390,4.177591871999994,-1326.24609375,-119362.1484375,-477448.59375,-908.47857421875,-7.073594970703126,-5.899299621582031,-4.041020240783692,-9.03950483353545,-0.008924853586733783,0.0,-0.06599044799804688,-540.59375,-23.756561279296875,0.0,0.0,821.9819425767103,1,1789158694.0503254,38.990753705,-76.93790893666667,-5.9289999999999985,0,1,24.860196,16.516096,78.641424,1,1,1789158694.381082,0.5311764337840955,0.8321782734351485,0.15566166000586787,-0.03317175031745182,166.7330216522988,-12.742938781864398,116.38812137009826,0.0694684675525043,0.01273322409084983,-0.15939481193226013,0.2918459088134766,-0.5636862512969971,-9.156469256019593
2026-09-11T16:31:34.423,4.211009888000035,-1326.436767578125,-119379.30908203125,-477517.236328125,-908.6091857910156,-7.204206542968751,-5.744072437286377,-3.9346896195411687,-8.801650007921358,3.181835248459739,0.0,-0.064788818359375,-530.75,-23.323974609375,0.0,0.0,0.0,1,1789158694.0503254,38.990753705,-76.93790893666667,-5.9289999999999985,0,1,24.860196,16.516096,78.641424,1,1,1789158694.421082,0.5292715969881617,0.8340124488773751,0.15249473860096088,-0.03225161140453756,166.96713446851174,-12.428361696080074,116.62602489181069,0.14648670585036047,-0.0919692522692152,-0.12938265371374125,2.488045212535858,0.14739395193099974,-9.855977612056734
2026-09-11T16:31:34.457,4.244429472000093,-1326.627685546875,-119396.49169921875,-477585.966796875,-908.7399645996095,-7.3349853515625005,-5.719040870666504,-3.9175429964065556,-8.763294104345363,0.5130711122730797,0.0,-0.060749053955078125,-497.65625,-21.869659423828125,0.1983642727136612,71.41113817691803,2136.8051193215074,1,1789158694.0503254,38.990753705,-76.93790893666667,-5.9289999999999985,0,1,24.860196,16.516096,78.641424,1,1,1789158694.453082,0.5280478474254225,0.8352639374935359,0.1502533510797972,-0.03039006484796787,167.06337194160008,-12.090085743888872,116.77420246876686,0.052392166150991785,-0.1170548696081297,-0.10748645104992119,-1.9480910546302794,-1.2239680066871643,-7.271336895427703
2026-09-11T16:31:34.490,4.2778384959999585,-1326.8170166015625,-119413.53149414062,-477654.1259765625,-908.8696563720704,-7.464677124023438,-5.694174766540527,-3.9005097150802617,-8.725191739173804,0.5098407342388172,0.0,-0.05852699279785156,-479.453125,-21.069717407226562,0.061035171151161194,21.97266161441803,-1479.79409882487,1,1789158694.0503254,38.990753705,-76.93790893666667,-5.9289999999999985,0,1,24.860196,16.516096,78.641424,1,1,1789158694.481082,0.5275282391124746,0.8358411203190442,0.14889793384758904,-0.030215622095465456,167.1814178288784,-11.982132496443233,116.83596243129891,-0.0837782475566806,-0.14281069337981,-0.09172612790441238,-1.2707457279586791,0.08933858297348023,-9.995722376861572
2026-09-11T16:31:34.524,4.311258592000058,-1327.005859375,-119430.52734375,-477722.109375,-908.9990136718751,-7.594034423828125,-5.617242336273193,-3.847811000347138,-8.607308071642658,1.5768570722527613,0.0,-0.05751991271972656,-471.203125,-20.707168579101562,0.0610351599752903,21.972657591104507,-0.00012038605521440883,1,1789158694.0503254,38.990753705,-76.93790893666667,-5.9289999999999985,0,1,24.860196,16.516096,78.641424,1,1,1789158694.521082,0.5271067244000427,0.8366657190203372,0.1457566812524359,-0.03006602033385051,167.48119041483054,-11.769156086840363,116.87281695073199,-0.012668123309750442,-0.11552596118338267,-0.07832828243440311,-0.18054042947769164,0.2084893824386597,-9.886182094554902
2026-09-11T16:31:34.557,4.3446825920000265,-1327.1962890625,-119447.666015625,-477790.6640625,-909.1294580078126,-7.724478759765626,-5.618504524230957,-3.848675599098206,-8.609242123966986,-0.025867602652843383,0.0,-0.056140899658203125,-459.90625,-20.210723876953125,0.1068115308880806,38.452151119709015,493.04372692138026,1,1789158694.0503254,38.990753705,-76.93790893666667,-5.9289999999999985,0,1,24.860196,16.516096,78.641424,1,1,1789158694.549082,0.5268063488329441,0.8369250948695276,0.1454635089518763,-0.029526665411826122,167.47439148724303,-11.69403886885476,116.91066614081376,0.0069408253693310495,-0.1486657494214754,-0.05135456791068115,-0.6885249078559875,1.8837594295692446,-10.41927159734726
2026-09-11T16:31:34.590,4.378102912000031,-1327.38525390625,-119464.6728515625,-477858.69140625,-909.2588989257813,-7.853919677734376,-5.724146366119385,-3.921040260791779,-8.771117261971579,-2.165289311818765,0.0,-0.050167083740234375,-410.96875,-18.060150146484375,0.2746582329273224,98.87696385383606,1808.026156964341,1,1789158694.0503254,38.990753705,-76.93790893666667,-5.9289999999999985,0,1,24.860196,16.516096,78.641424,1,1,1789158694.581082,0.5263217577917109,0.8373057852366589,0.14561152761279098,-0.026489852973074778,167.2731215783511,-11.398825427526706,116.9692877084824,-0.04611805655592257,-0.23126642333183545,-0.044753209080863,1.1230575765228272,1.5666123633384705,-9.818418141937256
2026-09-11T16:31:34.624,4.411528672000031,-1327.5809326171875,-119482.28393554688,-477929.1357421875,-909.3929388427736,-7.987959594726563,-5.828315258026123,-3.9923959517478944,-8.930735396715932,-2.134751489752673,0.0,-0.03711509704589844,-304.046875,-13.361434936523438,0.4272461235523224,153.80860447883606,1643.3924202471346,1,1789158694.0503254,38.990753705,-76.93790893666667,-5.9289999999999985,0,1,24.860196,16.516096,78.641424,1,1,1789158694.621082,0.5270467244585563,0.8375704643809597,0.14244256659460952,-0.020188676432845783,167.22609652593087,-10.600892071428655,116.82913997934315,-0.07823089306214184,-0.3637327247680003,0.01960388722425071,-0.16759565126419068,0.017161637783050538,-9.99807597290039
2026-09-11T16:31:34.657,4.444947808000052,-1327.7757568359375,-119499.81811523438,-477999.2724609375,-909.5263934326173,-8.121414184570312,-5.828103065490723,-3.9922505998611455,-8.930410253805345,0.004349360999303614,0.0,-0.029506683349609375,-241.71875,-10.622406005859375,0.030517607927322388,10.98633885383606,-4273.6672074619955,1,1789158694.0503254,38.990753705,-76.93790893666667,-5.9289999999999985,0,1,24.860196,16.516096,78.641424,1,1,1789158694.6530821,0.5284969153587367,0.8374497289137365,0.13830805789152265,-0.015486869305474348,167.37644131614002,-9.911668210232552,116.58870595201034,-0.06631256319904816,-0.3376187594338107,0.06108181143082115,-0.37333917165756225,-0.5574099951934814,-15.113322763767243
2026-09-11T16:31:34.690,4.478360256000087,-1327.9610595703125,-119516.49536132812,-478065.9814453125,-909.6533258056642,-8.248346557617188,-5.620677947998047,-3.8501643943786625,-8.612572464161278,4.25249312718218,0.0,-0.028181076049804688,-230.859375,-10.145187377929688,-0.0915527418255806,-32.958987057209015,-1315.2381385224564,1,1789158694.0503254,38.990753705,-76.93790893666667,-5.9289999999999985,0,1,24.860196,16.516096,78.641424,1,1,1789158694.681082,0.529616336085155,0.8375511853249954,0.13345809701852573,-0.01426481169259767,167.79839114315584,-9.512233958229752,116.40548118361636,0.3704943048231515,-0.21192276469905708,0.029044024082437638,2.308289315071106,-4.219311232089996,4.333656772975922
2026-09-11T16:31:34.724,4.51178544000004,-1328.1478271484375,-119533.30444335938,-478133.2177734375,-909.7812615966798,-8.376282348632813,-5.491917610168457,-3.761963562965393,-8.415272823383566,2.6387538035211695,0.0,-0.03329658508300781,-272.765625,-11.986770629882812,-0.1525879204273224,-54.93165135383606,-657.368536749366,1,1789158694.0503254,38.990753705,-76.93790893666667,-5.9289999999999985,0,1,24.860196,16.516096,78.641424,1,1,1789158694.721082,0.5304591027813967,0.8373897219531499,0.13158729736076402,-0.008739394536898372,167.66279689251903,-8.872716644334565,116.25501219989472,0.1642089536080361,-0.24565352142187508,0.025561743158858553,-10.107714321708679,2.833337364730835,-7.371658926582337
2026-09-11T16:31:34.757,4.545208671999944,-1328.3331298828125,-119549.98168945312,-478199.9267578125,-909.9081939697267,-8.503214721679688,-5.492956638336182,-3.7626752972602846,-8.416864927658107,-0.021294598167331497,0.0,-0.05451011657714844,-446.546875,-19.623641967773438,-0.9002686142921448,-324.0967011451721,-8053.232248518167,1,1789158694.0503254,38.990753705,-76.93790893666667,-5.9289999999999985,0,1,24.860196,16.516096,78.641424,1,1,1789158694.749082,0.5298525979432023,0.8378049594952814,0.13144058759264715,-0.007902292784281312,167.62099094298327,-8.773539514662065,116.33238862400304,0.10772311769649162,-0.08500242149402944,-0.1210200831357356,2.3811527257728575,-1.5633761687850953,-7.952801015167236
2026-09-11T16:31:34.791,4.5786384959999396,-1328.5115966796875,-119566.04370117188,-478264.1748046875,-910.030443725586,-8.625464477539063,-5.363725185394287,-3.674151751995087,-8.218843396553066,2.6480410206530043,0.0,-0.07038116455078125,-576.5625,-25.33721923828125,-0.1068115308880806,-38.452151119709015,8544.602269683006,1,1789158694.0503254,38.990753705,-76.93790893666667,-5.9289999999999985,0,1,24.860196,16.516096,78.641424,1,1,1789158694.781082,0.5284585054529127,0.8387600475216859,0.13069587319375986,-0.011479522028977273,167.89370275538727,-9.055540443153099,116.53651494700561,0.022375295543492504,0.08324347867386954,-0.14616399447166672,3.3336726559829715,-1.9151407100868225,-8.682415787200927
2026-09-11T16:31:34.824,4.61205763199996,-1328.689208984375,-119582.02880859375,-478328.115234375,-910.1521081542969,-8.747128906250001,-5.287901401519775,-3.6222124600410464,-8.102658509397465,1.554178179651583,0.0,-0.0949249267578125,-777.625,-34.1729736328125,-0.7934570908546448,-285.6445527076721,-7396.732267040413,1,1789158694.0503254,38.990753705,-76.93790893666667,-5.9289999999999985,0,1,24.860196,16.516096,78.641424,1,1,1789158694.821082,0.5239453358080031,0.8411276574751311,0.13324550033891822,-0.015204787235228782,167.81194863659448,-9.5091465000703,117.17930584708928,0.10134830260358232,0.19777826737504464,-0.28280599614322793,0.6939185654449463,1.2762374520492554,-6.104933925189973
2026-09-11T16:31:34.858,4.645477120000123,-1328.8656005859375,-119597.90405273438,-478391.6162109375,-910.2729364013672,-8.867957153320313,-5.289550304412842,-3.623341958522797,-8.105185125543112,-0.03379759982394655,0.0,-0.10212135314941406,-836.578125,-36.76368713378906,-0.2288818508386612,-82.39746630191803,6081.69360358726,1,1789158694.0503254,38.990753705,-76.93790893666667,-5.9289999999999985,0,1,24.860196,16.516096,78.641424,1,1,1789158694.849082,0.5202664748742801,0.842864253068863,0.1360163388975341,-0.020054963811206118,167.77810518143713,-10.09825293555807,117.71316197126296,0.04759460510310977,0.2738454757634891,-0.32864445095298106,1.009202368144989,-0.40883924524307247,-6.559864426193237
2026-09-11T16:31:34.891,4.6788893440000265,-1329.0391845703125,-119613.52661132812,-478454.1064453125,-910.3918414306642,-8.986862182617188,-5.21314811706543,-3.5710064601898197,-7.988113949959323,1.5663578196150256,0.0,-0.10848045349121094,-888.671875,-39.05296325683594,-0.030517607927322388,-10.98633885383606,2137.275490799076,1,1789158694.0503254,38.990753705,-76.93790893666667,-5.9289999999999985,0,1,24.860196,16.516096,78.641424,1,1,1789158694.881082,0.5156981521870243,0.8453013229701507,0.13745193497747527,-0.02506102126309781,167.87051784428323,-10.610742892560994,118.35781470280396,0.03825377747936132,0.26069791050821584,-0.335063597408891,0.9696815679931641,-1.7786321398353577,-7.488750329513549
2026-09-11T16:31:34.924,4.712308928000084,-1329.2113037109375,-119629.01733398438,-478516.0693359375,-910.5097430419922,-9.104763793945313,-5.136200428009033,-3.5182972931861882,-7.870206901364943,1.5771939891155071,0.0,-0.10873603820800781,-890.765625,-39.14497375488281,0.030517585575580597,10.986330807209015,657.4788501558626,1,1789158694.0503254,38.990753705,-76.93790893666667,-5.9289999999999985,0,1,24.860196,16.516096,78.641424,1,1,1789158694.921082,0.509562223141311,0.8486700831253484,0.13876757936733472,-0.029137427337180753,167.89542513637886,-11.004001916154337,119.20701464098336,0.04854423874911988,0.2697448246859284,-0.34467948892275374,0.35362780483245854,-0.6153672976493836,-8.312999275608064
2026-09-11T16:31:34.958,4.7457296640000095,-1329.3822021484375,-119644.39819335938,-478577.5927734375,-910.6268084716797,-9.221829223632813,-5.059272766113281,-3.465601844787598,-7.752330540416057,1.5767291420125438,0.0,-0.108489990234375,-888.75,-39.056396484375,0.015258789993822575,5.493164397776127,-164.36401668249138,1,1789158694.0503254,38.990753705,-76.93790893666667,-5.9289999999999985,0,1,24.860196,16.516096,78.641424,1,1,1789158694.953082,0.5051094285044936,0.8508502224846158,0.1411871045738584,-0.03137778889268612,167.72018944978706,-11.304635076690264,119.82880438605243,0.0532189286176615,0.11675310218045988,-0.30512753554575905,1.6708570545578003,0.8777932559776307,-9.797431910591126
2026-09-11T16:31:34.991,4.779142079999929,-1329.54931640625,-119659.4384765625,-478637.75390625,-910.7412817382814,-9.336302490234376,-5.0069475173950195,-3.4297590494155887,-7.67215249063973,1.0727388097914259,0.0,-0.10505104064941406,-860.578125,-37.81837463378906,0.1983642876148224,71.41114354133606,1972.8588062509275,1,1789158694.0503254,38.990753705,-76.93790893666667,-5.9289999999999985,0,1,24.860196,16.516096,78.641424,1,1,1789158694.981082,0.5017107772436804,0.8528675363578033,0.14070463414235018,-0.033248569223059105,167.8300664021381,-11.414143408349108,120.28730049123745,0.04867444031131866,0.045625350108084564,-0.30584800746098234,0.02353596038818359,-0.9181966546440125,-8.910616536464692
2026-09-11T16:31:35.025,4.812564831999907,-1329.7159423828125,-119674.43481445312,-478697.7392578125,-910.8554205322266,-9.450441284179687,-5.007869720458984,-3.4303907585144047,-7.673565583648893,-0.01890057104861804,0.0,-0.09881973266601562,-809.53125,-35.575103759765625,0.3967285454273224,142.82227635383606,2136.6024201880737,1,1789158694.0503254,38.990753705,-76.93790893666667,-5.9289999999999985,0,1,24.860196,16.516096,78.641424,1,1,1789158695.021082,0.49733469699753485,0.8553130762991984,0.141558949844026,-0.032539274623577356,167.64556360444007,-11.33042791773828,120.8772721432831,0.04357546090161723,-0.10194625240531559,-0.26434111078882877,1.815309011440277,0.35225487380981446,-8.09509550901413
2026-09-11T16:31:35.058,4.845988863999992,-1329.880126953125,-119689.21142578125,-478756.845703125,-910.9678869628907,-9.562907714843751,-4.905014514923096,-3.3599349427223206,-7.5159604123172805,2.1079388564463426,0.0,-0.09587287902832031,-785.390625,-34.51423645019531,0.0915527418255806,32.958987057209015,-3286.955005797905,1,1789158695.043668,38.990735995,-76.93791257833334,-6.067,0,1,12.215025,15.015625,58.89027600000001,1,1,1789158695.053082,0.49410448921382527,0.8574081121123569,0.14053425520763332,-0.031019447704698996,167.62393973188415,-11.073603856715504,121.29663681511326,-0.08474428729765947,-0.21412048329316835,-0.28398548965172576,-5.556055715637206,3.1640176081848144,-7.1643463421630855
2026-09-11T16:31:35.091,4.879405599999927,-1330.0462646484375,-119704.16381835938,-478816.6552734375,-911.0816912841798,-9.676712036132812,-4.984015941619873,-3.4140509200096134,-7.637014405891217,-1.619427381758564,0.0,-0.09398078918457031,-769.890625,-33.83308410644531,-0.0610351599752903,-21.972657591104507,-1643.8363294493952,1,1789158695.043668,38.990735995,-76.93791257833334,-6.067,0,1,12.215025,15.015625,58.89027600000001,1,1,1789158695.081082,0.49164089553404167,0.8590942667094278,0.13933614253477422,-0.02883938503166926,167.59503751924422,-10.75199198576859,121.60878375591214,0.00980944852790893,-0.1946179996984585,-0.23662248974035563,2.186981052570343,1.2871228337287903,-12.55290447303772
2026-09-11T16:31:35.125,4.912831039999901,-1330.2154541015625,-119719.39086914062,-478877.5634765625,-911.1975860595704,-9.792606811523438,-5.088858127593994,-3.4858678174018864,-7.7976642300507395,-2.1485699931647795,0.0,-0.09354972839355469,-766.359375,-33.67790222167969,0.1525879055261612,54.93164598941803,2300.7716152901285,1,1789158695.043668,38.990735995,-76.93791257833334,-6.067,0,1,12.215025,15.015625,58.89027600000001,1,1,1789158695.121082,0.4878450659585395,0.8615105052964581,0.13821212300707023,-0.02653770784427758,167.53768995259495,-10.40338377521466,122.09608502227661,0.02240479160785121,-0.0038779470650062006,-0.22688878850198324,7.938091039924621,2.86216891620636,-10.475659835777282
2026-09-11T16:31:35.159,4.946254336000038,-1330.3953857421875,-119735.58471679688,-478942.3388671875,-911.3208392333985,-9.915859985351563,-5.323674201965332,-3.6467168283462525,-8.157473220173248,-4.81248201684554,0.0,-0.0924835205078125,-757.625,-33.2940673828125,0.045776382088661194,16.47949755191803,-1150.4595009822513,1,1789158695.043668,38.990735995,-76.93791257833334,-6.067,0,1,12.215025,15.015625,58.89027600000001,1,1,1789158695.1530821,0.4844406994931625,0.8633651742243404,0.138960741709318,-0.02465150856936931,167.31812019128049,-10.206883835821301,122.54298287780146,0.1687005584380435,-0.03621924717031153,-0.26963975586495836,3.757221876468659,-1.9701560174942017,-20.65633563468933
2026-09-11T16:31:35.192,4.979668255999968,-1330.5732421875,-119751.591796875,-479006.3671875,-911.4426708984375,-10.037691650390625,-5.325661659240723,-3.648078236579895,-8.160518603659384,-0.04074374493161738,0.0,-0.09456443786621094,-774.671875,-34.04319763183594,-0.2288818657398224,-82.39747166633606,-2959.155023369345,1,1789158695.043668,38.990735995,-76.93791257833334,-6.067,0,1,12.215025,15.015625,58.89027600000001,1,1,1789158695.181082,0.48134504901796893,0.8652394820548687,0.13806759980015954,-0.02459512888225159,167.37094491858187,-10.106456410899584,122.9456083561992,0.09721675919826134,-0.04159887552373365,-0.2574369373337896,-4.953731262702942,-0.8417047833824158,-3.2568865852165225
2026-09-11T16:31:35.225,5.013091904000021,-1330.7574462890625,-119768.17016601562,-479072.6806640625,-911.5688507080079,-10.163871459960939,-5.483109951019287,-3.755930316448212,-8.401776835290372,-3.226819522158282,0.0,-0.09353828430175781,-766.265625,-33.67378234863281,0.0,0.0,2465.244717339236,1,1789158695.043668,38.990735995,-76.93791257833334,-6.067,0,1,12.215025,15.015625,58.89027600000001,1,1,1789158695.221082,0.47667649753276914,0.8676564865714376,0.13961375282141797,-0.0214415025947516,166.99000107651892,-9.805780043149621,123.55342627320238,0.045024084180772514,-0.027425056668287696,-0.2515520361619151,-1.7224400344085693,2.243761557006836,-9.437527849655151
2026-09-11T16:31:35.259,5.046511616000089,-1330.948486328125,-119785.36376953125,-479141.455078125,-911.6997131347657,-10.29473388671875,-5.718498229980469,-3.9171712875366214,-8.762462615284129,-4.824726529303453,0.0,-0.09120559692382812,-747.15625,-32.834014892578125,0.0915527418255806,32.958987057209015,986.2139762647222,1,1789158695.043668,38.990735995,-76.93791257833334,-6.067,0,1,12.215025,15.015625,58.89027600000001,1,1,1789158695.249082,0.4735942452462799,0.8689995564731212,0.14170802734096047,-0.02161242018513166,166.7485511026994,-9.891710839492271,123.9721352000715,-0.024779486588114692,0.009767560625861066,-0.2549240122767682,1.320465444278717,3.8467565924453737,-6.744523648738861
2026-09-11T16:31:35.292,5.07992470399995,-1331.1474609375,-119803.271484375,-479213.0859375,-911.8360107421876,-10.431031494140626,-5.9278106689453125,-4.06055030822754,-9.083192350186863,-4.2911035547362255,0.0,-0.0883941650390625,-724.125,-31.8218994140625,0.1068115383386612,38.45215380191803,164.40164838197092,1,1789158695.043668,38.990735995,-76.93791257833334,-6.067,0,1,12.215025,15.015625,58.89027600000001,1,1,1789158695.281082,0.4697544111722627,0.8708541501981403,0.143556468189329,-0.018313457016138276,166.3414822954823,-9.600030318443649,124.46591978849649,-0.03929521544402634,0.004668232150309233,-0.24618637044250896,-0.5943810663032532,3.0645781755447388,-9.238452851371765
2026-09-11T16:31:35.326,5.113343903999976,-1331.3536376953125,-119821.82739257812,-479287.3095703125,-911.9772418212891,-10.572262573242188,-6.136206150054932,-4.203301212787628,-9.402517029320919,-4.27152369176936,0.0,-0.08319282531738281,-681.515625,-29.949417114257812,0.1983642727136612,71.41113817691803,986.2290053315045,1,1789158695.043668,38.990735995,-76.93791257833334,-6.067,0,1,12.215025,15.015625,58.89027600000001,1,1,1789158695.321082,0.4652715411026029,0.8728034942467328,0.1462719269263542,-0.01846555885841935,166.01910169959436,-9.691662323926812,125.06903517026991,-0.0135739491915355,0.0856293437613458,-0.23084387911992763,0.4099179767608642,1.1543407905387877,-8.920717386131287
2026-09-11T16:31:35.359,5.146769215999939,-1331.5640869140625,-119840.76782226562,-479363.0712890625,-912.1213995361329,-10.716420288085938,-6.2666096687316895,-4.2926276230812075,-9.602334518345568,-2.6724181450775446,0.0,-0.080657958984375,-660.75,-29.036865234375,0.015258789993822575,5.493164397776127,-1972.0974864562174,1,1789158695.043668,38.990735995,-76.93791257833334,-6.067,0,1,12.215025,15.015625,58.89027600000001,1,1,1789158695.353082,0.46164695956503476,0.8741821808214131,0.14922370513833813,-0.020491102543876764,165.77626131566103,-9.997386306530101,125.57428639200313,0.02375567644889482,0.1593112106610896,-0.2204401459817146,1.4625638051223755,1.1554195220565795,-9.527847097644806
2026-09-11T16:31:35.392,5.180182496000043,-1331.7762451171875,-119859.86206054688,-479439.4482421875,-912.2667279052735,-10.861748657226563,-6.398284912109375,-4.382825164794922,-9.804100672859066,-2.699451885999607,0.0,-0.0805206298828125,-659.625,-28.9874267578125,0.0457763746380806,16.479494869709015,328.80131707807726,1,1789158695.043668,38.990735995,-76.93791257833334,-6.067,0,1,12.215025,15.015625,58.89027600000001,1,1,1789158695.381082,0.45835475590700986,0.8756029412827592,0.15097659385491644,-0.02089198560151284,165.57677933905308,-10.077950921893079,126.01674816923563,-0.077501170901883,0.1409074118305102,-0.234856740136113,0.9166275906181335,0.41835169589996335,-10.72239515384674
2026-09-11T16:31:35.426,5.213606816000038,-1331.9945068359375,-119879.50561523438,-479518.0224609375,-912.4162371826172,-11.011257934570313,-6.476908206939697,-4.436682121753693,-9.924575254459752,-1.6113104756889367,0.0,-0.080291748046875,-657.75,-28.905029296875,0.0,0.0,-493.03904670945184,1,1789158695.043668,38.990735995,-76.93791257833334,-6.067,0,1,12.215025,15.015625,58.89027600000001,1,1,1789158695.420082,0.45396003741360536,0.8777055046667837,0.15160347637176744,-0.023868754912221773,165.6116173093381,-10.3431603195383,126.61196194681798,-0.06200037821614577,0.13518255735104362,-0.24324077826391813,2.1102930483055116,-1.2522111591529845,-10.10310519613266
2026-09-11T16:31:35.459,5.247031039999911,-1332.2093505859375,-119898.84155273438,-479595.3662109375,-912.5634051513673,-11.158425903320314,-6.399520397186279,-4.383671472072602,-9.80599380832274,1.5859949263531783,0.0,-0.08049392700195312,-659.40625,-28.977813720703125,-0.01525880303233862,-5.493169091641903,-164.34694464897004,1,1789158695.043668,38.990735995,-76.93791257833334,-6.067,0,1,12.215025,15.015625,58.89027600000001,1,1,1789158695.4490821,0.4507772562235143,0.8792683689060443,0.15192620580658212,-0.024605460819109363,165.57789103126785,-10.383702341260332,127.03136245148002,-0.09336132688060587,0.07988197453452847,-0.2289369323791986,1.634180182952881,-0.4580686290550232,-6.521814623565674
2026-09-11T16:31:35.492,5.280444448000026,-1332.4224853515625,-119918.02368164062,-479672.0947265625,-912.7094024658204,-11.304423217773438,-6.400930881500244,-4.384637653827667,-9.808155095355366,-0.02891598950522854,0.0,-0.07337760925292969,-601.109375,-26.415939331054688,0.3509521782398224,126.34278416633606,3945.600318815861,1,1789158695.043668,38.990735995,-76.93791257833334,-6.067,0,1,12.215025,15.015625,58.89027600000001,1,1,1789158695.481082,0.44771932300760103,0.8807880447258061,0.15203640295198473,-0.025392129708407794,165.57002566627622,-10.420406275506462,127.4327748070708,-0.10555681502891624,0.07577224774485741,-0.20263778761137247,-0.2107449119758606,0.5475052785301209,-15.80371093515396
2026-09-11T16:31:35.526,5.3138650559999405,-1332.6346435546875,-119937.11791992188,-479748.4716796875,-912.8547308349611,-11.449751586914063,-6.272207736968994,-4.296462299823761,-9.610912445919285,2.6383527793429273,0.0,-0.06379318237304688,-522.59375,-22.965545654296875,-0.1220703199505806,-43.945315182209015,-5095.302256289858,1,1789158695.043668,38.990735995,-76.93791257833334,-6.067,0,1,12.215025,15.015625,58.89027600000001,1,1,1789158695.521082,0.4448652029631767,0.8825891915466137,0.1498579846310553,-0.025958709520019555,165.79451543067717,-10.320542399987776,127.78905151974043,-0.021901438651576045,0.0305945745899094,-0.16285370544386252,0.13278204319000245,-0.5378947613716126,-11.534091587734222
2026-09-11T16:31:35.560,5.347287968000046,-1332.84423828125,-119955.9814453125,-479823.92578125,-912.9983032226563,-11.593323974609376,-6.300207614898682,-4.315642216205597,-9.653816696952381,-0.5738553355786307,0.0,-0.05758857727050781,-471.765625,-20.731887817382812,0.4730224907398224,170.28809666633606,6409.776977178675,1,1789158695.043668,38.990735995,-76.93791257833334,-6.067,0,1,12.215025,15.015625,58.89027600000001,1,1,1789158695.553082,0.4432981840412588,0.883641037767078,0.14879125400318077,-0.02294338971915053,165.74101243599353,-9.931183592360723,127.96195652356614,-0.03181543240167943,-0.057585393340300904,-0.09561908480098574,-1.6788004411888124,1.2692747304344176,-7.026857106895446
2026-09-11T16:31:35.593,5.380699263999986,-1333.0545654296875,-119974.91088867188,-479899.6435546875,-913.142377319336,-11.737398071289064,-6.326532363891602,-4.333674669265747,-9.694154145637398,-0.5397112719058366,0.0,-0.04140472412109375,-339.1875,-14.90570068359375,0.7171631455421448,258.1787323951721,2630.5664925117953,1,1789158695.043668,38.990735995,-76.93791257833334,-6.067,0,1,12.215025,15.015625,58.89027600000001,1,1,1789158695.581082,0.44298342568230986,0.8841972006913954,0.1468111578929762,-0.020186103596019273,165.81065194886648,-9.541783017123157,127.96849673853156,-0.11987060929037215,-0.19476548002025204,-0.030222993992159806,-1.8299209201812743,0.4946474341583252,-12.205356791305542
2026-09-11T16:31:35.626,5.4141263680000975,-1333.2646484375,-119993.818359375,-479975.2734375,-913.2862841796875,-11.881304931640626,-6.299991130828857,-4.315493924617767,-9.653484978117758,0.5438923051162099,0.0,-0.019756317138671875,-161.84375,-7.112274169921875,0.6103516221046448,219.72658395767212,-1150.3284411767165,1,1789158695.043668,38.990735995,-76.93791257833334,-6.067,0,1,12.215025,15.015625,58.89027600000001,1,1,1789158695.621082,0.4443500781074754,0.8842766788315642,0.14292070335269022,-0.013469814908587695,165.9021220608007,-8.675361880201448,127.71558113283386,-0.049928982977652185,-0.31856936331291863,0.08824943203443969,-1.9190633701515198,0.7061768781471253,-6.121114897956848
2026-09-11T16:31:35.660,5.447545536000007,-1333.4769287109375,-120012.92358398438,-480051.6943359375,-913.4316961669923,-12.026716918945313,-6.353631973266602,-4.352237901687622,-9.735678913939731,-1.0994880862968934,0.0,0.00605201767757535,49.578128814697266,2.178726363927126,0.8544922471046448,307.6172089576721,2629.9465324881294,1,1789158695.043668,38.990735995,-76.93791257833334,-6.067,0,1,12.215025,15.015625,58.89027600000001,1,1,1789158695.6530821,0.44718790357875576,0.8835601190235186,0.1389001424746568,-0.0071585881640964,166.03541132457494,-7.86728817621278,127.27519249296951,0.03417180142479698,-0.4305128616736577,0.17877337715007838,-1.0995216161346435,-3.702108502559662,-2.5735592019462583
2026-09-11T16:31:35.693,5.480957600000011,-1333.6878662109375,-120031.90795898438,-480127.6318359375,-913.5761883544923,-12.171209106445314,-6.328611373901367,-4.335098791122437,-9.697339815502936,0.5129617423569787,0.0,0.009819031693041325,80.43750762939453,3.534851409494877,0.0762939527630806,27.465822994709015,-8384.73749969268,1,1789158695.043668,38.990735995,-76.93791257833334,-6.067,0,1,12.215025,15.015625,58.89027600000001,1,1,1789158695.681082,0.4508101618177031,0.882460408907184,0.13426693520427863,-0.002492954895682879,166.31450796175497,-7.207186149954099,126.74500839029443,-0.04532166281823755,-0.4291115368172314,0.25385639437332325,-1.770100354194641,0.1434712918663025,-10.980113920097352
2026-09-11T16:31:35.727,5.514368800000057,-1333.897216796875,-120050.74951171875,-480202.998046875,-913.7195935058594,-12.3146142578125,-6.277287483215332,-4.299941926002503,-9.618696148001293,1.0522479024963547,0.0,0.009843827225267887,80.64063262939453,3.5437778010964394,-0.015258795581758022,-5.493166409432888,-986.4652991840038,1,1789158695.043668,38.990735995,-76.93791257833334,-6.067,0,1,12.215025,15.015625,58.89027600000001,1,1,1789158695.721082,0.4567279457383528,0.8801621376858461,0.12928082060184273,0.000815101478478765,166.70938253411322,-6.6992354505663885,125.93056640756939,-0.06915779894564932,-0.3119994204096363,0.2667110933801119,-0.06707748710632323,-0.9482050041389465,-9.502153674221038
2026-09-11T16:31:35.760,5.547789984000019,-1334.107177734375,-120069.64599609375,-480278.583984375,-913.8634167480469,-12.4584375,-6.252680778503418,-4.2830863332748415,-9.5809912609047,0.5043385873965489,0.0,0.0072364816442132,59.28125762939453,2.605133391916752,-0.1220703274011612,-43.94531786441803,-1150.5322927825734,1,1789158695.043668,38.990735995,-76.93791257833334,-6.067,0,1,12.215025,15.015625,58.89027600000001,1,1,1789158695.753082,0.46062776503265057,0.8785305862069671,0.12647532939983802,0.0031721023108696646,166.90621164818842,-6.369650488720959,125.39425939196256,-0.053483345999338634,-0.26039317602081763,0.23056916429566368,-1.4777641128730774,0.4209994914436341,-12.119450535888673
2026-09-11T16:31:35.793,5.581210207999902,-1334.310302734375,-120087.92724609375,-480351.708984375,-914.0025573730469,-12.597578125000002,-6.098084926605225,-4.177188174724579,-9.344103826781886,3.1686848822626974,0.0,-0.018999099731445312,-155.640625,-6.8396759033203125,-0.9613038301467896,-346.06937885284424,-9040.156672483197,1,1789158695.043668,38.990735995,-76.93791257833334,-6.067,0,1,12.215025,15.015625,58.89027600000001,1,1,1789158695.789082,0.46363544025517184,0.877292388159891,0.12405053283574126,0.00342191748540004,167.1643931892806,-6.259079713617912,124.99321351489449,-0.05907415919225207,-0.12333753131653369,0.10176735615698616,2.4346970356559754,-0.8776951894760131,-7.528173063163758
2026-09-11T16:31:35.826,5.614621248000049,-1334.5074462890625,-120105.67016601562,-480422.6806640625,-914.1376007080079,-12.732621459960939,-5.865400314331055,-4.0177992153167725,-8.987560878929779,4.770547681458226,0.0,-0.06445884704589844,-528.046875,-23.205184936523438,-1.5563966035842896,-560.3027772903442,-6412.054172410119,1,1789158695.043668,38.990735995,-76.93791257833334,-6.067,0,1,12.215025,15.015625,58.89027600000001,1,1,1789158695.821082,0.4632346708522236,0.8775275054182955,0.12393116853468251,-0.0004271070163424316,167.37465838424376,-6.636388902835922,125.07705060168664,-0.008807629537264184,0.11133664737982069,-0.09703891014748313,-0.4952358331680298,-0.5488782095527649,-13.410496029682161
2026-09-11T16:31:35.860,5.6480429440000535,-1334.6998291015625,-120122.98461914062,-480491.9384765625,-914.2693829345703,-12.864403686523438,-5.788224697113037,-3.9649339175224307,-8.869304575703351,1.5817658623408597,0.0,-0.09802055358886719,-802.984375,-35.28739929199219,-1.3580323457717896,-488.89164447784424,2136.669928793846,1,1789158695.043668,38.990735995,-76.93791257833334,-6.067,0,1,12.215025,15.015625,58.89027600000001,1,1,1789158695.849082,0.46050913499069845,0.8785776545506823,0.12647839034836775,-0.0059881791244647525,167.37926002357656,-7.296907350280764,125.48516803109185,-0.003147352240121374,0.3216989131946696,-0.2534916205596564,3.1474443694114687,-0.5591751922225953,-8.276322404003142
