timestamp,time_s,drive_pos_turns,drive_encoder_count,drive_wheel_angle_deg,drive_distance_m,drive_distance_since_start_m,drive_velocity_turns_s,drive_velocity_mps,drive_velocity_mph,drive_acceleration_mps2,drive_iq_A,steer_pos_turns,steer_encoder_count,steer_angle_deg,steer_velocity_turns_s,steer_velocity_deg_s,steer_acceleration_deg_s2,gps_received,gps_ros_stamp_s,gps_latitude_deg,gps_longitude_deg,gps_altitude_m,gps_status,gps_service,gps_cov_x_m2,gps_cov_y_m2,gps_cov_z_m2,gps_covariance_type,imu_received,imu_ros_stamp_s,imu_qx,imu_qy,imu_qz,imu_qw,imu_roll_deg,imu_pitch_deg,imu_yaw_deg,imu_gyro_x_rad_s,imu_gyro_y_rad_s,imu_gyro_z_rad_s,imu_accel_x_mps2,imu_accel_y_mps2,imu_accel_z_mps2
2026-09-11T16:37:26.973,1.0016000032919692e-05,-2076.18359375,-186856.5234375,-747426.09375,-1422.1857617187502,-0.010870361328125001,-3.5885212421417236,-2.458137050867081,-5.498695979928145,3.7578132968636924,0.0,-0.07322490215301514,-599.8583984375,-26.36096477508545,0.09155276417732239,32.95899510383606,-3499.769829336349,0,nan,nan,nan,nan,-999,-999,nan,nan,nan,-999,1,1789159046.9618146,0.9743191625449318,-0.21687022326606248,0.05157413271906576,0.031773960920022236,177.71862599954022,-6.5621550325787394,-24.96657890356113,0.004277452930787703,0.06323345333267975,-0.7777373897116696,1.3475317987251283,1.1369830197525024,-7.702339170036316
2026-09-11T16:37:27.007,0.033430240000143385,-2076.307373046875,-186867.66357421875,-747470.654296875,-1422.2705505371096,-0.09565917968750001,-3.6413280963897705,-2.494309746026993,-5.579611994512773,-1.08235944677667,0.0,-0.06988704204559326,-572.5146484375,-25.159335136413574,0.04577639698982239,16.47950291633606,-493.0993935721535,0,nan,nan,nan,nan,-999,-999,nan,nan,nan,-999,1,1789159047.0018146,0.977315265156431,-0.20241464598850167,0.05401428602628742,0.03107475642116968,177.75644952556834,-6.7858042037819555,-23.26948716594925,0.02317064208362632,-0.0032176890089767457,-0.7841778291844538,0.33813329757690425,-1.035091924571991,-9.621206407184602
2026-09-11T16:37:27.041,0.0668461440000101,-2076.429443359375,-186878.64990234375,-747514.599609375,-1422.354168701172,-0.17927734375,-3.6683835983276367,-2.5128427648544314,-5.621069176929198,-0.5546167126740708,0.0,-0.07052409648895264,-577.7333984375,-25.38867473602295,-0.0762939527630806,-27.465822994709015,-1315.1021115939393,1,1789159047.0348136,38.990760826666666,-76.93789698333333,-4.286000000000001,0,1,7.502120999999999,9.400355999999999,50.722884,1,1,1789159047.0338147,0.9796922449165583,-0.19086787716419648,0.05421337210533378,0.02886986321679358,177.9299626306056,-6.7331590332957765,-21.927239159363683,0.05488292552651289,0.013511117338463703,-0.7762248873818913,-0.09002504848480225,-0.3145973371887207,-10.079176969738006
2026-09-11T16:37:27.074,0.10025980800014622,-2076.548828125,-186889.39453125,-747557.578125,-1422.4359472656251,-0.261055908203125,-3.6175155639648438,-2.4779981613159183,-5.543124018691651,1.0428249813720245,0.0,-0.07419383525848389,-607.7958984375,-26.7097806930542,-0.2136230617761612,-76.90430223941803,-1479.5886869667333,1,1789159047.0348136,38.990760826666666,-76.93789698333333,-4.286000000000001,0,1,7.502120999999999,9.400355999999999,50.722884,1,1,1789159047.0738146,0.9824080534385761,-0.17592331188059923,0.05674462814224077,0.02656034738078863,178.13993012854831,-6.940464233298077,-20.192294218532027,0.0007827801695194568,0.011105006431664321,-0.8112712732948626,0.9501663341712953,-1.2055315043830872,-9.562660705718994
2026-09-11T16:37:27.107,0.1336747519999335,-2076.66943359375,-186900.2490234375,-747600.99609375,-1422.5185620117188,-0.34367065429687504,-3.618474245071411,-2.478654857873917,-5.544593007055105,-0.01965278044466525,0.0,-0.0834578275680542,-683.6865234375,-30.04481792449951,-0.2593994438648224,-93.38379979133606,-493.1774702966115,1,1789159047.0348136,38.990760826666666,-76.93789698333333,-4.286000000000001,0,1,7.502120999999999,9.400355999999999,50.722884,1,1,1789159047.1018147,0.9842333089984509,-0.16531235773722674,0.05768808971239914,0.02507393352973157,178.25155205603508,-6.998718344021554,-18.961945492390182,0.0159743005118033,0.0399823515705365,-0.8031614263925458,2.0301727164840697,-0.8050279117774963,-11.783180501842498
2026-09-11T16:37:27.140,0.16709017600010156,-2076.787353515625,-186910.86181640625,-747643.447265625,-1422.5993371582033,-0.42444580078125005,-3.5943007469177246,-2.4620960116386414,-5.507551922956869,0.49554499847711647,0.0,-0.09731662273406982,-797.2177734375,-35.03398418426514,-0.3356934189796448,-120.84963083267212,-821.9506968158753,1,1789159047.0348136,38.990760826666666,-76.93789698333333,-4.286000000000001,0,1,7.502120999999999,9.400355999999999,50.722884,1,1,1789159047.1338146,0.9861830581426769,-0.15275324333254459,0.05959982066462341,0.02360686045391177,178.36246270448265,-7.167168624286316,-17.506975453529986,0.024465327322755713,0.0515566770380621,-0.8395499705003008,0.008629852142333985,-1.0413681806755066,-10.653846669216156
2026-09-11T16:37:27.174,0.2005056319999312,-2076.905029296875,-186921.45263671875,-747685.810546875,-1422.6799450683595,-0.5050537109375001,-3.5701851844787598,-2.4455768513679508,-5.470599613833098,0.4943568709873325,0.0,-0.10176074504852295,-833.6240234375,-36.63386821746826,-0.19836431741714478,-71.41115427017212,1479.5092595100914,1,1789159047.0348136,38.990760826666666,-76.93789698333333,-4.286000000000001,0,1,7.502120999999999,9.400355999999999,50.722884,1,1,1789159047.1738145,0.9883747929227535,-0.1369476743201256,0.06245332985443441,0.02145191840619463,178.53801582676218,-7.430887394096532,-15.682231136246084,0.03053383713194,0.09542570231986476,-0.8603689559497899,0.6982334915161132,-0.01853456880569458,-9.656216148262024
2026-09-11T16:37:27.208,0.2339199360001203,-2077.0205078125,-186931.845703125,-747727.3828125,-1422.7590478515626,-0.5841564941406251,-3.414872884750366,-2.339187926054001,-5.2326143657256585,3.1839336026076683,0.0,-0.10546290874481201,-863.9521484375,-37.966647148132324,0.0457763709127903,16.479493528604507,2630.3300466255196,1,1789159047.0348136,38.990760826666666,-76.93789698333333,-4.286000000000001,0,1,7.502120999999999,9.400355999999999,50.722884,1,1,1789159047.2018147,0.9897086173983002,-0.12588603605406565,0.06491360993975555,0.02039072874442686,178.61126231283401,-7.679114021358048,-14.404422293107404,0.0075377279735131105,0.05453944472972041,-0.8452516121007159,0.7881604734992981,-1.2536821566772463,-11.221259447574615
2026-09-11T16:37:27.241,0.26733894400013014,-2077.13671875,-186942.3046875,-747769.21875,-1422.83865234375,-0.6637609863281251,-3.416584014892578,-2.3403600502014164,-5.235236332769805,-0.0350735769121293,0.0,-0.10518825054168701,-861.7021484375,-37.867770195007324,0.015258791856467724,5.493165068328381,-328.7449005150867,1,1789159047.0348136,38.990760826666666,-76.93789698333333,-4.286000000000001,0,1,7.502120999999999,9.400355999999999,50.722884,1,1,1789159047.2338147,0.9910585415586667,-0.11341242083410213,0.06768762209781112,0.01894665719595541,178.71548214482738,-7.958879675829359,-12.967199423225948,0.02161293572622138,0.06516448561708628,-0.842553682142983,1.0046913090705871,-0.4630700206375122,-9.300234747390746
2026-09-11T16:37:27.274,0.30075392000003376,-2077.251708984375,-186952.65380859375,-747810.615234375,-1422.917420654297,-0.742529296875,-3.418539047241211,-2.34169924736023,-5.238232031496572,-0.04007775312534533,0.0,-0.10494983196258545,-859.7490234375,-37.78193950653076,0.0,0.0,-164.39230925511438,1,1789159047.0348136,38.990760826666666,-76.93789698333333,-4.286000000000001,0,1,7.502120999999999,9.400355999999999,50.722884,1,1,1789159047.2738147,0.9923790795150452,-0.09751541786798033,0.07268036253970053,0.01980077574243525,178.5442411015092,-8.51768669233999,-11.11580999223704,-0.0016128587617679601,0.05535695695135455,-0.8209925826955458,3.612475720081329,0.8441564459228516,-9.997487573890686
2026-09-11T16:37:27.307,0.3341759039999488,-2077.365478515625,-186962.89306640625,-747851.572265625,-1422.9953527832033,-0.82046142578125,-3.420245409011841,-2.3428681051731113,-5.240846691958457,-0.03497272372832276,0.0,-0.10470569133758545,-857.7490234375,-37.69404888153076,0.015258789993822575,5.493164397776127,164.3578190268445,1,1789159047.0348136,38.990760826666666,-76.93789698333333,-4.286000000000001,0,1,7.502120999999999,9.400355999999999,50.722884,1,1,1789159047.3018146,0.9932769592303691,-0.08673162153557393,0.07445086284888594,0.018318763848528225,178.63913605211542,-8.689419942384008,-9.877270987621909,0.04176206380879512,0.02441192024764469,-0.8171074797806064,1.44177370677948,0.1995653307914734,-10.40397322309494
2026-09-11T16:37:27.340,0.36759638400008043,-2077.4775390625,-186972.978515625,-747891.9140625,-1423.0721142578127,-0.897222900390625,-3.3682219982147217,-2.3072320687770844,-5.161131148839213,1.0662933744783583,0.0,-0.10324084758758545,-845.7490234375,-37.16670513153076,0.0,0.0,-164.36521551319694,1,1789159047.0348136,38.990760826666666,-76.93789698333333,-4.286000000000001,0,1,7.502120999999999,9.400355999999999,50.722884,1,1,1789159047.3338146,0.9940885226936432,-0.07436207563565878,0.07690696119173074,0.018536722368855153,178.52561685798102,-8.955163852708464,-8.440541493066494,0.025927389637151365,0.18719005293489582,-0.7877349847329436,6.824153648052215,-2.0875416199302674,-10.276290637989044
2026-09-11T16:37:27.375,0.40101363200005835,-2077.58984375,-186983.0859375,-747932.34375,-1423.14904296875,-0.9741516113281251,-3.3422374725341797,-2.2894326686859134,-5.121315024798476,0.5326411106977673,0.0,-0.10090625286102295,-826.6240234375,-36.32625102996826,0.045776382088661194,16.47949755191803,493.14346746712715,1,1789159047.0348136,38.990760826666666,-76.93789698333333,-4.286000000000001,0,1,7.502120999999999,9.400355999999999,50.722884,1,1,1789159047.3738146,0.9951138203920789,-0.05908449842104243,0.07706342908621135,0.017853134416390654,178.46711944551475,-8.944836046820189,-6.675946150426419,0.06725661179145188,0.036601997875273885,-0.7819546287832635,-0.2383996654319763,-1.0386223186302186,-10.361412361392976
2026-09-11T16:37:27.408,0.4344305600000098,-2077.7041015625,-186993.369140625,-747973.4765625,-1423.2273095703126,-1.052418212890625,-3.395219564437866,-2.3257254016399385,-5.2024995562811736,-1.0860583281047784,0.0,-0.09687793254852295,-793.6240234375,-34.87605571746826,0.06103518605232239,21.97266697883606,164.38283695395376,1,1789159047.0348136,38.990760826666666,-76.93789698333333,-4.286000000000001,0,1,7.502120999999999,9.400355999999999,50.722884,1,1,1789159047.4018147,0.995442478336502,-0.048476592629604104,0.080198504261422,0.01767744903930081,178.40797922822898,-9.286998501392336,-5.446720362749595,0.0884033700744656,0.08503628088151813,-0.7868099602293864,3.9128534145355225,0.1995653307914734,-12.175838774318695
2026-09-11T16:37:27.440,0.4678433920000771,-2077.817626953125,-187003.58642578125,-748014.345703125,-1423.3050744628908,-1.1301831054687501,-3.3959081172943115,-2.326197060346604,-5.203554626759577,-0.014116094878290278,0.0,-0.09272944927215576,-759.6396484375,-33.382601737976074,0.1831054985523224,65.91797947883606,1315.2226216536062,1,1789159047.0348136,38.990760826666666,-76.93789698333333,-4.286000000000001,0,1,7.502120999999999,9.400355999999999,50.722884,1,1,1789159047.4338145,0.9959406796251397,-0.03671029457443828,0.08012362450890079,0.01829540203520602,178.22565706480125,-9.261462153156353,-4.07819489762128,0.0736523708353851,0.076882451682051,-0.735281732058132,-2.239446630935669,-0.029812216491699222,-11.288238868179322
2026-09-11T16:37:27.475,0.5012565120000545,-2077.932373046875,-187013.91357421875,-748055.654296875,-1423.3836755371094,-1.2087841796875,-3.423111915588379,-2.3448316621780396,-5.245239043884299,-0.5577031367154108,0.0,-0.08076846599578857,-661.6552734375,-29.076647758483887,0.5493164658546448,197.75392770767212,3945.6341769019214,1,1789159047.0348136,38.990760826666666,-76.93789698333333,-4.286000000000001,0,1,7.502120999999999,9.400355999999999,50.722884,1,1,1789159047.4738147,0.9961950120596306,-0.02317006404503645,0.08188215388648251,0.018813796920657225,178.04282651156925,-9.43990361996863,-2.5031437868615374,0.05124077244345112,0.01707350887470933,-0.7431418223444884,0.6123272360992432,0.5163201310157776,-10.353763174266815
2026-09-11T16:37:27.508,0.5346758400000908,-2078.047607421875,-187024.28466796875,-748097.138671875,-1423.4626110839845,-1.2877197265625,-3.42435622215271,-2.3456840121746065,-5.247145696525152,-0.025504701846966762,0.0,-0.06342494487762451,-519.5771484375,-22.832980155944824,0.045776426792144775,16.47951364517212,-5424.238753762581,1,1789159047.0348136,38.990760826666666,-76.93789698333333,-4.286000000000001,0,1,7.502120999999999,9.400355999999999,50.722884,1,1,1789159047.5018146,0.996425271750684,-0.013740874972832086,0.08171003581073394,0.016472286403699736,178.22370070844974,-9.397828808877383,-1.4341209265065646,0.08834612327500017,0.029562735936130353,-0.7336823123316044,0.4291390110778809,0.08296426036834717,-9.501859474716186
2026-09-11T16:37:27.541,0.5680947840000954,-2078.162353515625,-187034.61181640625,-748138.447265625,-1423.5412121582033,-1.3663208007812502,-3.4510412216186523,-2.363963236808777,-5.288035157499943,-0.5469719400519669,0.0,-0.06541430950164795,-535.8740234375,-23.54915142059326,0.1220703274011612,43.94531786441803,821.8633185788924,1,1789159047.0348136,38.990760826666666,-76.93789698333333,-4.286000000000001,0,1,7.502120999999999,9.400355999999999,50.722884,1,1,1789159047.5338147,0.9964850487983138,-0.0029527780740570718,0.08196230054664147,0.017059012637593064,178.05323520251918,-9.407154689091826,-0.17936509565357026,0.057594469052411286,0.045435807351317976,-0.7205096143351023,1.1207039804840089,-0.6931340334320069,-10.106831723194123
2026-09-11T16:37:27.575,0.6015118400000574,-2078.275634765625,-187044.80712890625,-748179.228515625,-1423.6188098144532,-1.4439184570312502,-3.373631000518799,-2.3109372353553774,-5.169419370426303,1.5867945235349246,0.0,-0.06614100933074951,-541.8271484375,-23.810763359069824,0.0762939527630806,27.465822994709015,-493.14622059249444,1,1789159047.0348136,38.990760826666666,-76.93789698333333,-4.286000000000001,0,1,7.502120999999999,9.400355999999999,50.722884,1,1,1789159047.5738146,0.9964592420848093,0.009479186709977414,0.0822072468994778,0.01486917752577984,178.1881600658609,-9.413037303376733,1.2392419009025946,-0.00035255650890285455,0.05768435350888899,-0.6965167476408616,0.04687578777313233,-0.09728196960449219,-10.284135958118437
2026-09-11T16:37:27.608,0.6349397440001212,-2078.39111328125,-187055.2001953125,-748220.80078125,-1423.6979125976563,-1.523021240234375,-3.426522731781006,-2.3471680712699894,-5.250465442175167,-1.0838500647406077,0.0,-0.06751620769500732,-553.0927734375,-24.305834770202637,-0.0762939527630806,-27.465822994709015,-1643.2871767644542,1,1789159047.0348136,38.990760826666666,-76.93789698333333,-4.286000000000001,0,1,7.502120999999999,9.400355999999999,50.722884,1,1,1789159047.6018147,0.9960543955883412,0.018812085806436476,0.0853474211339496,0.015413116574526526,178.02787152218664,-9.755344923595203,2.3323016296692285,-0.016277289669949516,0.05850430919147593,-0.7330224033414253,2.3232934898185733,-0.2712519434738159,-8.96455311235428
2026-09-11T16:37:27.641,0.6683626880001157,-2078.50732421875,-187065.6591796875,-748262.63671875,-1423.777517089844,-1.6026257324218751,-3.453509569168091,-2.3656540548801424,-5.291817409807042,-0.5530926183568997,0.0,-0.06954562664031982,-569.7177734375,-25.036425590515137,-0.0610351637005806,-21.972658932209015,164.35308818100856,1,1789159047.0348136,38.990760826666666,-76.93789698333333,-4.286000000000001,0,1,7.502120999999999,9.400355999999999,50.722884,1,1,1789159047.6338146,0.9956364204123456,0.029879655017648866,0.08732421830876932,0.01377699028380217,178.10015773539774,-9.96595871935469,3.6035916168881847,0.014298435364038345,0.0429974078533567,-0.7524274975638738,0.639099391040802,-1.2663327353858946,-10.797906360092163
2026-09-11T16:37:27.676,0.7017815359999986,-2078.617919921875,-187075.61279296875,-748302.451171875,-1423.8532751464845,-1.6783837890625002,-3.3251781463623047,-2.277747030258179,-5.095174996103651,2.630462445093005,0.0,-0.07269275188446045,-595.4990234375,-26.16939067840576,-0.1068115383386612,-38.45215380191803,-493.1197768925711,1,1789159047.0348136,38.990760826666666,-76.93789698333333,-4.286000000000001,0,1,7.502120999999999,9.400355999999999,50.722884,1,1,1789159047.6738145,0.9950174904520845,0.043007532268347484,0.08915598289246489,0.011906157108893457,178.17412905075622,-10.160105751769594,5.112225035317424,0.0027918286714901292,0.014964278473674182,-0.722954471551296,1.5266012306785584,-0.08463139089584351,-9.335342554969788
2026-09-11T16:37:27.709,0.7351954880000449,-2078.72998046875,-187085.6982421875,-748342.79296875,-1423.930036621094,-1.7551452636718752,-3.3786532878875732,-2.314377502202988,-5.177115028192076,-1.0962627810310632,0.0,-0.0781477689743042,-640.1865234375,-28.13319683074951,-0.2288818508386612,-82.39746630191803,-1315.1785367962207,1,1789159047.0348136,38.990760826666666,-76.93789698333333,-4.286000000000001,0,1,7.502120999999999,9.400355999999999,50.722884,1,1,1789159047.7018147,0.9943303427582882,0.05258799534983004,0.0916795752781663,0.011684506497343839,178.0841444929113,-10.4332927919744,6.229794063976678,0.012765512682011726,0.010538472556466961,-0.7534362978715266,1.4442253693199159,0.07502087373733521,-8.660645023841859
2026-09-11T16:37:27.742,0.7686153280001236,-2078.8427734375,-187095.849609375,-748383.3984375,-1424.0072998046876,-1.8324084472656252,-3.4063501358032227,-2.3333498430252075,-5.219554945922524,-0.5676969375728571,0.0,-0.08951365947723389,-733.2958984375,-32.2249174118042,-0.5035400986671448,-181.27443552017212,-2958.6308377904043,1,1789159047.0348136,38.990760826666666,-76.93789698333333,-4.286000000000001,0,1,7.502120999999999,9.400355999999999,50.722884,1,1,1789159047.7328146,0.9937824524336643,0.06305833045493946,0.09114358258873523,0.01062692561647054,178.09990348155773,-10.358900026579397,7.433677021165821,0.015484910189544092,0.01913875697859422,-0.7720814757376567,0.14857074995040895,-0.030106415996551512,-10.15919923505783
2026-09-11T16:37:27.775,0.8020324480000909,-2078.957763671875,-187106.19873046875,-748424.794921875,-1424.0860681152344,-1.9111767578125,-3.4327170848846436,-2.351411203145981,-5.259957057860546,-0.5404822474465539,0.0,-0.10312449932098389,-844.7958984375,-37.1248197555542,-0.19836431741714478,-71.41115427017212,3287.634639074445,1,1789159047.0348136,38.990760826666666,-76.93789698333333,-4.286000000000001,0,1,7.502120999999999,9.400355999999999,50.722884,1,1,1789159047.7738147,0.992218215808675,0.07854706201525806,0.0959701319245588,0.011095271272188857,177.83526140920327,-10.877138855325953,9.258666175338602,0.020965244040806283,0.07904526369112239,-0.8317698162936856,3.4850873344802853,-0.11120741283416748,-10.311300379066468
2026-09-11T16:37:27.809,0.8354473280001002,-2079.0751953125,-187116.767578125,-748467.0703125,-1424.1665087890626,-1.9916174316406252,-3.460456371307373,-2.370412614345551,-5.302462004173113,-0.5686511877212921,0.0,-0.12059962749481201,-987.9521484375,-43.415865898132324,-0.8087158799171448,-291.1377167701721,-6575.710057912476,1,1789159047.0348136,38.990760826666666,-76.93789698333333,-4.286000000000001,0,1,7.502120999999999,9.400355999999999,50.722884,1,1,1789159047.8018146,0.9910251580550051,0.08972944288857573,0.09856445621477548,0.01013958342553636,177.79278545558793,-11.1594513434833,10.56279783286978,0.015184015426500268,0.10856646079105527,-0.8633964040702993,2.343789388656616,-0.1800500969696045,-9.629934325828552
2026-09-11T16:37:27.843,0.8688659839999673,-2079.195556640625,-187127.60009765625,-748510.400390625,-1424.2489562988283,-2.07406494140625,-3.5136990547180176,-2.406883852481842,-5.3840458403763405,-1.0913436535699215,0.0,-0.14190280437469482,-1162.4677734375,-51.08500957489014,0.0610351599752903,21.972657591104507,9369.328747467354,1,1789159047.0348136,38.990760826666666,-76.93789698333333,-4.286000000000001,0,1,7.502120999999999,9.400355999999999,50.722884,1,1,1789159047.8338146,0.9894203862437212,0.1028799758805259,0.10185138517097778,0.009450142163018297,177.68050992305905,-11.513756969561502,12.106443214080592,-0.0003085742117525975,0.11078250534231247,-0.9221206247475265,2.110391114807129,-0.146315220413208,-9.460769610538483
2026-09-11T16:37:27.875,0.9022834879999664,-2079.315185546875,-187138.36669921875,-748553.466796875,-1424.3309020996094,-2.1560107421875,-3.5925495624542236,-2.4608964502811435,-5.504868580621736,-1.6162965911308875,0.0,-0.13918673992156982,-1140.2177734375,-50.10722637176514,-0.2288818657398224,-82.39747166633606,-3123.217379055102,1,1789159047.0348136,38.990760826666666,-76.93789698333333,-4.286000000000001,0,1,7.502120999999999,9.400355999999999,50.722884,1,1,1789159047.8738146,0.9871734137218924,0.12025401201546199,0.10474398530681542,0.007504756951172824,177.65727503542658,-11.829264940600728,14.133438643326908,0.035493015668556685,0.07064412133664767,-0.927799926133516,0.6776395261764526,-0.542307753944397,-9.971794150466918
2026-09-11T16:37:27.908,0.9356999999999971,-2079.431396484375,-187148.82568359375,-748595.302734375,-1424.410506591797,-2.235615234375,-3.5146474838256836,-2.4075335264205933,-5.385499119587935,1.5969028682736595,0.0,-0.1365450620651245,-1118.5771484375,-49.156222343444824,0.030517593026161194,10.98633348941803,2794.5407694156793,1,1789159047.0348136,38.990760826666666,-76.93789698333333,-4.286000000000001,0,1,7.502120999999999,9.400355999999999,50.722884,1,1,1789159047.9018147,0.9856971702180095,0.1318816064038984,0.1046906742444652,0.006942135318097317,177.58189461550242,-11.803481018791606,15.491289411456759,0.026304555288507336,0.0016721999563357672,-0.912854148149913,0.7692336386871338,-0.5453478154945374,-10.529400278663637
2026-09-11T16:37:27.942,0.9691144000000804,-2079.5458984375,-187159.130859375,-748636.5234375,-1424.4889404296875,-2.3140490722656253,-3.436305522918701,-2.3538692831993107,-5.265455626340614,1.6060214524620753,0.0,-0.133661150932312,-1094.9521484375,-48.118014335632324,0.3662109673023224,131.83594822883606,3616.692645659256,1,1789159047.0348136,38.990760826666666,-76.93789698333333,-4.286000000000001,0,1,7.502120999999999,9.400355999999999,50.722884,1,1,1789159047.9338145,0.9840146209543573,0.14461056497814787,0.10380237269051211,0.005298836530161621,177.63254762206472,-11.698026648107065,16.963219454653316,0.03439293464102466,-0.0006986552995733302,-0.8613171933323984,0.7979671236610413,-0.32332525583267213,-10.956381826705933
2026-09-11T16:37:27.976,1.0025294720001057,-2079.6572265625,-187169.150390625,-748676.6015625,-1424.5652001953126,-2.390308837890625,-3.3323538303375244,-2.2826623737812044,-5.106170306418222,2.13098177427397,0.0,-0.1241225004196167,-1016.8115234375,-44.68410015106201,0.2593994438648224,93.38379979133606,-1150.7426480323295,1,1789159047.0348136,38.990760826666666,-76.93789698333333,-4.286000000000001,0,1,7.502120999999999,9.400355999999999,50.722884,1,1,1789159047.9738147,0.9818691210528055,0.15982504295619282,0.10183992202834849,0.004197028508599386,177.61440133268945,-11.457755069266605,18.729983578970906,0.046503948853538514,0.01482953905542022,-0.8097193265239894,-0.2557574362182617,-0.07129434667587281,-8.67584533159256
2026-09-11T16:37:28.009,1.03594566400011,-2079.763916015625,-187178.75244140625,-748715.009765625,-1424.6382824707032,-2.4633911132812503,-3.229360818862915,-2.212112160921097,-4.948353974859285,2.1112583043603017,0.0,-0.11700618267059326,-958.5146484375,-42.122225761413574,0.1983642876148224,71.41114354133606,-657.5451879734596,1,1789159047.0348136,38.990760826666666,-76.93789698333333,-4.286000000000001,0,1,7.502120999999999,9.400355999999999,50.722884,1,1,1789159048.0018146,0.9803457455558191,0.16935610596587453,0.10115142630047907,0.0030195198391750806,177.65094360136032,-11.3793479592881,19.836454583891484,0.032964557181192504,0.03101903866399442,-0.7774497594509409,0.9976305209541321,-0.24291072450637818,-10.2130377444458
2026-09-11T16:37:28.042,1.069410944000083,-2079.870849609375,-187188.37646484375,-748753.505859375,-1424.711531982422,-2.536640625,-3.178497552871704,-2.1772708237171177,-4.870416123203998,1.0411189508651226,0.0,-0.10822093486785889,-886.5458984375,-38.9595365524292,0.3204346001148224,115.35645604133606,1313.1613570851753,1,1789159048.0369291,38.99075297666667,-76.9378893,-4.565999999999999,0,1,10.510564,12.938409,61.795320999999994,1,1,1789159048.0338147,0.9780966422382864,0.18040757690267295,0.10381212351540568,0.0017628526647775415,177.60603925379803,-11.679710105282675,21.146111944466057,0.018650413853886206,0.05601354981595482,-0.7560891983345579,2.1681522842597962,-0.4949416336631775,-9.082036781291961
2026-09-11T16:37:28.076,1.1028254079999442,-2079.977294921875,-187197.95654296875,-748791.826171875,-1424.7844470214845,-2.6095556640625004,-3.1793935298919678,-2.177884567975998,-4.871789030010727,-0.018367622442868638,0.0,-0.10080325603485107,-825.7802734375,-36.28917217254639,0.10681155323982239,38.45215916633606,-2301.5271732420824,1,1789159048.0369291,38.99075297666667,-76.9378893,-4.565999999999999,0,1,10.510564,12.938409,61.795320999999994,1,1,1789159048.0738146,0.9756838535857593,0.19300412371707043,0.10387318950395892,0.000886894877173801,177.55214577561586,-11.674557072680933,22.629214564365583,0.013667498839442394,0.04331662857354647,-0.7311480942577085,1.2651559373664858,0.032656145038604735,-10.855079130535126
2026-09-11T16:37:28.110,1.136252671999955,-2080.080078125,-187207.20703125,-748828.828125,-1424.854853515625,-2.679962158203125,-3.0757603645324707,-2.1068958497047428,-4.712991789783331,2.123677195693676,0.0,-0.0980604887008667,-803.3115234375,-35.30177593231201,0.1983642727136612,71.41113817691803,985.9909267647895,1,1789159048.0369291,38.99075297666667,-76.9378893,-4.565999999999999,0,1,10.510564,12.938409,61.795320999999994,1,1,1789159048.1018147,0.9739243627730345,0.2014360620861174,0.10437826031645149,-0.0001651111370828112,177.55729997023707,-11.73465762648142,23.622402942772872,0.046249828914448135,0.055667101959433946,-0.7057914272859593,1.99428037689209,-0.36578805103302003,-11.148788302879334
2026-09-11T16:37:28.143,1.169668320000028,-2080.1826171875,-187216.435546875,-748865.7421875,-1424.9250927734377,-2.750201416015625,-3.0767877101898193,-2.1075995814800264,-4.714565992931335,-0.021059946982984287,0.0,-0.09480845928192139,-776.6708984375,-34.1310453414917,0.01525880303233862,5.493169091641903,-1972.6676880583705,1,1789159048.0369291,38.99075297666667,-76.9378893,-4.565999999999999,0,1,10.510564,12.938409,61.795320999999994,1,1,1789159048.1338146,0.9718370010166932,0.21109298174856359,0.10474227834510426,-0.001285160868137535,177.5573035192038,-11.778423832966958,24.761739399235342,0.035105552574613945,0.04778030813552197,-0.6884976578596482,1.1087398672866822,-0.12748645210266113,-10.158414703044892
2026-09-11T16:37:28.176,1.2030838719999792,-2080.28125,-187225.3125,-748901.25,-1424.9926562500002,-2.817764892578125,-2.999187469482422,-2.054443416595459,-4.5956590385546185,1.5907612384989127,0.0,-0.09408557415008545,-770.7490234375,-33.87080669403076,0.0,0.0,-164.38959594771657,1,1789159048.0369291,38.99075297666667,-76.9378893,-4.565999999999999,0,1,10.510564,12.938409,61.795320999999994,1,1,1789159048.1738145,0.9692352164575214,0.22251470336258775,0.10513959546408558,-0.003995926882412478,177.71349371624095,-11.863939855225256,26.097162325840845,0.016211316224224132,0.030075862736216687,-0.6633328025726932,1.04352564371109,-0.43757273021697995,-9.615224350585938
2026-09-11T16:37:28.209,1.2364991680001367,-2080.38037109375,-187234.2333984375,-748936.93359375,-1425.0605541992188,-2.8856628417968753,-2.9735682010650635,-2.036894217729569,-4.556402598715029,0.5251846000648187,0.0,-0.09384143352508545,-768.7490234375,-33.78291606903076,0.0,0.0,0.0,1,1789159048.0369291,38.99075297666667,-76.9378893,-4.565999999999999,0,1,10.510564,12.938409,61.795320999999994,1,1,1789159048.2018147,0.967355568035123,0.2302431519667298,0.10576440191806767,-0.0050186901461551974,177.71581235992815,-11.942772437610804,27.015027465782616,0.011760552098713392,0.04224185482016836,-0.6736410662008222,0.5027869537925721,-0.37392757066726684,-9.319259648704529
2026-09-11T16:37:28.243,1.2699148480000986,-2080.47900390625,-187243.1103515625,-748972.44140625,-1425.1281176757814,-2.953226318359375,-2.975168228149414,-2.037990236282349,-4.5588543223925075,-0.03279952862792072,0.0,-0.09463870525360107,-775.2802734375,-34.06993389129639,-0.015258789993822575,-5.493164397776127,-164.38882577826922,1,1789159048.0369291,38.99075297666667,-76.9378893,-4.565999999999999,0,1,10.510564,12.938409,61.795320999999994,1,1,1789159048.2328146,0.9653361481325003,0.2384631801371316,0.10596948680462107,-0.005648069932178618,177.6780236003811,-11.963356004924115,27.994852358709394,0.007181506273181068,0.03277780695122911,-0.6736948223417837,0.3317589749717712,-0.1407254298210144,-10.143704727802277
2026-09-11T16:37:28.277,1.3033303039999282,-2080.575439453125,-187251.78955078125,-749007.158203125,-1425.1941760253908,-3.0192846679687504,-2.87200665473938,-1.9673245584964754,-4.400779703150665,2.1147602410762816,0.0,-0.09565913677215576,-783.6396484375,-34.437289237976074,-0.0305175818502903,-10.986329466104507,-164.38994782403643,1,1789159048.0369291,38.99075297666667,-76.9378893,-4.565999999999999,0,1,10.510564,12.938409,61.795320999999994,1,1,1789159048.2738147,0.9624544847437716,0.2492361400716767,0.1072938541548119,-0.007123211310812886,177.66860542380797,-12.127135755778115,29.284344022700942,0.01563291411011321,0.014054438334609537,-0.6695472219073443,1.0195974173164368,-0.003530394058227539,-9.718586443290711
2026-09-11T16:37:28.310,1.3367474560000119,-2080.67431640625,-187260.6884765625,-749042.75390625,-1425.2619067382814,-3.087015380859375,-2.952117681503296,-2.0222006118297577,-4.523533938416597,-1.6421523094830164,0.0,-0.09684169292449951,-793.3271484375,-34.863009452819824,-0.0305175818502903,-10.986329466104507,0.0,1,1789159048.0369291,38.99075297666667,-76.9378893,-4.565999999999999,0,1,10.510564,12.938409,61.795320999999994,1,1,1789159048.3018146,0.9603305525427687,0.2565910848304083,0.10894778142561175,-0.007525022318376469,177.56810636987103,-12.304872438332115,30.18104048475777,0.009297368925373794,0.006661398156086758,-0.6696346629028692,1.202295309829712,-0.09522257307052612,-9.238354784870149
2026-09-11T16:37:28.343,1.370195264000131,-2080.768798828125,-187269.19189453125,-749076.767578125,-1425.3266271972657,-3.15173583984375,-2.849315881729126,-1.9517813789844514,-4.366010600806302,2.105346719433924,0.0,-0.09796130657196045,-802.4990234375,-35.26607036590576,0.0,0.0,328.46186709949444,1,1789159048.0369291,38.99075297666667,-76.9378893,-4.565999999999999,0,1,10.510564,12.938409,61.795320999999994,1,1,1789159048.3338146,0.9579974841995489,0.26542904699046066,0.10828404881554889,-0.007925027014627106,177.51946929899802,-12.220749881604313,31.23813194961211,-0.000796568270610212,-0.03634805246910871,-0.6742494879780674,0.8925032312202453,-0.6371380610084534,-9.824302132034301
2026-09-11T16:37:28.376,1.4036124799999925,-2080.867431640625,-187278.06884765625,-749112.275390625,-1425.3941906738282,-3.2192993164062504,-2.9033050537109375,-1.9887639617919923,-4.448738282462397,-1.1066925146515543,0.0,-0.10109317302703857,-828.1552734375,-36.39354228973389,-0.1678466945886612,-60.42481005191803,-1808.1940174839315,1,1789159048.0369291,38.99075297666667,-76.9378893,-4.565999999999999,0,1,10.510564,12.938409,61.795320999999994,1,1,1789159048.3738146,0.9549866472852112,0.27624919050122054,0.10788472287076957,-0.006911933555042476,177.2796293571462,-12.115072249312284,32.555901341652564,0.0198524221097347,-0.053203395187318744,-0.6931704278660127,0.6521422357559205,-0.06315482704162598,-9.865882328720094
2026-09-11T16:37:28.410,1.4370285760001025,-2080.962646484375,-187286.63818359375,-749146.552734375,-1425.459412841797,-3.2845214843750004,-2.8520030975341797,-1.9536221218109133,-4.370128225239154,1.0516440933424225,0.0,-0.10671603679656982,-874.2177734375,-38.41777324676514,-0.1525879055261612,-54.93164598941803,164.3867692528152,1,1789159048.0369291,38.99075297666667,-76.9378893,-4.565999999999999,0,1,10.510564,12.938409,61.795320999999994,1,1,1789159048.4018147,0.9527564630208258,0.2838551753881561,0.1078631281921469,-0.0068488797631010585,177.1754865138757,-12.08852695006766,33.479929287624174,0.010682113153906094,-0.032224188512496504,-0.6928866373296385,0.718827456855774,-0.4334539371490479,-9.26689213684082
2026-09-11T16:37:28.444,1.470446400000128,-2081.0615234375,-187295.537109375,-749182.1484375,-1425.5271435546877,-3.352252197265625,-2.9310975074768066,-2.0078017926216125,-4.491324697167167,-1.6212806318765016,0.0,-0.11122119426727295,-911.1240234375,-40.03962993621826,-0.1068115383386612,-38.45215380191803,493.134806966707,1,1789159048.0369291,38.99075297666667,-76.9378893,-4.565999999999999,0,1,10.510564,12.938409,61.795320999999994,1,1,1789159048.4418147,0.9492281222222438,0.2951464158166155,0.10877340661648201,-0.004786567254699283,176.76852914570804,-12.082917371144674,34.88648964045001,0.016871748813178784,-0.04261134102281556,-0.7050351761210701,0.44335865381240847,0.3900104769325256,-9.431741926059724
2026-09-11T16:37:28.478,1.503862528000127,-2081.160400390625,-187304.43603515625,-749217.744140625,-1425.5948742675782,-3.4199829101562504,-2.9581105709075928,-2.026305741071701,-4.5327168510014735,-0.5537430443793253,0.0,-0.11209285259246826,-918.2646484375,-40.353426933288574,0.0,0.0,1150.7064433652893,1,1789159048.0369291,38.99075297666667,-76.9378893,-4.565999999999999,0,1,10.510564,12.938409,61.795320999999994,1,1,1789159048.4738147,0.9462397318378529,0.30434407740676006,0.10952836766153747,-0.002930719409177209,176.41647739575353,-12.067510629231943,36.03814529541867,-0.01768943556773813,-0.038254126545211715,-0.7056905472551941,1.6667382614898683,0.4616970896148681,-9.406342702140808
2026-09-11T16:37:28.511,1.537279615999978,-2081.260009765625,-187313.40087890625,-749253.603515625,-1425.6631066894533,-3.4882153320312503,-2.9580633640289307,-2.026273404359818,-4.532644515837096,0.0009676699502793428,0.0,-0.11030185222625732,-903.5927734375,-39.70866680145264,0.0915527418255806,32.958987057209015,986.2914164560353,1,1789159048.0369291,38.99075297666667,-76.9378893,-4.565999999999999,0,1,10.510564,12.938409,61.795320999999994,1,1,1789159048.5018146,0.9436915519251563,0.31231788293988444,0.10910014076000107,-0.0009767841045248814,176.11436248888154,-11.918721067519124,37.030034012001785,0.0054588663014626644,-0.03405695876001575,-0.7103223020241366,0.8152268279457092,0.47650513135910033,-9.140288283252717
2026-09-11T16:37:28.545,1.5706992959999297,-2081.359375,-187322.34375,-749289.375,-1425.7311718750002,-3.5562805175781254,-2.98414945602417,-2.0441423773765566,-4.57261627007998,-0.534684144694519,0.0,-0.1026076078414917,-840.5615234375,-36.93873882293701,0.3204346001148224,115.35645604133606,2465.537341597704,1,1789159048.0369291,38.99075297666667,-76.9378893,-4.565999999999999,0,1,10.510564,12.938409,61.795320999999994,1,1,1789159048.5418146,0.9396541682125157,0.3248027063333702,0.10740422036065257,0.004192799552111347,175.45530953790237,-11.48561959944846,38.5939296323443,0.007690967881838213,-0.018690381893756877,-0.702150495933374,0.7839436139297485,1.091676296005249,-9.8839265650177
2026-09-11T16:37:28.578,1.6041144640000766,-2081.462158203125,-187331.59423828125,-749326.376953125,-1425.8015783691408,-3.6266870117187504,-3.06227445602417,-2.0976580023765568,-4.692327313834454,-1.6015369128105221,0.0,-0.09686839580535889,-793.5458984375,-34.8726224899292,0.09155276417732239,32.95899510383606,-2465.8700185837106,1,1789159048.0369291,38.99075297666667,-76.9378893,-4.565999999999999,0,1,10.510564,12.938409,61.795320999999994,1,1,1789159048.5738146,0.9362772684946408,0.3342198449031339,0.10779539544946401,0.007881909225133819,174.9202797041797,-11.337281614867608,39.79429160427811,0.010940596416126455,-0.03459399657085441,-0.681013162428321,0.6408645880699159,0.7710969022178651,-9.54912752849579
2026-09-11T16:37:28.611,1.6375327680000282,-2081.563232421875,-187340.69091796875,-749362.763671875,-1425.8708142089845,-3.6959228515625004,-3.0103414058685303,-2.0620838630199434,-4.612750230449045,1.0645106154000177,0.0,-0.09095370769500732,-745.0927734375,-32.74333477020264,0.2746582329273224,98.87696385383606,1972.5108955288533,1,1789159048.0369291,38.99075297666667,-76.9378893,-4.565999999999999,0,1,10.510564,12.938409,61.795320999999994,1,1,1789159048.6018147,0.9335923107189168,0.34256721731908973,0.1047506488706447,0.008966635151918425,174.82816516845045,-10.920423080536128,40.794356883993345,0.02229413773327477,-0.05553864572648716,-0.6868385478727025,0.17475450588226318,0.5571157956886291,-8.952490932655335
2026-09-11T16:37:28.645,1.670947520000027,-2081.668701171875,-187350.18310546875,-749400.732421875,-1425.9430603027345,-3.7681689453125005,-3.1417765617370605,-2.1521169447898867,-4.814148498545733,-2.6944111920970295,0.0,-0.07851779460906982,-643.2177734375,-28.266406059265137,0.4882813096046448,175.78127145767212,2301.50765757109,1,1789159048.0369291,38.99075297666667,-76.9378893,-4.565999999999999,0,1,10.510564,12.938409,61.795320999999994,1,1,1789159048.6418147,0.9289784907270368,0.35461006507385817,0.10531646544773375,0.012613786918573273,174.26743799800494,-10.761866723217537,42.326162861079595,0.021518338880763287,-0.025305877890516186,-0.6761375851628748,1.597209111843109,1.3222306413078309,-9.90069593679428
2026-09-11T16:37:28.678,1.7043666560000474,-2081.775634765625,-187359.80712890625,-749439.228515625,-1426.0163098144533,-3.84141845703125,-3.1942977905273438,-2.1880939865112308,-4.894626848852963,-1.0765401511673454,0.0,-0.06512820720672607,-533.5302734375,-23.446154594421387,-0.03051757998764515,-10.986328795552254,-5588.642394977241,1,1789159048.0369291,38.99075297666667,-76.9378893,-4.565999999999999,0,1,10.510564,12.938409,61.795320999999994,1,1,1789159048.6738145,0.9252229293385965,0.3645447232014007,0.10398347732798642,0.016034720293807498,173.8431475076026,-10.411994735681459,43.571122254622495,0.028343797986537512,0.005311560512594343,-0.6848169330001175,0.6587126913642882,0.990569732837677,-10.294432940788267
2026-09-11T16:37:28.712,1.737784511999962,-2081.887451171875,-187369.87060546875,-749479.482421875,-1426.0929040527344,-3.9180126953125005,-3.2989487648010254,-2.2597799038887025,-5.0549836790638425,-2.1451381374572653,0.0,-0.06562793254852295,-537.6240234375,-23.62605571746826,0.030517593026161194,10.98633348941803,657.512626932933,1,1789159048.0369291,38.99075297666667,-76.9378893,-4.565999999999999,0,1,10.510564,12.938409,61.795320999999994,1,1,1789159048.7018147,0.9215299918630533,0.3732284081190794,0.10563854658077877,0.01798685481343258,173.4602604044733,-10.443845430708109,44.695161170460516,0.0021193533106967145,-0.01715309588860027,-0.6947201057088584,1.050096099319458,1.0001802499961854,-8.835791795730591
2026-09-11T16:37:28.745,1.7712071680000463,-2082.002197265625,-187380.19775390625,-749520.791015625,-1426.1715051269532,-3.9966137695312502,-3.4299075603485107,-2.34948667883873,-5.2556520195927146,-2.68401095801007,0.0,-0.06549632549285889,-536.5458984375,-23.5786771774292,0.015258791856467724,5.493165068328381,-164.35463480448087,1,1789159048.0369291,38.99075297666667,-76.9378893,-4.565999999999999,0,1,10.510564,12.938409,61.795320999999994,1,1,1789159048.7418146,0.91614282571371,0.38597554860614386,0.1060256622303571,0.021535034713209035,172.91939541335975,-10.232635474091106,46.32663137962932,0.024280496954969515,-0.023132244840082444,-0.71839846407189,1.7476431253242493,0.951245065689087,-8.656428164272308
2026-09-11T16:37:28.778,1.8046253439999873,-2082.123046875,-187391.07421875,-749564.296875,-1426.2542871093751,-4.079395751953125,-3.5867133140563965,-2.456898620128632,-5.495925689264113,-3.2141772576124903,0.0,-0.06552112102508545,-536.7490234375,-23.58760356903076,0.0,0.0,-164.37656766000862,1,1789159048.0369291,38.99075297666667,-76.9378893,-4.565999999999999,0,1,10.510564,12.938409,61.795320999999994,1,1,1789159048.7738147,0.9115528925038049,0.39663268152325637,0.10570792104662247,0.024076452056287365,172.5466818113893,-9.998227225993459,47.68228754215719,-0.00402280939292173,-0.015208799101878587,-0.7539492501386876,1.0860865054130555,0.2761552685546875,-11.558019814128876
2026-09-11T16:37:28.812,1.838043136000124,-2082.24658203125,-187402.1923828125,-749608.76953125,-1426.3389086914065,-4.164017333984376,-3.691570520401001,-2.528725806474686,-5.656598529157756,-2.1493696036458774,0.0,-0.06552112102508545,-536.7490234375,-23.58760356903076,0.0,0.0,0.0,1,1789159048.0369291,38.99075297666667,-76.9378893,-4.565999999999999,0,1,10.510564,12.938409,61.795320999999994,1,1,1789159048.8018146,0.9073632373359404,0.40616753680076984,0.10527644504526214,0.02523405831547962,172.34168823648494,-9.819766265295618,48.88877292978546,-0.032301506598359855,-0.006011612075569269,-0.7679682582894817,0.8957394257736206,0.5698644408988953,-10.38612511980057
2026-09-11T16:37:28.847,1.8714696639999602,-2082.372802734375,-187413.55224609375,-749654.208984375,-1426.425369873047,-4.250478515625001,-3.7706069946289062,-2.582865791320801,-5.777706226111305,-1.6196712038528278,0.0,-0.06513965129852295,-533.6240234375,-23.45027446746826,0.015258791856467724,5.493165068328381,164.33549629669255,1,1789159048.0369291,38.99075297666667,-76.9378893,-4.565999999999999,0,1,10.510564,12.938409,61.795320999999994,1,1,1789159048.8418145,0.9011319461806738,0.4200427119776404,0.1039526342531547,0.026817634476777073,172.0943252075592,-9.486834726900401,50.640107963876325,-0.03553874329495894,0.017965197589553235,-0.7788619053487296,1.0860865054130555,1.0412701141738891,-9.21991828256607
2026-09-11T16:37:28.879,1.9048858880000807,-2082.50048828125,-187425.0439453125,-749700.17578125,-1426.5128344726563,-4.337943115234375,-3.824124574661255,-2.61952533364296,-5.859711286781847,-1.097058193110828,0.0,-0.06491076946258545,-531.7490234375,-23.36787700653076,0.0,0.0,-164.38616967340658,1,1789159048.0369291,38.99075297666667,-76.9378893,-4.565999999999999,0,1,10.510564,12.938409,61.795320999999994,1,1,1789159048.8738146,0.8960182135546242,0.4312701948167654,0.10234743143823809,0.026122467706637186,172.1329958580414,-9.25789940510047,52.04271149863614,0.12652607332700214,-0.0013784610432251213,-0.7827079128884242,-0.6446891816329957,2.5045203848075865,-17.416022288246154
2026-09-11T16:37:28.913,1.9383046400000694,-2082.62841796875,-187436.5576171875,-749746.23046875,-1426.600466308594,-4.425574951171876,-3.825777769088745,-2.6206577718257904,-5.862244478851529,-0.03388630978293209,0.0,-0.06462275981903076,-529.3896484375,-23.264193534851074,-0.0305175818502903,-10.986329466104507,-328.7474489205411,1,1789159048.0369291,38.99075297666667,-76.9378893,-4.565999999999999,0,1,10.510564,12.938409,61.795320999999994,1,1,1789159048.9018147,0.8913956933359044,0.4408093507150672,0.10209404441109558,0.02603152550559806,172.05768798704244,-9.152484760433573,53.26297794866181,0.09100548145626393,-0.07101256034174368,-0.7819417133467987,0.5474072120285034,-0.2463430520629883,-0.7614863850593566
2026-09-11T16:37:28.946,1.9717191039999307,-2082.757080078125,-187448.13720703125,-749792.548828125,-1426.6885998535158,-4.51370849609375,-3.8275575637817383,-2.621876931190491,-5.864971660680225,-0.036485976992043576,0.0,-0.06375300884246826,-522.2646484375,-22.951083183288574,0.0,0.0,328.7896363128891,1,1789159048.0369291,38.99075297666667,-76.9378893,-4.565999999999999,0,1,10.510564,12.938409,61.795320999999994,1,1,1789159048.9418147,0.8845266584836897,0.45442309128388453,0.10212763407462716,0.026118784389700726,171.90770961133447,-9.028820929434735,55.02339305965518,0.05108631080464962,0.008755967791405153,-0.7903548984731121,2.2125764094924927,-0.4962164981842041,-7.477080415821075
2026-09-11T16:37:28.979,2.005139743999962,-2082.88623046875,-187459.7607421875,-749839.04296875,-1426.7770678710938,-4.602176513671876,-3.828803062438965,-2.6227300977706913,-5.866880139966644,-0.02552813411711202,0.0,-0.06342875957489014,-519.6083984375,-22.83435344696045,0.0305175818502903,10.986329466104507,328.72887730738404,1,1789159048.0369291,38.99075297666667,-76.9378893,-4.565999999999999,0,1,10.510564,12.938409,61.795320999999994,1,1,1789159048.9738147,0.8788924478293454,0.46538799045718293,0.10173235406519181,0.024750992366384634,171.95764653250083,-8.962382547985394,56.43523074281639,0.041612838157749604,0.013304295822102375,-0.7924177031160442,-0.09463417406082154,-0.7217694519042969,-10.615796866588594
2026-09-11T16:37:29.013,2.038558592000072,-2083.016357421875,-187471.47216796875,-749885.888671875,-1426.8662048339845,-4.691313476562501,-3.8560707569122314,-2.6414084684848786,-5.908662465293656,-0.5589172527468832,0.0,-0.06309688091278076,-516.8896484375,-22.714877128601074,0.0457763709127903,16.479493528604507,164.37323220961625,1,1789159048.0369291,38.99075297666667,-76.9378893,-4.565999999999999,0,1,10.510564,12.938409,61.795320999999994,1,1,1789159049.0018146,0.8739827226514363,0.47454301245787106,0.10185349389957035,0.024269231851084535,171.90637344310457,-8.916958587792948,57.63304877029081,0.017342813178292057,-0.003076491872490405,-0.7647940279788796,0.630665671901703,0.39844419607162473,-11.134862859649658
2026-09-11T16:37:29.047,2.071977792000098,-2083.146484375,-187483.18359375,-749932.734375,-1426.955341796875,-4.7804504394531255,-3.882326602935791,-2.659393723011017,-5.9488943338650095,-0.5381713064981942,0.0,-0.061763644218444824,-505.9677734375,-22.234911918640137,0.061035171151161194,21.97266161441803,164.37162127786695,1,1789159049.040829,38.990752165,-76.93787687,-4.5760000000000005,0,1,8.673024999999999,9.554281000000001,84.80568099999999,1,1,1789159049.0418146,0.8667149332501971,0.48800170168634277,0.10054195607476007,0.023470805290853755,171.92712199946192,-8.70660916334843,59.378726745877664,0.0012329005836087942,0.04103635590581588,-0.7713365692129056,1.9440703280639648,-0.12189666151046753,-10.347977250671386
2026-09-11T16:37:29.080,2.1053972160000285,-2083.2783203125,-187495.048828125,-749980.1953125,-1427.0456494140626,-4.870758056640625,-3.960489273071289,-2.7129351520538334,-6.068663099619341,-1.6021050824492862,0.0,-0.0576399564743042,-472.1865234375,-20.75038433074951,0.2136230617761612,76.90430223941803,1643.7039915802886,1,1789159049.040829,38.990752165,-76.93787687,-4.5760000000000005,0,1,8.673024999999999,9.554281000000001,84.80568099999999,1,1,1789159049.0738146,0.8605242057619725,0.4986335094769789,0.10168400682283855,0.022870882817476176,171.81167744475192,-8.754135352217228,60.80839259636291,-0.002534392606820966,0.06989764401556971,-0.7840884683267517,1.371754224624634,1.0237162103843689,-10.44673021780014
2026-09-11T16:37:29.113,2.138812096000038,-2083.411376953125,-187507.02392578125,-750028.095703125,-1427.1367932128908,-4.96190185546875,-3.9869513511657715,-2.7310616755485535,-6.109210977873458,-0.5424686096348401,0.0,-0.05122554302215576,-419.6396484375,-18.441195487976074,0.1831054985523224,65.91797947883606,-328.7853423558275,1,1789159049.040829,38.990752165,-76.93787687,-4.5760000000000005,0,1,8.673024999999999,9.554281000000001,84.80568099999999,1,1,1789159049.1128147,0.853103884011103,0.5116485133267061,0.09954118968959651,0.02282790947331034,171.81645299433075,-8.422888969236261,62.51001919864442,0.004871213942316174,0.09196471441316001,-0.7767336508588476,0.27282100749969485,0.25359997318267824,-9.684655433731079
2026-09-11T16:37:29.147,2.172228288000042,-2083.544921875,-187519.04296875,-750076.171875,-1427.228271484375,-5.053380126953125,-4.014218330383301,-2.7497395563125613,-6.150992207213132,-0.5589470147886814,0.0,-0.04445064067840576,-364.1396484375,-16.002230644226074,0.2288818657398224,82.39747166633606,493.1588909800947,1,1789159049.040829,38.990752165,-76.93787687,-4.5760000000000005,0,1,8.673024999999999,9.554281000000001,84.80568099999999,1,1,1789159049.1418147,0.8475431152126254,0.5211047057228544,0.09817792588575153,0.0219464894219452,171.895253467516,-8.253160523983496,63.75556126220376,0.014596886666129376,0.08459261818566116,-0.7575729027316783,0.838566655330658,0.16847824977874756,-10.877634425907136
2026-09-11T16:37:29.180,2.2056474240000625,-2083.677001953125,-187530.93017578125,-750123.720703125,-1427.3187463378908,-5.143854980468751,-3.9636406898498535,-2.71509387254715,-6.073492019835243,1.0367019591826079,0.0,-0.03654658794403076,-299.3896484375,-13.156771659851074,0.1678467094898224,60.42481541633606,-657.4872626864608,1,1789159049.040829,38.990752165,-76.93787687,-4.5760000000000005,0,1,8.673024999999999,9.554281000000001,84.80568099999999,1,1,1789159049.1738145,0.8413850938907269,0.5310972658837688,0.09774832958972564,0.021262220290844455,171.89229500442315,-8.158000534507494,65.1008443608384,0.002847679207553948,0.11200371221993291,-0.7332955473693624,1.0793199168014527,0.8843637115859985,-9.11989045091629
2026-09-11T16:37:29.213,2.23906483199994,-2083.808349609375,-187542.75146484375,-750171.005859375,-1427.408719482422,-5.2338281250000005,-3.938577175140381,-2.697925364971161,-6.035087162158102,0.5137594027655299,0.0,-0.03305041790008545,-270.7490234375,-11.898150444030762,0.0,0.0,-1808.183789016719,1,1789159049.040829,38.990752165,-76.93787687,-4.5760000000000005,0,1,8.673024999999999,9.554281000000001,84.80568099999999,1,1,1789159049.2138147,0.8338400972660048,0.5431870911056875,0.09647485864389868,0.018737072802361286,172.10147757710016,-8.07873258390241,66.72137675624401,0.023588299373628562,0.0874460569797467,-0.7195360696783398,1.191900260658264,-0.5281861777114868,-10.63501790090561
2026-09-11T16:37:29.247,2.27248230400005,-2083.9375,-187554.375,-750217.5,-1427.4971875,-5.322296142578125,-3.8869781494140625,-2.662580032348633,-5.956021904860035,1.057690199378686,0.0,-0.03305041790008545,-270.7490234375,-11.898150444030762,0.0,0.0,0.0,1,1789159049.040829,38.990752165,-76.93787687,-4.5760000000000005,0,1,8.673024999999999,9.554281000000001,84.80568099999999,1,1,1789159049.2418146,0.8284877340914719,0.5515167735741358,0.09575780392428249,0.016363554441271123,172.29514104954265,-8.083654094713113,67.84793928806978,0.039421402748945525,0.08289022403326589,-0.721535867935275,1.0429372447013856,-0.616151829662323,-10.249812682552339
2026-09-11T16:37:29.280,2.305905952000103,-2084.064697265625,-187565.82275390625,-750263.291015625,-1427.5843176269532,-5.4094262695312505,-3.8361728191375732,-2.6277783811092377,-5.878172828179212,1.0412283913276097,0.0,-0.03360164165496826,-275.2646484375,-12.096590995788574,0.0,0.0,0.0,1,1789159049.040829,38.990752165,-76.93787687,-4.5760000000000005,0,1,8.673024999999999,9.554281000000001,84.80568099999999,1,1,1789159049.2738147,0.8223851284483418,0.5609373517275921,0.09381798020583991,0.015171504010383063,172.44658964769437,-7.890973470808998,69.11641565143525,0.010761525634871837,0.05974436562501789,-0.7207625125437163,-0.041580196685791014,-0.6977431590080262,-9.533927220745086
2026-09-11T16:37:29.313,2.3393204480000804,-2084.190185546875,-187577.11669921875,-750308.466796875,-1427.6702770996094,-5.4953857421875005,-3.7591452598571777,-2.575014503002167,-5.760143394331971,1.5790714936148107,0.0,-0.036403536796569824,-298.2177734375,-13.105273246765137,-0.1831054836511612,-65.91797411441803,-1972.7358483713847,1,1789159049.040829,38.990752165,-76.93787687,-4.5760000000000005,0,1,8.673024999999999,9.554281000000001,84.80568099999999,1,1,1789159049.3138146,0.8144007459107506,0.5728262461470532,0.09189089609775318,0.01332591458177107,172.63770263871515,-7.724224671140868,70.7406216244518,0.006509205445312852,0.011580608652832775,-0.7291805845919354,0.07590347225189209,-0.2609549608039856,-8.674864666576385
2026-09-11T16:37:29.347,2.37274499199998,-2084.3154296875,-187588.388671875,-750353.5546875,-1427.7560693359376,-5.581177978515625,-3.7342939376831055,-2.5579913473129277,-5.7220636795654185,0.5093010600022094,0.0,-0.042522311210632324,-348.3427734375,-15.308032035827637,-0.1525879055261612,-54.93164598941803,328.6904415220457,1,1789159049.040829,38.990752165,-76.93787687,-4.5760000000000005,0,1,8.673024999999999,9.554281000000001,84.80568099999999,1,1,1789159049.3418145,0.8086512318686043,0.5809250391201699,0.09209604610447733,0.011296123783842954,172.7359182535108,-7.8061987907407895,71.882269850473,0.007838622736556933,0.04283875742435042,-0.7352789395313287,1.3385096805763244,-0.3182257977485657,-10.23559303981781
2026-09-11T16:37:29.380,2.406189311999924,-2084.4384765625,-187599.462890625,-750397.8515625,-1427.8403564453126,-5.665465087890626,-3.684140682220459,-2.5236363673210147,-5.645213778008706,1.0272291376224825,0.0,-0.04530513286590576,-371.1396484375,-16.309847831726074,-0.045776382088661194,-16.47949755191803,1149.7362911718415,1,1789159049.040829,38.990752165,-76.93787687,-4.5760000000000005,0,1,8.673024999999999,9.554281000000001,84.80568099999999,1,1,1789159049.3738146,0.8021193674737004,0.5901674587650122,0.09068776771646392,0.009089539319634576,172.94954738474854,-7.744518258184273,73.16612882940774,0.011854276279545486,0.004101523742186674,-0.7172563206093848,0.9295723688316345,-0.20868551544189454,-9.38261060874939
2026-09-11T16:37:29.414,2.4396059200000764,-2084.560791015625,-187610.47119140625,-750441.884765625,-1427.9241418457032,-5.74925048828125,-3.6593000888824463,-2.506620560884476,-5.60715050305224,0.5092020840793025,0.0,-0.04598987102508545,-376.7490234375,-16.55635356903076,0.0,0.0,493.15291222385304,1,1789159049.040829,38.990752165,-76.93787687,-4.5760000000000005,0,1,8.673024999999999,9.554281000000001,84.80568099999999,1,1,1789159049.4138145,0.7936554780053147,0.6014035702517717,0.091521558832658,0.00696650482079301,172.97559616237785,-7.868144110187479,74.79075500518006,0.0257003223014669,0.06261019625679258,-0.685276827258018,5.972936414012909,1.592894185771942,-10.679540092639924
2026-09-11T16:37:29.447,2.4730274559999543,-2084.6806640625,-187621.259765625,-750485.0390625,-1428.0062548828125,-5.831363525390626,-3.6090686321258545,-2.4722120130062106,-5.530180773546457,1.0295322117568462,0.0,-0.04692637920379639,-384.4208984375,-16.8934965133667,-0.015258795581758022,-5.493166409432888,-164.36008235686555,1,1789159049.040829,38.990752165,-76.93787687,-4.5760000000000005,0,1,8.673024999999999,9.554281000000001,84.80568099999999,1,1,1789159049.4418147,0.7877419087202838,0.6093429922419968,0.09012917200103009,0.006366742157695615,173.05221889121552,-7.714559008565008,75.91516449986018,0.04638055407542251,0.10140101154699255,-0.7233113913833288,0.17926556495666504,0.5477014115333557,-10.793493367519378
2026-09-11T16:37:29.480,2.506444224000006,-2084.799072265625,-187631.91650390625,-750527.666015625,-1428.0873645019533,-5.91247314453125,-3.558957815170288,-2.4378861033916475,-5.453395900571861,1.027206150352717,0.0,-0.04800593852996826,-393.2646484375,-17.282137870788574,0.0,0.0,164.38353372248204,1,1789159049.040829,38.990752165,-76.93787687,-4.5760000000000005,0,1,8.673024999999999,9.554281000000001,84.80568099999999,1,1,1789159049.4738147,0.7808246848290865,0.61782413459962,0.09267676513328109,0.004143364842592166,172.98189704904013,-8.02521389430278,77.19822587705121,0.03208997269301814,0.16473691570676438,-0.6675908823487838,3.6804358057022095,-0.22212062616348266,-11.22410337612152
2026-09-11T16:37:29.514,2.539860992000058,-2084.91455078125,-187642.3095703125,-750569.23828125,-1428.1664672851564,-5.991575927734376,-3.482072353363037,-2.3852195620536807,-5.33558420287598,1.576051320638938,0.0,-0.04905498027801514,-401.8583984375,-17.65979290008545,0.0305175818502903,10.986329466104507,328.76696711326025,1,1789159049.040829,38.990752165,-76.93787687,-4.5760000000000005,0,1,8.673024999999999,9.554281000000001,84.80568099999999,1,1,1789159049.5138147,0.7723151620462148,0.628298205689521,0.09364632167891428,0.001010760538743584,173.0800954869048,-8.243412085695038,78.75774220073704,0.01848233864691915,0.17995775758048171,-0.6679235421042139,1.540624740409851,0.6746975311279297,-10.878026691913606
2026-09-11T16:37:29.547,2.5732760640000834,-2085.028564453125,-187652.57080078125,-750610.283203125,-1428.2445666503907,-6.069675292968751,-3.404170274734497,-2.3318566381931305,-5.21621474184218,1.5969716857264253,0.0,-0.04879176616668701,-399.7021484375,-17.565035820007324,0.015258791856467724,5.493165068328381,-164.39181689544097,1,1789159049.040829,38.990752165,-76.93787687,-4.5760000000000005,0,1,8.673024999999999,9.554281000000001,84.80568099999999,1,1,1789159049.5418146,0.7664823206180986,0.635582140953007,0.09240952385282286,0.0008210863417891312,173.11263707862759,-8.08353918992383,79.81961507464322,0.026360231291645955,0.1111113253733882,-0.6566890322420517,-2.0651824575614928,0.0464835217666626,-10.306593186988831
2026-09-11T16:37:29.580,2.6066974400000618,-2085.142333984375,-187662.81005859375,-750651.240234375,-1428.322498779297,-6.1476074218750005,-3.4039533138275146,-2.3317080199718476,-5.215882292349331,0.0044468013909111995,0.0,-0.04506480693817139,-369.1708984375,-16.2233304977417,0.2136230766773224,76.90430760383606,2136.6906777133836,1,1789159049.040829,38.990752165,-76.93787687,-4.5760000000000005,0,1,8.673024999999999,9.554281000000001,84.80568099999999,1,1,1789159049.5738146,0.7599384698669557,0.6432775255933173,0.09320696603201291,9.255223464887927e-05,173.03415841989315,-8.137203318643003,80.99100498850348,0.04871877167431932,0.109820305325688,-0.6411269784995695,1.6331995179367065,-2.0994076666259764,-11.15428002696991
2026-09-11T16:37:29.614,2.6401148479999392,-2085.251953125,-187672.67578125,-750690.703125,-1428.3975878906251,-6.222696533203125,-3.299726724624634,-2.260312806367874,-5.056175747959627,2.136467723775443,0.0,-0.03661525249481201,-299.9521484375,-13.181490898132324,0.2746582329273224,98.87696385383606,657.5212610768784,1,1789159049.040829,38.990752165,-76.93787687,-4.5760000000000005,0,1,8.673024999999999,9.554281000000001,84.80568099999999,1,1,1789159049.6138146,0.752103322843926,0.6528374207748001,0.09022164319425745,0.001987184581273032,172.99973640597574,-7.649771061876043,82.38557255525102,0.009811717455936522,-0.02120295788492791,-0.5456349536681289,0.567314711856842,0.6999986885452271,-7.92249846616745
2026-09-11T16:37:29.647,2.673531615999991,-2085.364990234375,-187682.84912109375,-750731.396484375,-1428.475018310547,-6.300126953125001,-3.3527088165283203,-2.2966055393218996,-5.137360279442325,-1.0860635281655338,0.0,-0.0289992094039917,-237.5615234375,-10.439715385437012,0.1983642876148224,71.41114354133606,-821.9173174514469,1,1789159049.040829,38.990752165,-76.93787687,-4.5760000000000005,0,1,8.673024999999999,9.554281000000001,84.80568099999999,1,1,1789159049.6418147,0.7466251936276571,0.6592123802346744,0.08935935996791325,0.0021823775850465213,172.98566407217342,-7.501872753384417,83.34446626389887,0.012601626265249457,-0.08462455771097266,-0.627245851359683,2.036743172092438,-0.25222704216003416,-10.219019801044464
2026-09-11T16:37:29.681,2.7069609919999493,-2085.476318359375,-187692.86865234375,-750771.474609375,-1428.551278076172,-6.37638671875,-3.3536627292633057,-2.2972589695453647,-5.1388219612235195,-0.019546587512309744,0.0,-0.02859675884246826,-234.2646484375,-10.294833183288574,0.0,0.0,-2136.1793753322027,1,1789159049.040829,38.990752165,-76.93787687,-4.5760000000000005,0,1,8.673024999999999,9.554281000000001,84.80568099999999,1,1,1789159049.6738145,0.7407463744921087,0.6661373610304528,0.08689614479768955,0.002210189014540985,173.10806549189732,-7.226462120552676,84.36446146939667,-0.03927008270279762,-0.11461280491873924,-0.606906656921567,0.8394492538452148,-0.03000834949493408,-9.743005002193451
2026-09-11T16:37:29.714,2.740375743999948,-2085.58642578125,-187702.7783203125,-750811.11328125,-1428.6267016601564,-6.451810302734375,-3.3025825023651123,-2.2622690141201023,-5.060551660075384,1.0471409581391982,0.0,-0.0289686918258667,-237.3115234375,-10.428729057312012,-0.0457763709127903,-16.479493528604507,-493.1801836687315,1,1789159049.040829,38.990752165,-76.93787687,-4.5760000000000005,0,1,8.673024999999999,9.554281000000001,84.80568099999999,1,1,1789159049.7138147,0.7329796455235502,0.6749347137971693,0.08484073304672288,0.002453849180071257,173.1658167778542,-6.9533216583414985,85.69403233837518,-0.02156354290838994,-0.10324966429070495,-0.6141208008517604,1.9832969287109374,-0.001667130527496338,-9.52039404352188
2026-09-11T16:37:29.748,2.773903647999987,-2085.698974609375,-187712.90771484375,-750851.630859375,-1428.703797607422,-6.52890625,-3.329542398452759,-2.28073654294014,-5.101862345517487,-0.5508107163518621,0.0,-0.030691027641296387,-251.4208984375,-11.0487699508667,-0.0762939527630806,-27.465822994709015,-327.6771928866126,1,1789159049.040829,38.990752165,-76.93787687,-4.5760000000000005,0,1,8.673024999999999,9.554281000000001,84.80568099999999,1,1,1789159049.7418146,0.7272966998836696,0.6812223847300267,0.08350778752799116,0.0014220770860533935,173.29947419750178,-6.865115394389652,86.65527417263654,-0.0013992304613238541,-0.032271312402300356,-0.6290623900451586,0.45669569803237914,-0.01667130527496338,-9.46047541103363
2026-09-11T16:37:29.781,2.8073242240000127,-2085.81201171875,-187723.0810546875,-750892.32421875,-1428.7812280273438,-6.606336669921875,-3.3821747303009033,-2.316789690256119,-5.182510939191384,-1.0787709737842615,0.0,-0.03639018535614014,-298.1083984375,-13.10046672821045,-0.1831054836511612,-65.91797411441803,-1150.5532136752884,1,1789159049.040829,38.990752165,-76.93787687,-4.5760000000000005,0,1,8.673024999999999,9.554281000000001,84.80568099999999,1,1,1789159049.7738147,0.7204924650056287,0.6884143051595074,0.08352430040143073,-0.00020872066739062851,173.36512214826809,-6.92930749984914,87.79356229194566,0.008220326243968092,0.05382385973640273,-0.6501662132285732,0.5175949955368042,0.6270372113418579,-10.648256878623963
2026-09-11T16:37:29.815,2.840740576000144,-2085.9248046875,-187733.232421875,-750932.9296875,-1428.8584912109377,-6.683599853515625,-3.408944606781006,-2.335127055644989,-5.22353045733041,-0.5487542562634642,0.0,-0.03860652446746826,-316.2646484375,-13.898348808288574,0.0,0.0,1972.6262793185597,1,1789159049.040829,38.990752165,-76.93787687,-4.5760000000000005,0,1,8.673024999999999,9.554281000000001,84.80568099999999,1,1,1789159049.8138146,0.7114993038356966,0.6973846102477228,0.0861244230555565,-0.0024555619109017193,173.24834362400117,-7.237345909442191,89.27950010656212,-0.003898018351404136,0.10592874469251626,-0.6495827496596316,0.2512463771438599,0.8508249680328369,-8.692418570365906
2026-09-11T16:37:29.848,2.8741747839999334,-2086.038330078125,-187743.44970703125,-750973.798828125,-1428.9362561035157,-6.761364746093751,-3.410184144973755,-2.3359761393070224,-5.2254298033890025,-0.025395656509606707,0.0,-0.03822124004364014,-313.1083984375,-13.75964641571045,0.015258789993822575,5.493164397776127,164.29772757921165,1,1789159049.040829,38.990752165,-76.93787687,-4.5760000000000005,0,1,8.673024999999999,9.554281000000001,84.80568099999999,1,1,1789159049.8418145,0.7051350230003837,0.7034581152847391,0.0889097929273698,-0.005131091492375928,173.171235833581,-7.620199545753255,90.31889241947974,0.004095240556879495,0.16043974055542914,-0.6555748140475784,0.25438450519561767,0.4959222986793518,-9.072033998126983
2026-09-11T16:37:29.881,2.9075872640000853,-2086.14990234375,-187753.4912109375,-751013.96484375,-1429.0126831054688,-6.837791748046875,-3.359448194503784,-2.3012220132350922,-5.147687037480068,1.0401540403996423,0.0,-0.03459346294403076,-283.3896484375,-12.453646659851074,0.2441406399011612,87.89063036441803,2466.068545832798,1,1789159049.040829,38.990752165,-76.93787687,-4.5760000000000005,0,1,8.673024999999999,9.554281000000001,84.80568099999999,1,1,1789159049.8738146,0.6981984101982605,0.7101501695784184,0.0903048710038999,-0.0071236870604000375,173.14103809633286,-7.829126792007024,91.44234972774588,0.014003125654600905,0.14744175001705176,-0.6154800632732135,-1.1265879705810546,-0.22653361873626707,-10.306593186988831
2026-09-11T16:37:29.916,2.941004479999947,-2086.26171875,-187763.5546875,-751054.21875,-1429.0892773437502,-6.914385986328125,-3.282520294189453,-2.2485264015197757,-5.02981031120207,1.5769001138674996,0.0,-0.0178145170211792,-145.9365234375,-6.413226127624512,0.5187988877296448,186.76759958267212,2958.8631566035797,1,1789159049.040829,38.990752165,-76.93787687,-4.5760000000000005,0,1,8.673024999999999,9.554281000000001,84.80568099999999,1,1,1789159049.9138145,0.6901135034676461,0.7174940249297174,0.09405778752259703,-0.009940278070524925,172.96183054651027,-8.284313305050157,92.73907891917314,0.00987140771635473,0.08989929177634992,-0.5482114087099229,0.926532307281494,1.1939596571922302,-10.323460625267028
2026-09-11T16:37:29.948,2.9744214400000146,-2086.37109375,-187773.3984375,-751093.59375,-1429.1641992187501,-6.989307861328125,-3.2846295833587646,-2.249971264600754,-5.03304237786496,-0.04323741839399916,0.0,0.009369016624987125,76.75098419189453,3.372845984995365,0.8239747285842896,296.63090229034424,3287.651022338636,1,1789159049.040829,38.990752165,-76.93787687,-4.5760000000000005,0,1,8.673024999999999,9.554281000000001,84.80568099999999,1,1,1789159049.9408147,0.6855724064471035,0.7219566716565768,0.0930212111425806,-0.010774694726659912,173.0626461327171,-8.22745952722141,93.46105681891872,0.008245458985196812,-0.005650677986256842,-0.487967355320059,1.3711658256149293,-0.025399223918914794,-10.380437262706756
2026-09-11T16:37:29.981,3.0078405120000298,-2086.48046875,-187783.2421875,-751132.96875,-1429.23912109375,-7.064229736328126,-3.2860658168792725,-2.250955084562302,-5.035243120441794,-0.029438877343670143,0.0,0.01811993308365345,148.43849182128906,6.523175910115242,0.8087158799171448,291.1377167701721,-164.37277253448656,1,1789159049.040829,38.990752165,-76.93787687,-4.5760000000000005,0,1,8.673024999999999,9.554281000000001,84.80568099999999,1,1,1789159049.9738147,0.6801013605556316,0.7270746461225379,0.09354585231365439,-0.008589054143323716,172.78581963922468,-8.032285881164064,94.33096302195234,0.004935616591714764,-0.03989368884453519,-0.4650967353348505,-0.14396162437438964,0.9840973437309265,-11.180463782901764
2026-09-11T16:37:30.016,3.041254912000113,-2086.5869140625,-187792.822265625,-751171.2890625,-1429.3120361328126,-7.137144775390626,-3.182687282562256,-2.1801407885551454,-4.8768360517071025,2.119274803886345,0.0,0.04315388575196266,353.5166320800781,15.535398870706558,0.7019043564796448,252.68556833267212,-1150.7657907190942,1,1789159049.040829,38.990752165,-76.93787687,-4.5760000000000005,0,1,8.673024999999999,9.554281000000001,84.80568099999999,1,1,1789159050.0138147,0.6741664011752585,0.7326005238682618,0.09353807947504213,-0.00683839472898691,172.5862827846894,-7.82455057847391,95.26487380963732,0.0019814722997891624,-0.07515911357863182,-0.39236136048846326,-1.1956267877197266,0.8839714455795288,-9.429290263519288
2026-09-11T16:37:30.049,3.074672608000128,-2086.695556640625,-187802.60009765625,-751210.400390625,-1429.3864562988283,-7.211564941406251,-3.1583499908447266,-2.163469743728638,-4.839543986508222,0.49886876780793094,0.0,0.062053803354501724,508.3447570800781,22.33936920762062,0.8239746689796448,296.6308808326721,1315.0311888641363,1,1789159050.044949,38.99075665,-76.93786427333333,-4.640999999999998,0,1,12.938409,31.169889,124.65722499999998,1,1,1789159050.0418146,0.6707844688332147,0.7357850656419445,0.09286370394414857,-0.006698211716196371,172.59749379989728,-7.726236106318296,95.79231557770073,-0.005842664203976218,-0.10124969150084463,-0.3500002996803837,-1.2680979324150086,0.5681973103713989,-10.076823373699188
2026-09-11T16:37:30.082,3.1080936319999637,-2086.802490234375,-187812.22412109375,-751248.896484375,-1429.459705810547,-7.2848144531250005,-3.211369037628174,-2.199787790775299,-4.920785144003438,-1.0866826536146816,0.0,0.08350194245576859,684.0479125976562,30.06069928407669,-0.2288818508386612,-82.39746630191803,-11341.015378118116,1,1789159050.044949,38.99075665,-76.93786427333333,-4.640999999999998,0,1,12.938409,31.169889,124.65722499999998,1,1,1789159050.0738146,0.6672895866531511,0.7390662423424489,0.0920290055281756,-0.006029852035875324,172.58189790168407,-7.569742294079084,96.33480394935242,0.002142042590972641,-0.07238369100211044,-0.3092206817075362,1.3436091386604307,1.0997177491378785,-9.003191313991547
2026-09-11T16:37:30.116,3.1415103680001266,-2086.908203125,-187821.73828125,-751286.953125,-1429.5321191406251,-7.357227783203125,-3.1855435371398926,-2.1820973229408267,-4.881212694481085,0.5293894602508823,0.0,0.0852586105465889,698.4385375976562,30.693099796772003,0.2746582329273224,98.87696385383606,5424.659971424805,1,1789159050.044949,38.99075665,-76.93786427333333,-4.640999999999998,0,1,12.938409,31.169889,124.65722499999998,1,1,1789159050.1138146,0.6639244572969217,0.7421426957446936,0.09151440080805323,-0.007324520498286374,172.69059015494346,-7.607664027615405,96.85469963359455,0.0018008307222077491,-0.04571348923531028,-0.2775145069170316,1.3374309490585328,-0.04726805377960205,-9.91648464355469
2026-09-11T16:37:30.149,3.174930816000142,-2087.01513671875,-187831.3623046875,-751325.44921875,-1429.605368652344,-7.430477294921875,-3.18532657623291,-2.181948704719544,-4.880880244988237,0.004446924867159234,0.0,0.09217465668916702,755.0947875976562,33.18287640810013,0.2899170219898224,104.37012791633606,164.36536286100903,1,1789159050.044949,38.99075665,-76.93786427333333,-4.640999999999998,0,1,12.938409,31.169889,124.65722499999998,1,1,1789159050.1408145,0.6613604895289454,0.7444412045308324,0.09156164603420174,-0.0051049840572387605,172.49233304488672,-7.395125640159487,97.25018773255178,0.009207309935970886,-0.03526542473409663,-0.25996591941992936,0.8189533550071716,0.8322903992271423,-9.980620135612488
2026-09-11T16:37:30.182,3.2083444800000507,-2087.122802734375,-187841.05224609375,-751364.208984375,-1429.679119873047,-7.504228515625001,-3.2123336791992188,-2.200448570251465,-4.922263265594717,-0.5536616855898111,0.0,0.09835446625947952,805.7197875976562,35.40760785341263,0.1831054985523224,65.91797947883606,-1150.7911385475418,1,1789159050.044949,38.99075665,-76.93786427333333,-4.640999999999998,0,1,12.938409,31.169889,124.65722499999998,1,1,1789159050.1738145,0.6584854454590439,0.7468292174106345,0.0927222359993093,-0.0067546348318909665,172.48722304633893,-7.596833116052439,97.69372486721512,-0.012819094290047952,-0.034090992680429644,-0.2596405900473576,0.7253979124641418,0.26321049034118654,-10.03396831249237
2026-09-11T16:37:30.215,3.2417616320001343,-2087.231689453125,-187850.85205078125,-751403.408203125,-1429.7537072753908,-7.57881591796875,-3.2648441791534424,-2.2364182627201084,-5.002725176091862,-1.0763841415496271,0.0,0.10725415498018265,878.6260375976562,38.61149579286575,0.3356933891773224,120.84962010383606,1643.8157454250584,1,1789159050.044949,38.99075665,-76.93786427333333,-4.640999999999998,0,1,12.938409,31.169889,124.65722499999998,1,1,1789159050.2138147,0.6550126763777734,0.7495604388581771,0.09532319331400425,-0.005570556487834321,172.1359448454474,-7.656093189169327,98.22904430113041,-0.01284143450447348,-0.00488779457021012,-0.22941061473818986,0.6133079011154174,1.3215441757965087,-8.825887079067229
2026-09-11T16:37:30.249,3.275173984000048,-2087.341796875,-187860.76171875,-751443.046875,-1429.829130859375,-7.654239501953126,-3.3179218769073486,-2.272776485681534,-5.08405620454888,-1.0881671233895587,0.0,0.11243642121553421,921.0791625976562,40.477111637592316,0.09155276417732239,32.95899510383606,-2630.483032150102,1,1789159050.044949,38.99075665,-76.93786427333333,-4.640999999999998,0,1,12.938409,31.169889,124.65722499999998,1,1,1789159050.2418146,0.6526085541664344,0.7514844227075328,0.09673276780832683,-0.004001135946543379,171.87076112255153,-7.600835602992253,98.59711578517857,0.003674092608373263,0.012178558454566031,-0.21573054952813311,-0.1385679667854309,1.3465511337089537,-9.90383406484604
2026-09-11T16:37:30.282,3.3085874880000574,-2087.453857421875,-187870.84716796875,-751483.388671875,-1429.9058923339844,-7.731000976562501,-3.318176507949829,-2.272950907945633,-5.084446376041586,-0.005220112924974611,0.0,0.12072194367647171,988.9541625976562,43.459899723529816,0.1983642876148224,71.41114354133606,1150.7966490880278,1,1789159050.044949,38.99075665,-76.93786427333333,-4.640999999999998,0,1,12.938409,31.169889,124.65722499999998,1,1,1789159050.2738147,0.6504289414005677,0.7533403818067698,0.09692075624540501,-0.005179607763716456,171.9199714293844,-7.69410036814396,98.93003418573613,0.0075630352476670284,-0.006446548125166256,-0.19539781280824958,0.9129991300582886,0.25006957912445066,-9.174317359313966
2026-09-11T16:37:30.316,3.3420060160001412,-2087.56884765625,-187881.1962890625,-751524.78515625,-1429.9846606445315,-7.809769287109376,-3.4225728511810303,-2.3444624030590058,-5.24441303475976,-2.1398756735543003,0.0,0.13182272017002106,1079.8917236328125,47.45617926120758,0.4882812798023224,175.78126072883606,3123.1213172297175,1,1789159050.044949,38.99075665,-76.93786427333333,-4.640999999999998,0,1,12.938409,31.169889,124.65722499999998,1,1,1789159050.3138146,0.6478810978315503,0.7555355587626545,0.09696769224269212,-0.003656388780607317,171.77718524461025,-7.537330656017836,99.3155743545416,0.03928997945627035,-0.06412845817310245,-0.16858763563543946,-2.2121841434860228,1.8899376191711426,-9.758891775455474
2026-09-11T16:37:30.349,3.3754223359999287,-2087.68310546875,-187891.4794921875,-751565.91796875,-1430.0629272460938,-7.888035888671876,-3.4491567611694336,-2.362672381401062,-5.2851475961906305,-0.5449426610163006,0.0,0.15152563154697418,1241.2979736328125,54.549227356910706,0.18310552835464478,65.91799020767212,-3287.7130253080754,1,1789159050.044949,38.99075665,-76.93786427333333,-4.640999999999998,0,1,12.938409,31.169889,124.65722499999998,1,1,1789159050.3418145,0.6464394093432203,0.7569778525722866,0.09537494402467796,-0.0020593239977103927,171.78561509850002,-7.263111221697891,99.52930746306848,0.011190702097937242,-0.062337924893481465,-0.1459824802294593,-1.0783392517852783,1.2833963066673277,-9.17412122631073
2026-09-11T16:37:30.383,3.4088430720000815,-2087.80224609375,-187902.2021484375,-751608.80859375,-1430.1445385742188,-7.969647216796876,-3.527965545654297,-2.4166563987731937,-5.4059064038412465,-1.6152851143638691,0.0,0.15828146040439606,1296.6417236328125,56.98132574558258,0.5340576767921448,192.26076364517212,3780.3707685229388,1,1789159050.044949,38.99075665,-76.93786427333333,-4.640999999999998,0,1,12.938409,31.169889,124.65722499999998,1,1,1789159050.3738146,0.6452159895403521,0.7580874219452556,0.09486675362544311,0.000294255721646433,171.6453950206947,-7.005980810475582,99.70943711964613,-0.03245561917131095,-0.06764285315491823,-0.09621459114176621,-1.0361706560897828,1.2750606540298461,-11.253817526111602
2026-09-11T16:37:30.416,3.442261760000065,-2087.919921875,-187912.79296875,-751651.171875,-1430.225146484375,-8.050255126953125,-3.5552380084991455,-2.435338035821915,-5.4476960357505195,-0.5590176684593534,0.0,0.17725957930088043,1452.1104736328125,63.813448548316956,0.7781983017921448,280.1513886451721,2629.9843069854724,1,1789159050.044949,38.99075665,-76.93786427333333,-4.640999999999998,0,1,12.938409,31.169889,124.65722499999998,1,1,1789159050.4138145,0.644505219901139,0.7592603946600719,0.09019856972395976,0.0009447965750563825,172.00385582608735,-6.593946975992181,99.80823611684616,0.16957095413601309,-0.08394736996119886,-0.04022198527683532,-0.39050080944061283,-0.3115572756385803,-3.9607098673248293
2026-09-11T16:37:30.449,3.475675264000074,-2088.039794921875,-187923.58154296875,-751694.326171875,-1430.3072595214844,-8.1323681640625,-3.60921573638916,-2.472312779426575,-5.53040618160919,-1.1065808484093655,0.0,0.19460882246494293,1594.2354736328125,70.05917608737946,0.07629400491714478,27.46584177017212,-7562.377979721326,1,1789159050.044949,38.99075665,-76.93786427333333,-4.640999999999998,0,1,12.938409,31.169889,124.65722499999998,1,1,1789159050.4408147,0.644501949391286,0.7591684762647526,0.09094422369598397,0.003100008551697519,171.77921633815978,-6.460637692000139,99.80507271778474,-0.14597741877462853,-0.019663228418818516,-0.010684556614858886,0.5105342074203492,-1.9784916701316835,-9.430565128040314
2026-09-11T16:37:30.482,3.509093344000121,-2088.159912109375,-187934.39208984375,-751737.568359375,-1430.389539794922,-8.214648437500001,-3.63685941696167,-2.491248700618744,-5.572764630947435,-0.5666370178101986,0.0,0.21146215498447418,1732.2979736328125,76.1263757944107,0.5798340439796448,208.74025583267212,5424.441322249703,1,1789159050.044949,38.99075665,-76.93786427333333,-4.640999999999998,0,1,12.938409,31.169889,124.65722499999998,1,1,1789159050.4738147,0.6450126599543785,0.7587155553108179,0.09111294264634306,0.0027939775050651976,171.7911808098906,-6.505485312139236,99.7290918726605,-0.016758651477649555,0.006571688232534249,0.04291293391756018,1.1193310494613649,2.354478637332916,-14.2444535594368
2026-09-11T16:37:30.516,3.5425147200000993,-2088.279541015625,-187945.15869140625,-751780.634765625,-1430.4714855957031,-8.296594238281251,-3.612595558166504,-2.4746279573440555,-5.535585087115365,0.4973087665420861,0.0,0.21779073774814606,1784.1417236328125,78.40466558933258,0.0457763709127903,16.479493528604507,-5752.628566346036,1,1789159050.044949,38.99075665,-76.93786427333333,-4.640999999999998,0,1,12.938409,31.169889,124.65722499999998,1,1,1789159050.5138147,0.6461009538624757,0.758118525966945,0.08835090193496678,0.001994023817149303,172.10322417567664,-6.381254311476236,99.56279402886037,-0.0027284732196427353,0.08927359123950997,0.07870213196018029,-0.6569474943351745,-0.3127340736579895,-6.3113639110946655
2026-09-11T16:37:30.550,3.575930239999934,-2088.39892578125,-187955.9033203125,-751823.61328125,-1430.5532641601565,-8.378372802734376,-3.5351333618164062,-2.4215663528442386,-5.416889658295087,1.5879329275761382,0.0,0.2177373319864273,1783.7042236328125,78.38543951511383,0.0915527418255806,32.958987057209015,493.1688487471064,1,1789159050.044949,38.99075665,-76.93786427333333,-4.640999999999998,0,1,12.938409,31.169889,124.65722499999998,1,1,1789159050.5418146,0.6467569489860598,0.7577167286004721,0.08700284340569751,0.001146026424293549,172.2902110088522,-6.361587475525103,99.46358362209756,-0.0388752892259965,0.11886285618027062,0.07721266797652834,-1.2656462698745727,-0.07325567670822143,-10.39289170841217
2026-09-11T16:37:30.583,3.609348576000002,-2088.517333984375,-187966.56005859375,-751866.240234375,-1430.634373779297,-8.459482421875,-3.5109927654266357,-2.405030044317246,-5.379898989614449,0.49482740633642286,0.0,0.2213078886270523,1812.9542236328125,79.67083990573883,0.2593994438648224,93.38379979133606,1808.1334969522181,1,1789159050.044949,38.99075665,-76.93786427333333,-4.640999999999998,0,1,12.938409,31.169889,124.65722499999998,1,1,1789159050.5818145,0.648226989959585,0.7566629031858633,0.08520029163141168,-0.0019826084331804926,172.69294636451852,-6.514726842732391,99.24363554278003,-0.0012458160200735525,0.052369302337790656,0.09139294455020668,-0.1868166855812073,-0.30292742349624635,-10.002783164978027
2026-09-11T16:37:30.616,3.64276291200008,-2088.634033203125,-187977.06298828125,-751908.251953125,-1430.7143127441407,-8.53942138671875,-3.4606118202209473,-2.370519096851349,-5.302700198754802,1.0328185921700281,0.0,0.2257787138223648,1849.5792236328125,81.28033697605133,0.1373291164636612,49.43848192691803,-1315.163583209177,1,1789159050.044949,38.99075665,-76.93786427333333,-4.640999999999998,0,1,12.938409,31.169889,124.65722499999998,1,1,1789159050.6138146,0.6497947278357582,0.7555508362914816,0.08301156404624477,-0.004338858224448216,173.07370621475494,-6.571176749770048,99.00520929343422,0.00915337926208426,-0.030174822904804766,0.12624751877838383,0.33842749708175657,-0.29361110584259037,-8.850109504966737
2026-09-11T16:37:30.650,3.676180800000111,-2088.748046875,-187987.32421875,-751949.296875,-1430.7924121093752,-8.617520751953126,-3.4345006942749023,-2.352632975578308,-5.26269008495505,0.5352259626049458,0.0,0.22977079451084137,1882.2823486328125,82.7174860239029,0.045776382088661194,16.47949755191803,-986.2677250869222,1,1789159050.044949,38.99075665,-76.93786427333333,-4.640999999999998,0,1,12.938409,31.169889,124.65722499999998,1,1,1789159050.6418147,0.651327279167855,0.7545072841763285,0.0803504662861218,-0.005944417907843146,173.43982916136062,-6.525137478617138,98.76966005853303,0.03981340369894345,-0.032585820733509734,0.11109195221869107,0.12189666151046753,-0.053053977375030516,-11.045916542682649
2026-09-11T16:37:30.683,3.7095979519999673,-2088.859130859375,-187997.32177734375,-751989.287109375,-1430.868504638672,-8.69361328125,-3.330592632293701,-2.2814559531211853,-5.103471620260341,2.1299547746447387,0.0,0.23655714094638824,1937.8760986328125,85.16057074069977,0.4425049126148224,159.30176854133606,4273.921098663113,1,1789159050.044949,38.99075665,-76.93786427333333,-4.640999999999998,0,1,12.938409,31.169889,124.65722499999998,1,1,1789159050.6818147,0.653369171370065,0.7531453985153715,0.07639903149746557,-0.006627411603800322,173.85376537235345,-6.304729231598405,98.45420048167506,0.04911269248649444,-0.03663550819691218,0.10690228934927867,-0.7531507324218749,0.0328522780418396,-9.073406929149627
2026-09-11T16:37:30.717,3.7430116800001088,-2088.968505859375,-188007.16552734375,-752028.662109375,-1430.943426513672,-8.768535156250001,-3.2785160541534424,-2.245783497095108,-5.023674608748894,1.0675988032800858,0.0,0.24941648542881012,2043.2198486328125,89.78993475437164,0.2441406548023224,87.89063572883606,-2137.179449482493,1,1789159050.044949,38.99075665,-76.93786427333333,-4.640999999999998,0,1,12.938409,31.169889,124.65722499999998,1,1,1789159050.7138147,0.6553573138189553,0.7517540613918978,0.07294952735585976,-0.007140648664282856,174.20940054351482,-6.1050687187746675,98.1471176185471,0.025539228411507825,-0.04887340784604601,0.14836956704741194,-0.3429385561561585,-0.4393379272460937,-8.721446254844667
2026-09-11T16:37:30.750,3.776430591999997,-2089.07470703125,-188016.7236328125,-752066.89453125,-1431.0161743164062,-8.841282958984376,-3.174978017807007,-2.1748599421978,-4.8650231348375925,2.1222580465080787,0.0,0.2517758905887604,2062.548095703125,90.63932061195374,0.015258789993822575,5.493164397776127,-2465.5940723424965,1,1789159050.044949,38.99075665,-76.93786427333333,-4.640999999999998,0,1,12.938409,31.169889,124.65722499999998,1,1,1789159050.7418146,0.657215147498763,0.750178242965017,0.07224236601069317,-0.009049543263414103,174.4296581544533,-6.23087712464499,97.86160335113104,-0.052017793026438996,0.01164029891325098,0.14830882958944255,1.3194847792625428,-1.1678739677619934,-11.278922550525666
2026-09-11T16:37:30.784,3.809847808000086,-2089.18017578125,-188026.2158203125,-752104.86328125,-1431.0884204101565,-8.913529052734376,-3.150433301925659,-2.1580468118190765,-4.827413233310384,0.5031278003134247,0.0,0.25308242440223694,2073.251220703125,91.1096727848053,0.015258795581758022,5.493166409432888,6.019821523025972e-05,1,1789159050.044949,38.99075665,-76.93786427333333,-4.640999999999998,0,1,12.938409,31.169889,124.65722499999998,1,1,1789159050.7818146,0.6598152589295098,0.7479022799504476,0.07200048038243284,-0.010096264329213202,174.5514002158901,-6.322006504446316,97.46228674686172,0.007258475293194018,0.06181083545937918,0.17213362107671634,0.8324865322303772,0.7164738608169555,-18.640186427936555
2026-09-11T16:37:30.817,3.8432647360000374,-2089.28515625,-188035.6640625,-752142.65625,-1431.1603320312502,-8.985440673828126,-3.1256918907165527,-2.141098945140839,-4.789501935264935,0.5071641138964746,0.0,0.25308242440223694,2073.251220703125,91.1096727848053,0.0,0.0,-164.3827466558527,1,1789159050.044949,38.99075665,-76.93786427333333,-4.640999999999998,0,1,12.938409,31.169889,124.65722499999998,1,1,1789159050.8138146,0.6617925261451176,0.7461918027818755,0.07174541524075555,-0.009002288127468937,174.5072158071427,-6.222861768956771,97.1595965290493,0.09802833730043871,0.02639234534988265,0.1443628146836086,-1.7167521773147583,2.26651298538208,-1.744210797767639
2026-09-11T16:37:30.850,3.8766781760000413,-2089.388671875,-188044.98046875,-752179.921875,-1431.231240234375,-9.056348876953125,-3.0741238594055176,-2.10577484369278,-4.710484170751561,1.0571824226435484,0.0,0.2528630793094635,2071.454345703125,91.03070855140686,0.0,0.0,0.0,1,1789159050.044949,38.99075665,-76.93786427333333,-4.640999999999998,0,1,12.938409,31.169889,124.65722499999998,1,1,1789159050.8418145,0.6635022139185016,0.7446428439868307,0.0718603387136808,-0.010389357266303217,174.61706400884938,-6.363262142026539,96.8951828943716,0.03233466785414775,0.005283286178712035,0.16248893163019568,2.736349594631195,-1.1440438078689574,-10.702683787021636
2026-09-11T16:37:30.884,3.9100992000001042,-2089.494873046875,-188054.53857421875,-752218.154296875,-1431.3039880371095,-9.129096679687501,-3.153202772140503,-2.1599438989162447,-4.831656896287228,-1.6208077652965618,0.0,0.25135818123817444,2059.126220703125,90.4889452457428,-0.1983642727136612,-71.41113817691803,-2136.713051544545,1,1789159050.044949,38.99075665,-76.93786427333333,-4.640999999999998,0,1,12.938409,31.169889,124.65722499999998,1,1,1789159050.8818147,0.6654735414603764,0.7426949530276797,0.07374060013265119,-0.010559178731026325,174.4851070561137,-6.536107449162726,96.59285013313875,0.07803297272496568,-0.0007955210730590154,0.11168571323021954,0.630665671901703,1.5373885458564758,-10.004352229003906
2026-09-11T16:37:30.917,3.943516864000003,-2089.6015625,-188064.140625,-752256.5625,-1431.3770703125,-9.202178955078125,-3.206047296524048,-2.196142398118973,-4.912630632871712,-1.0832145299814493,0.0,0.238077312707901,1950.329345703125,85.70783257484436,-0.4577637016773224,-164.79493260383606,-2794.4441127662676,1,1789159050.044949,38.99075665,-76.93786427333333,-4.640999999999998,0,1,12.938409,31.169889,124.65722499999998,1,1,1789159050.9138145,0.6666703228061148,0.7413997622540154,0.075678777363833,-0.012239112549357096,174.45747698862493,-6.837494392853379,96.4072948802881,0.055659073444874765,0.002458470784359213,0.08575448386871379,0.16504592222213746,0.6283120758628845,-9.212955560951233
2026-09-11T16:37:30.951,3.9769384640001135,-2089.7080078125,-188073.720703125,-752294.8828125,-1431.4499853515626,-9.275093994140626,-3.2070484161376953,-2.1968281650543213,-4.914164649817285,-0.02051867461001617,0.0,0.22383132576942444,1833.626220703125,80.5792772769928,-0.3204346001148224,-115.35645604133606,1479.2372765617552,1,1789159050.044949,38.99075665,-76.93786427333333,-4.640999999999998,0,1,12.938409,31.169889,124.65722499999998,1,1,1789159050.9418147,0.6674511837097681,0.7404722772831411,0.07784001227503394,-0.012274218043157061,174.2817209895957,-7.012521506783315,96.28856327393835,0.0370892938024307,-0.020907124576714873,0.06818442882181208,0.8775971229743957,1.2063160363960266,-9.833226183681488
2026-09-11T16:37:30.984,4.010354720000123,-2089.81689453125,-188083.5205078125,-752334.08203125,-1431.5245727539063,-9.349681396484376,-3.2345378398895264,-2.215658420324326,-4.956286731219406,-0.5635058359021198,0.0,0.22225776314735413,1820.735595703125,80.01279473304749,-0.015258789993822575,-5.493164397776127,3287.7199541303676,1,1789159050.044949,38.99075665,-76.93786427333333,-4.640999999999998,0,1,12.938409,31.169889,124.65722499999998,1,1,1789159050.9818146,0.668279286274385,0.7395915297594016,0.0791118518143712,-0.012185218391471707,174.17357633434935,-7.109256479759762,96.16164460077238,0.049838400389473674,0.011136771424050618,0.03639971421496774,0.00421685956954956,1.203668240852356,-9.355740387306213
2026-09-11T16:37:31.017,4.043770656000106,-2089.92822265625,-188093.5400390625,-752374.16015625,-1431.6008325195314,-9.425941162109376,-3.314331531524658,-2.270317099094391,-5.078554713435908,-1.635706950423075,0.0,0.21676459908485413,1775.735595703125,78.03525567054749,0.0,0.0,164.38756639284063,1,1789159050.044949,38.99075665,-76.93786427333333,-4.640999999999998,0,1,12.938409,31.169889,124.65722499999998,1,1,1789159051.0138147,0.6685353527519424,0.7390195694257539,0.08224280099452094,-0.012111144090679253,173.9015794802973,-7.346246878128473,96.12531987014222,0.003634473634352992,0.06210387624078903,0.03793717475304954,0.896033625278473,0.9216289822006225,-9.534711752758026
2026-09-11T16:37:31.051,4.077185888000031,-2090.04150390625,-188103.7353515625,-752414.94140625,-1431.6784301757814,-9.503538818359376,-3.3936381340026855,-2.3246421217918396,-5.20007632827451,-1.6257562628196334,0.0,0.21639838814735413,1772.735595703125,77.90341973304749,0.0,0.0,0.0,1,1789159051.0396464,38.99076254333333,-76.93785265833333,-4.7570000000000014,0,1,8.673024999999999,9.554281000000001,84.76884900000002,1,1,1789159051.0418146,0.6689547202795213,0.7383993481825512,0.08432863192354433,-0.012436505024909564,173.75165495349017,-7.538379863460174,96.06188211386521,-0.005834810222342243,0.05828666663375223,0.030441858280359894,0.26242595832824706,-0.09659550409317016,-9.621206407184602
2026-09-11T16:37:31.085,4.110602687999972,-2090.1533203125,-188113.798828125,-752455.1953125,-1431.7550244140625,-9.580133056640626,-3.4213929176330566,-2.343654148578644,-5.242605020979423,-0.568936187391911,0.0,0.21687522530555725,1776.641845703125,78.07508111000061,0.0305175818502903,10.986329466104507,328.7666522863935,1,1789159051.0396464,38.99076254333333,-76.93785265833333,-4.7570000000000014,0,1,8.673024999999999,9.554281000000001,84.76884900000002,1,1,1789159051.0818145,0.6695855082712905,0.7376587075538122,0.08608924066708473,-0.010174523304880369,173.4333764684178,-7.486863052979836,95.96897879230221,-0.011534357427654926,0.04823671173491848,0.048788933910249487,-0.5046502173233032,0.8345459287643432,-7.973885313014984
2026-09-11T16:37:31.118,4.144019904000061,-2090.26904296875,-188124.2138671875,-752496.85546875,-1431.8342944335939,-9.659403076171875,-3.3965463638305664,-2.326634259223938,-5.2045326127951315,0.5093149996295463,0.0,0.219247967004776,1796.079345703125,78.92926812171936,0.1525879055261612,54.93164598941803,1315.0501981731973,1,1789159051.0396464,38.99076254333333,-76.93785265833333,-4.7570000000000014,0,1,8.673024999999999,9.554281000000001,84.76884900000002,1,1,1789159051.1138146,0.6704860606550089,0.7369199894744458,0.08559986983668887,-0.008368623796771855,173.34570084363136,-7.303260370721541,95.83021426102702,0.02314341494729521,0.006322629748274659,0.07510780089862318,-0.564568849811554,0.8974065563011169,-9.38643520231247
2026-09-11T16:37:31.151,4.1774378239999805,-2090.38525390625,-188134.6728515625,-752538.69140625,-1431.9138989257813,-9.739007568359376,-3.450059175491333,-2.363290535211563,-5.2865303668834125,-1.096904774076691,0.0,0.22420135140419006,1836.657470703125,80.71248650550842,0.07629397511482239,27.46583104133606,-821.8888233662616,1,1789159051.0396464,38.99076254333333,-76.93785265833333,-4.7570000000000014,0,1,8.673024999999999,9.554281000000001,84.76884900000002,1,1,1789159051.1418147,0.6714059723540555,0.736005179434177,0.08640149418906981,-0.006721453359664184,173.1594778183426,-7.233599363646378,95.68888019670608,0.005542467572633193,0.024596227016655287,0.09476387346750852,-2.5567898301696776,1.2756490530395508,-8.499129495677948
2026-09-11T16:37:31.185,4.2108523520000745,-2090.508544921875,-188145.76904296875,-752583.076171875,-1431.9983532714846,-9.8234619140625,-3.6072893142700195,-2.4709931802749634,-5.527454322375986,-3.2232280839968017,0.0,0.22691932320594788,1858.923095703125,81.69095635414124,0.1678466945886612,60.42481005191803,986.3667387577442,1,1789159051.0396464,38.99076254333333,-76.93785265833333,-4.7570000000000014,0,1,8.673024999999999,9.554281000000001,84.76884900000002,1,1,1789159051.1818147,0.6732813193516105,0.7342668173072241,0.08663163879488381,-0.006282131277448846,173.12437583934647,-7.231603443497481,95.39686028177236,0.04132049550804055,0.016145866377274342,0.06979746211650523,1.2233796076774597,-3.0853682738876342,-17.706201066532135
2026-09-11T16:37:31.218,4.244268160000047,-2090.623779296875,-188156.14013671875,-752624.560546875,-1432.0772888183594,-9.9023974609375,-3.503540277481079,-2.3999250900745395,-5.368479532199662,2.1267805405298743,0.0,0.23312202095985413,1909.735595703125,83.92392754554749,0.1983642876148224,71.41114354133606,328.7765326347064,1,1789159051.0396464,38.99076254333333,-76.93785265833333,-4.7570000000000014,0,1,8.673024999999999,9.554281000000001,84.76884900000002,1,1,1789159051.2138147,0.6750634915268459,0.7325860007233223,0.08663721855997258,-0.010051184606008476,173.43304694468927,-7.567722003869447,95.11488427216717,0.0771639732903977,0.03211685076349886,0.17792776512748712,1.415197684841156,0.13905829929351807,-7.18101764743805
2026-09-11T16:37:31.251,4.277684352000051,-2090.7431640625,-188166.884765625,-752667.5390625,-1432.1590673828125,-9.984176025390626,-3.5814638137817383,-2.453302712440491,-5.487881872853634,-1.5973580223008264,0.0,0.2393456995487213,1960.719970703125,86.16445183753967,0.4425049126148224,159.30176854133606,2630.1807518938385,1,1789159051.0396464,38.99076254333333,-76.93785265833333,-4.7570000000000014,0,1,8.673024999999999,9.554281000000001,84.76884900000002,1,1,1789159051.2418146,0.676311198846066,0.7316278619812402,0.08520156204603722,-0.008032914357287362,173.4116472027177,-7.296253469590348,94.92040697152684,0.07046592322001906,-0.058168333310467016,0.16478142160269024,-1.9576035052871703,-0.10885381679534913,-11.58949916114807
2026-09-11T16:37:31.285,4.311099455999965,-2090.86279296875,-188177.6513671875,-752710.60546875,-1432.2410131835939,-10.066121826171877,-3.5810346603393555,-2.4530087423324587,-5.487224280450197,0.008797521864154046,0.0,0.2524186670780182,2067.813720703125,90.87072014808655,0.4577637016773224,164.79493260383606,164.3916494323676,1,1789159051.0396464,38.99076254333333,-76.93785265833333,-4.7570000000000014,0,1,8.673024999999999,9.554281000000001,84.76884900000002,1,1,1789159051.2818146,0.6792251370028081,0.7290746656163142,0.08376316551396576,-0.009331523083404528,173.66381547686322,-7.3190764264787855,94.4601612034674,0.15702186228124862,-0.17875330586368043,0.1800239055591323,-4.113693609848022,-1.1006003476524353,-14.249847217025756
2026-09-11T16:37:31.318,4.344512383999927,-2090.9833984375,-188188.505859375,-752754.0234375,-1432.3236279296875,-10.148736572265626,-3.6072421073913574,-2.47096084356308,-5.527381987211609,-0.53728009801003,0.0,0.26882949471473694,2202.251220703125,96.7786180973053,0.3662109971046448,131.83595895767212,-986.4138110315229,1,1789159051.0396464,38.99076254333333,-76.93785265833333,-4.7570000000000014,0,1,8.673024999999999,9.554281000000001,84.76884900000002,1,1,1789159051.3138146,0.6821203375897339,0.7265800066436052,0.08189851160910537,-0.009272151231474466,173.84573373483653,-7.192490482785418,94.002557413551,0.06276937028457447,-0.14234695939755512,0.20019921358048598,-1.2149458885383606,0.12062179698944092,-5.678344643154145
2026-09-11T16:37:31.352,4.377929823999921,-2091.10791015625,-188199.7119140625,-752798.84765625,-1432.4089184570314,-10.234027099609376,-3.738046646118164,-2.5605619525909424,-5.727813959804356,-2.6812678956819838,0.0,0.2925702631473541,2396.735595703125,105.32529473304749,0.3662109971046448,131.83595895767212,0.0,1,1789159051.0396464,38.99076254333333,-76.93785265833333,-4.7570000000000014,0,1,8.673024999999999,9.554281000000001,84.76884900000002,1,1,1789159051.3418145,0.6849791750890949,0.7237346940680522,0.08340545928879169,-0.0074264161822321624,173.60241291112473,-7.181420786751795,93.55364192771012,-0.1989938891990587,-0.0678674770296499,0.2819176235539629,-1.8383546393203734,1.0918724290084838,-15.051737000751496
2026-09-11T16:37:31.385,4.411342207999951,-2091.23193359375,-188210.8740234375,-752843.49609375,-1432.4938745117188,-10.318983154296875,-3.739333391189575,-2.561443372964859,-5.729785641027327,-0.026380050400351556,0.0,0.2937089502811432,2406.063720703125,105.73522210121155,0.2899170219898224,104.37012791633606,-822.0254813697586,1,1789159051.0396464,38.99076254333333,-76.93785265833333,-4.7570000000000014,0,1,8.673024999999999,9.554281000000001,84.76884900000002,1,1,1789159051.3818147,0.6897649060236931,0.7194463963686732,0.08099396172302593,-0.00782530093127702,173.88321195337534,-7.064889223931479,92.79117930498242,-0.0033686599892742554,-0.015633786774739207,0.35269159738695893,0.8374879238128663,-1.2759432525444032,-11.026597441864014
2026-09-11T16:37:31.418,4.444756159999997,-2091.3505859375,-188221.552734375,-752886.2109375,-1432.5751513671876,-10.400260009765626,-3.6093015670776367,-2.4723715734481813,-5.5305377000898766,2.6657068136254742,0.0,0.29837051033973694,2444.251220703125,107.4133837223053,0.015258789993822575,5.493164397776127,-2959.152018845991,1,1789159051.0396464,38.99076254333333,-76.93785265833333,-4.7570000000000014,0,1,8.673024999999999,9.554281000000001,84.76884900000002,1,1,1789159051.4138145,0.6935772274414371,0.7160246361801893,0.07863255386609862,-0.008733351600116549,174.18929008215568,-6.983418125124686,92.17953296126466,-0.004076216468032757,-0.02551863352633429,0.31062357736028917,2.980633250160217,-2.4251845849990845,-7.103937377166749
2026-09-11T16:37:31.452,4.478185120000035,-2091.46533203125,-188231.8798828125,-752927.51953125,-1432.6537524414064,-10.478861083984375,-3.4545397758483887,-2.3663597464561463,-5.293395996904402,3.1712571073678655,0.0,0.30107322335243225,2466.391845703125,108.38636040687561,0.030517593026161194,10.98633348941803,164.32366103030859,1,1789159051.0396464,38.99076254333333,-76.93785265833333,-4.7570000000000014,0,1,8.673024999999999,9.554281000000001,84.76884900000002,1,1,1789159051.4418147,0.6972086394781375,0.7125733274376137,0.07743625182650452,-0.011957966574387503,174.58180527951734,-7.181928291397187,91.58911991257904,0.0248711163738444,0.04307647126847205,0.29891381434280884,-1.268882464427948,-0.36441512001037596,-10.514298037414552
2026-09-11T16:37:31.485,4.511602496000023,-2091.57861328125,-188242.0751953125,-752968.30078125,-1432.7313500976563,-10.556458740234376,-3.377655029296875,-2.3136936950683595,-5.175585395195859,1.5760079842236836,0.0,0.302225261926651,2475.829345703125,108.80109429359436,0.2441406399011612,87.89063036441803,2301.326617476682,1,1789159051.0396464,38.99076254333333,-76.93785265833333,-4.7570000000000014,0,1,8.673024999999999,9.554281000000001,84.76884900000002,1,1,1789159051.4818146,0.7019203316206628,0.707734564510941,0.07863706723492,-0.015357275498538075,174.80515152455084,-7.592790323943947,90.81758772068841,0.10179824848474646,0.054996197394967326,0.3536520520743314,-1.3062458015441896,-3.099195650615692,-11.908999823417664
2026-09-11T16:37:31.519,4.545019936000017,-2091.691162109375,-188252.20458984375,-753008.818359375,-1432.808446044922,-10.6335546875,-3.353311777114868,-2.297018567323685,-5.1382841967691535,0.4989947687398467,0.0,0.31038299202919006,2542.657470703125,111.73787713050842,0.1525879204273224,54.93165135383606,-986.2807866368005,1,1789159051.0396464,38.99076254333333,-76.93785265833333,-4.7570000000000014,0,1,8.673024999999999,9.554281000000001,84.76884900000002,1,1,1789159051.5138147,0.7056759070612898,0.7037431945668541,0.08083076360200096,-0.015278021782368421,174.66004591402213,-7.79240573021819,90.20681091031324,0.06501665622944236,-0.02241857970894196,0.3706421342107954,1.3921520569610597,0.8648484777641297,-7.787657026443482
2026-09-11T16:37:31.552,4.578450239999938,-2091.8076171875,-188262.685546875,-753050.7421875,-1432.8882177734376,-10.713326416015626,-3.458936929702759,-2.36937179684639,-5.300133761735834,-2.1643006753057126,0.0,0.319742351770401,2619.329345703125,115.10724663734436,0.3204346299171448,115.35646677017212,1807.4862680422618,1,1789159051.0396464,38.99076254333333,-76.93785265833333,-4.7570000000000014,0,1,8.673024999999999,9.554281000000001,84.76884900000002,1,1,1789159051.5418146,0.7092520768373446,0.7002080066760915,0.08058382401888246,-0.013284810691230425,174.5574382679841,-7.637941645228821,89.62828823880133,0.05214607472646059,-0.0817775766351195,0.3477317207186414,-0.9081938714790344,0.5736890344619752,-8.714679666233064
2026-09-11T16:37:31.587,4.611870016000012,-2091.927734375,-188273.49609375,-753093.984375,-1432.970498046875,-10.795606689453125,-3.616421699523926,-2.4772488641738892,-5.541447888721113,-3.2279410648133138,0.0,0.32681289315223694,2677.251220703125,117.6526415348053,0.0152588477358222,5.493185184895992,-3287.373367943425,1,1789159051.0396464,38.99076254333333,-76.93785265833333,-4.7570000000000014,0,1,8.673024999999999,9.554281000000001,84.76884900000002,1,1,1789159051.5818145,0.7147937811363139,0.6946883225389524,0.07999788877119626,-0.008850015198813099,174.30142338302994,-7.27662829616208,88.72817536143897,0.032656506568215504,-0.1906466775184706,0.38587973124533187,-1.5010058737564087,1.5739673509597778,-8.698989025974274
2026-09-11T16:37:31.619,4.645289951999985,-2092.052490234375,-188284.72412109375,-753138.896484375,-1433.055955810547,-10.881064453125001,-3.747603416442871,-2.567108340263367,-5.74245781197066,-2.688798568900625,0.0,0.32864394783973694,2692.251220703125,118.3118212223053,0.0,0.0,-164.36851300075614,1,1789159051.0396464,38.99076254333333,-76.93785265833333,-4.7570000000000014,0,1,8.673024999999999,9.554281000000001,84.76884900000002,1,1,1789159051.6138146,0.71993160304747,0.6896483809052293,0.07788567123139543,-0.0041737111940196685,174.1381493675547,-6.771007527776256,87.88558091758553,-0.0032700488865365757,-0.2158521989769971,0.422840743347741,-0.7655071116256714,0.2725268079948425,-11.652555921688078
2026-09-11T16:37:31.652,4.67871302399999,-2092.182373046875,-188296.41357421875,-753185.654296875,-1433.1449255371094,-10.9700341796875,-3.8789865970611572,-2.657105818986893,-5.94377643832071,-2.692675249106738,0.0,0.3284589350223541,2690.735595703125,118.24521660804749,0.0,0.0,0.0,1,1789159051.0396464,38.99076254333333,-76.93785265833333,-4.7570000000000014,0,1,8.673024999999999,9.554281000000001,84.76884900000002,1,1,1789159051.6418147,0.7241807621100428,0.6852239874400545,0.07764861112990397,-0.0010020060210989856,173.93544710666978,-6.536518280379386,87.18006012403555,-0.016049175136713858,-0.16523084388507878,0.4187217663130344,-0.07835513479232789,0.5265190471839905,-9.973657413997651
2026-09-11T16:37:31.686,4.71212940800001,-2092.3125,-188308.125,-753232.5,-1433.2340625000002,-11.059171142578126,-3.9066834449768066,-2.6760781598091126,-5.986216356051158,-0.5677556501088845,0.0,0.3280927240848541,2687.735595703125,118.11338067054749,0.0,0.0,0.0,1,1789159051.0396464,38.99076254333333,-76.93785265833333,-4.7570000000000014,0,1,8.673024999999999,9.554281000000001,84.76884900000002,1,1,1789159051.6818147,0.7302509904364833,0.6788532091265876,0.07673268469933266,0.001976492828572168,173.81647636900303,-6.279849809769292,86.16160561556593,0.013138315010237715,-0.11638553583998987,0.39396025661621525,-0.223787756690979,0.12228892751693726,-7.9401504364585875
2026-09-11T16:37:31.719,4.74554745599994,-2092.44384765625,-188319.9462890625,-753279.78515625,-1433.3240356445312,-11.149144287109376,-3.9334263801574707,-2.6943970704078675,-6.027194592000413,-0.5481741662108164,0.0,0.32281699776649475,2644.516845703125,116.21411919593811,-0.09155276417732239,-32.95899510383606,-986.2633240548545,1,1789159051.0396464,38.99076254333333,-76.93785265833333,-4.7570000000000014,0,1,8.673024999999999,9.554281000000001,84.76884900000002,1,1,1789159051.7138147,0.7346949885984561,0.6740156140918854,0.07697628041714384,-0.0009369854824157255,174.08425130627262,-6.567361663284751,85.40679609035945,0.027373394922428667,-0.04368855823714646,0.35937865188304996,0.6083065095329285,-0.5718257709312439,-10.437413900146483
2026-09-11T16:37:31.752,4.778963519999934,-2092.572509765625,-188331.52587890625,-753326.103515625,-1433.4121691894532,-11.237277832031252,-3.8552870750427246,-2.6408716464042667,-5.907461628499158,1.6017872123901518,0.0,0.3211118280887604,2630.548095703125,115.60025811195374,-0.0457763746380806,-16.479494869709015,493.1610208231042,1,1789159051.0396464,38.99076254333333,-76.93785265833333,-4.7570000000000014,0,1,8.673024999999999,9.554281000000001,84.76884900000002,1,1,1789159051.7405586,0.7383413136012243,0.6701305350591529,0.07594893622616372,-0.002988259872633325,174.37354808028536,-6.6703937005705525,84.78293634157325,0.031753473213233636,-0.010553656920959312,0.36321401291430755,-1.3819531407928465,-0.6609682209014893,-8.683298385715485
2026-09-11T16:37:31.786,4.812384351999981,-2092.6982421875,-188342.841796875,-753371.3671875,-1433.4982958984376,-11.323404541015625,-3.8024532794952393,-2.604680496454239,-5.826504331724759,1.0828919504450578,0.0,0.32119765877723694,2631.251220703125,115.6311571598053,0.0,0.0,493.0905032431807,1,1789159051.0396464,38.99076254333333,-76.93785265833333,-4.7570000000000014,0,1,8.673024999999999,9.554281000000001,84.76884900000002,1,1,1789159051.7805586,0.7436062052754705,0.6645312688583694,0.07355216621731411,-0.006171144953825488,174.88261915238422,-6.753007947905074,83.87390560946461,0.06762627252702429,-0.00445983983762111,0.375390302440846,-0.29272850732803346,-0.7465802768135071,-9.137346288204192
2026-09-11T16:37:31.820,4.845808512000076,-2092.8232421875,-188354.091796875,-753416.3671875,-1433.5839208984376,-11.409029541015625,-3.725006103515625,-2.5516291809082032,-5.707831918638601,1.5872146239691596,0.0,0.3218061029911041,2636.235595703125,115.85019707679749,0.0457763746380806,16.479494869709015,493.04140686444,1,1789159051.0396464,38.99076254333333,-76.93785265833333,-4.7570000000000014,0,1,8.673024999999999,9.554281000000001,84.76884900000002,1,1,1789159051.8125587,0.7479673346889124,0.6597169063995955,0.07245164521342871,-0.008320381889019802,175.19601683096894,-6.855232510284276,83.11332563667155,-0.010804984333246495,0.03870948294705704,0.38185779451703616,0.7730582322502136,-1.4009780421066282,-8.418224631843566
2026-09-11T16:37:31.853,4.87922070400009,-2092.9453125,-188365.078125,-753460.3125,-1433.6675390625,-11.492647705078125,-3.64884090423584,-2.4994560194015505,-5.591123880193154,1.5615007092809225,0.0,0.3251554071903229,2663.673095703125,117.05594658851624,0.1068115383386612,38.45215380191803,657.6239874414582,1,1789159051.0396464,38.99076254333333,-76.93785265833333,-4.7570000000000014,0,1,8.673024999999999,9.554281000000001,84.76884900000002,1,1,1789159051.8405588,0.7519360103140255,0.6553661449643371,0.07065791571075898,-0.009742246918488962,175.49645657380887,-6.836120984330071,82.41809274692834,0.02804901187587567,0.057545076234579835,0.39074344027186453,-0.933102762889862,-0.5754542314910889,-11.373654791088105
2026-09-11T16:37:31.886,4.912636896000095,-2093.065673828125,-188375.91064453125,-753503.642578125,-1433.7499865722657,-11.575095214843751,-3.598147392272949,-2.4647309637069705,-5.513446142866338,1.039168547229306,0.0,0.3282910883426666,2689.360595703125,118.18479180335999,0.1373291164636612,49.43848192691803,328.7725939867298,1,1789159051.0396464,38.99076254333333,-76.93785265833333,-4.7570000000000014,0,1,8.673024999999999,9.554281000000001,84.76884900000002,1,1,1789159051.8805587,0.757384708161162,0.6489130600481976,0.07175550542954762,-0.011462625487455445,175.62131669742374,-7.098156014257222,81.45040987158912,0.04212805935293833,0.18185615220787596,0.39943605261142223,2.6087650760269163,-1.6499688897132874,-11.960092470760346
2026-09-11T16:37:31.920,4.946052064000014,-2093.187744140625,-188386.89697265625,-753547.587890625,-1433.8336047363282,-11.658713378906251,-3.624905824661255,-2.4830604898929596,-5.554448125207938,-0.5485391001485672,0.0,0.32971206307411194,2701.001220703125,118.6963427066803,-0.0457763709127903,-16.479493528604507,-1972.6962155534077,1,1789159051.0396464,38.99076254333333,-76.93785265833333,-4.7570000000000014,0,1,8.673024999999999,9.554281000000001,84.76884900000002,1,1,1789159051.9125588,0.7618434991687372,0.6434221460217814,0.07411689772607963,-0.010445585408273254,175.40549617057687,-7.260039890768265,80.65779627239858,-0.0705760534958199,0.042909617791981394,0.430542008672166,-2.085384156894684,-0.5358353648376465,-3.400750143089294
2026-09-11T16:37:31.953,4.979465696000034,-2093.307861328125,-188397.70751953125,-753590.830078125,-1433.9158850097658,-11.74099365234375,-3.6254568099975586,-2.4834379148483277,-5.555292400788129,-0.01129553816142627,0.0,0.33206191658973694,2720.251220703125,119.5422899723053,0.015258789993822575,5.493164397776127,657.5956162552943,1,1789159051.0396464,38.99076254333333,-76.93785265833333,-4.7570000000000014,0,1,8.673024999999999,9.554281000000001,84.76884900000002,1,1,1789159051.9525588,0.7675577887193417,0.6364713519081541,0.07506016912041762,-0.011190629477192139,175.46698108596286,-7.439028265234863,79.626985756604,-0.035816076113100836,0.043870945143979864,0.4584306247897834,-1.4695265267372133,-0.5098477419090272,-9.640917774009704
2026-09-11T16:37:31.987,5.012880543999927,-2093.428955078125,-188408.60595703125,-753634.423828125,-1433.9988342285158,-11.82394287109375,-3.6266121864318848,-2.4842293477058415,-5.557062785669825,-0.023685065319356,0.0,0.3370114862918854,2760.798095703125,121.32413506507874,0.3967285454273224,142.82227635383606,4109.823033057029,1,1789159051.0396464,38.99076254333333,-76.93785265833333,-4.7570000000000014,0,1,8.673024999999999,9.554281000000001,84.76884900000002,1,1,1789159051.9805586,0.7713628957634729,0.6315766195611112,0.07727067710718595,-0.011810974665379484,175.405258319363,-7.708114823407852,78.92957344645485,-0.06264213578210408,0.08304678006716978,0.43050396049447254,0.08149326284408569,-2.30966224609375,-14.290152549190521
2026-09-11T16:37:32.020,5.046293952000042,-2093.550048828125,-188419.50439453125,-753678.017578125,-1434.0817834472657,-11.906892089843751,-3.601792573928833,-2.467227913141251,-5.519031659675305,0.5088207274316973,0.0,0.3599454462528229,2948.673095703125,129.58036065101624,0.9918214082717896,357.05570697784424,6411.6007149965435,1,1789159051.0396464,38.99076254333333,-76.93785265833333,-4.7570000000000014,0,1,8.673024999999999,9.554281000000001,84.76884900000002,1,1,1789159052.0125587,0.7764228782628603,0.6251416237307613,0.07899762043199281,-0.011173198081380337,175.2855397527972,-7.853509079142974,78.00277700842027,-0.098310382507561,-0.09549481735824374,0.45674812739086085,1.6435945671081542,0.012454445705413819,-5.520653708553314
2026-09-11T16:37:32.053,5.079712608000136,-2093.672607421875,-188430.53466796875,-753722.138671875,-1434.1657360839845,-11.990844726562502,-3.681157112121582,-2.521592621803284,-5.6406420494883704,-1.626777230714471,0.0,0.3649407923221588,2989.594970703125,131.37868523597717,-0.01525880303233862,-5.493169091641903,-10848.697089088857,1,1789159052.0334773,38.99076584,-76.93783858666667,-4.771000000000001,0,1,11.930116000000002,21.566736000000002,152.15222500000002,1,1,1789159052.0525587,0.7830981608773849,0.6168640719500461,0.07851189968791641,-0.00847754534403668,175.16198927434763,-7.667499322622309,76.78099703553626,-0.03979368147839591,-0.05867831851789976,0.5147979528451174,0.47895679389953616,0.6435123836135864,-10.138507203216554
2026-09-11T16:37:32.087,5.113132191999966,-2093.79541015625,-188441.5869140625,-753766.34765625,-1434.2498559570313,-12.074964599609375,-3.708641767501831,-2.5404196107387547,-5.682756824308232,-0.5633519835425338,0.0,0.3648511469364166,2988.860595703125,131.34641289710999,-0.015258789993822575,-5.493164397776127,0.00014045254950168946,1,1789159052.0334773,38.99076584,-76.93783858666667,-4.771000000000001,0,1,11.930116000000002,21.566736000000002,152.15222500000002,1,1,1789159052.0805588,0.7877729438780543,0.6108335097526693,0.07904503006873448,-0.006935090365144344,175.04300873342922,-7.643646967674779,75.91083346455736,-0.0022774801409274005,-0.06372982497194694,0.50725202182412,-1.5314064892578125,0.877204856967926,-10.035733509521485
2026-09-11T16:37:32.120,5.1465480960000605,-2093.91943359375,-188452.7490234375,-753810.99609375,-1434.334812011719,-12.159920654296876,-3.7366135120391846,-2.5595802557468414,-5.725617966505992,-0.5733989721790209,0.0,0.3630296289920807,2973.938720703125,130.69066643714905,-0.2441406399011612,-87.89063036441803,-2465.81585721607,1,1789159052.0334773,38.99076584,-76.93783858666667,-4.771000000000001,0,1,11.930116000000002,21.566736000000002,152.15222500000002,1,1,1789159052.1125586,0.7929326886540008,0.6039054485806887,0.08079904766432786,-0.005241596610972669,174.83088445684285,-7.727815815229357,74.93588047759378,-0.04442229465468488,-0.021798115159857977,0.5044116729994244,-0.11669913692474367,0.6966644274902344,-11.408566465663911
2026-09-11T16:37:32.154,5.179960800000117,-2094.04443359375,-188463.9990234375,-753855.99609375,-1434.4204370117188,-12.245545654296876,-3.7640557289123535,-2.5783781743049623,-5.7676677127437355,-0.5625979435273768,0.0,0.3532487452030182,2893.813720703125,127.16954827308655,-0.5035400986671448,-181.27443552017212,-2794.859259388155,1,1789159052.0334773,38.99076584,-76.93783858666667,-4.771000000000001,0,1,11.930116000000002,21.566736000000002,152.15222500000002,1,1,1789159052.1525588,0.7988054223638387,0.5957213210355677,0.08368235971322842,-0.0048236437050655995,174.66930363224662,-8.015381444625582,73.80233839306815,-0.018263648891644262,0.004963367326821475,0.44867022001385554,0.09326124303817748,0.20191892683029175,-10.174399542808533
2026-09-11T16:37:32.187,5.213373664000073,-2094.170654296875,-188475.35888671875,-753901.435546875,-1434.5068981933596,-12.3320068359375,-3.764803409576416,-2.578890335559845,-5.768813384842167,-0.015328265630971316,0.0,0.33133330941200256,2714.282470703125,119.27999138832092,-0.7934570908546448,-285.6445527076721,-3123.6507348677646,1,1789159052.0334773,38.99076584,-76.93783858666667,-4.771000000000001,0,1,11.930116000000002,21.566736000000002,152.15222500000002,1,1,1789159052.1805587,0.802508828663061,0.5903341734128889,0.08621880602401218,-0.007173639700783621,174.7632388170381,-8.44456205485345,73.06408285570075,-0.03198979079395367,0.07854854298600479,0.40054643108154103,0.3300918444442749,0.020005566329956054,-10.861061187133789
2026-09-11T16:37:32.220,5.246786623999924,-2094.29248046875,-188486.3232421875,-753945.29296875,-1434.5903491210938,-12.415457763671876,-3.6878600120544434,-2.526184108257294,-5.650912912171822,1.5774186813376299,0.0,0.31675735116004944,2594.876220703125,114.0326464176178,-0.5035400986671448,-181.27443552017212,3123.6417602022384,1,1789159052.0334773,38.99076584,-76.93783858666667,-4.771000000000001,0,1,11.930116000000002,21.566736000000002,152.15222500000002,1,1,1789159052.2125587,0.8061299444012134,0.5848583011793004,0.08930880313905531,-0.010918697872390797,174.9543419057215,-9.018930204856112,72.32099371050903,-0.018316532367979692,0.09196541254486082,0.3619615646430764,1.3173273162269592,-0.043247327213287355,-10.471541042709351
2026-09-11T16:37:32.254,5.280202015999976,-2094.40966796875,-188496.8701171875,-753987.48046875,-1434.6706225585938,-12.495731201171877,-3.5318329334259033,-2.419305559396744,-5.411832407383549,3.198482569361583,0.0,0.2937127649784088,2406.094970703125,105.73659539222717,-0.6713867783546448,-241.69924020767212,-1808.29255833379,1,1789159052.0334773,38.99076584,-76.93783858666667,-4.771000000000001,0,1,11.930116000000002,21.566736000000002,152.15222500000002,1,1,1789159052.2525587,0.8101402940149656,0.5790637216369349,0.09000215484165595,-0.01604750513900939,175.4509895966164,-9.463182648021474,71.48878845485413,-0.012334765422619525,0.11034634756223909,0.28299239730734094,0.3107727436256409,-0.3230310563278198,-8.812844234352111
2026-09-11T16:37:32.287,5.313624928000081,-2094.528076171875,-188507.52685546875,-754030.107421875,-1434.7517321777345,-12.576840820312501,-3.557903528213501,-2.4371639168262482,-5.451780415234086,-0.5343148265910456,0.0,0.29129043221473694,2386.251220703125,104.8645555973053,0.0,0.0,7231.5434456132725,1,1789159052.0334773,38.99076584,-76.93783858666667,-4.771000000000001,0,1,11.930116000000002,21.566736000000002,152.15222500000002,1,1,1789159052.2805586,0.8122583423695444,0.5757963088233428,0.09205630881769769,-0.014853686524033237,175.2365241151194,-9.593239524114892,71.06432165354964,-0.03369445387437653,0.0875970279600442,0.27638004290323526,-1.976824539604187,1.1747386228752135,-10.73926259212494
2026-09-11T16:37:32.320,5.347040064000112,-2094.647705078125,-188518.29345703125,-754073.173828125,-1434.8336779785157,-12.658786621093752,-3.584423542022705,-2.455330126285553,-5.492417068462666,-0.5436521179889351,0.0,0.29126372933387756,2386.032470703125,104.85494256019592,-0.0457763709127903,-16.479493528604507,-493.1745161411117,1,1789159052.0334773,38.99076584,-76.93783858666667,-4.771000000000001,0,1,11.930116000000002,21.566736000000002,152.15222500000002,1,1,1789159052.3125587,0.815208311635101,0.5711929183811566,0.09465270627888243,-0.014660280568558275,175.0959272073864,-9.850097567860589,70.45848121249995,-0.0064842472370093334,0.02506065913061098,0.3014043991854048,1.637220244503021,1.3412555426216126,-8.949745070610046
2026-09-11T16:37:32.354,5.380455040000015,-2094.76806640625,-188529.1259765625,-754116.50390625,-1434.9161254882813,-12.741234130859375,-3.610901117324829,-2.4734672653675083,-5.5329886931091306,-0.5427847406506426,0.0,0.29129043221473694,2386.251220703125,104.8645555973053,0.0,0.0,493.1768775968009,1,1789159052.0334773,38.99076584,-76.93783858666667,-4.771000000000001,0,1,11.930116000000002,21.566736000000002,152.15222500000002,1,1,1789159052.3525586,0.8187609122689431,0.5661678806990168,0.09451928963191114,-0.01227205332415333,174.94019696461717,-9.710701597457897,69.75729950019436,0.00790128005670353,-0.029669724619277606,0.29848219441879065,-0.9725254965400695,0.7493261388587952,-10.126739223022462
2026-09-11T16:37:32.387,5.413870719999977,-2094.8896484375,-188540.068359375,-754160.2734375,-1434.9994091796875,-12.824517822265626,-3.611398935317993,-2.4738082706928255,-5.533751500297116,-0.010204949452401151,0.0,0.29116836190223694,2385.251220703125,104.8206102848053,0.0,0.0,0.0,1,1789159052.0334773,38.99076584,-76.93783858666667,-4.771000000000001,0,1,11.930116000000002,21.566736000000002,152.15222500000002,1,1,1789159052.3805587,0.821323932996746,0.5623594290445443,0.09525742536168423,-0.010241707128897158,174.7433989055869,-9.671174306745375,69.24379090377691,0.007976852813314884,-0.0631903437001555,0.2752187008189582,0.22986787979125975,0.31999099477767945,-9.248357568035125
2026-09-11T16:37:32.421,5.447285248000071,-2095.012939453125,-188551.16455078125,-754204.658203125,-1435.0838635253908,-12.90897216796875,-3.6384119987487793,-2.492312219142914,-5.575143654131423,-0.5537695594573897,0.0,0.28854385018348694,2363.751220703125,103.8757860660553,-0.1678466945886612,-60.42481005191803,-1808.3394759234122,1,1789159052.0334773,38.99076584,-76.93783858666667,-4.771000000000001,0,1,11.930116000000002,21.566736000000002,152.15222500000002,1,1,1789159052.4125588,0.8239151496758008,0.5584417554666052,0.09595591559544438,-0.009954604377819623,174.71576888876243,-9.743471144225706,68.70879282533113,0.014999359591639269,-0.05009653458584364,0.2510666600969355,0.9146662605857849,0.06962721614837647,-10.164102560138703
