timestamp,time_s,drive_pos_turns,drive_encoder_count,drive_wheel_angle_deg,drive_distance_m,drive_distance_since_start_m,drive_velocity_turns_s,drive_velocity_mps,drive_velocity_mph,drive_acceleration_mps2,drive_iq_A,steer_pos_turns,steer_encoder_count,steer_angle_deg,steer_velocity_turns_s,steer_velocity_deg_s,steer_acceleration_deg_s2,gps_received,gps_ros_stamp_s,gps_latitude_deg,gps_longitude_deg,gps_altitude_m,gps_status,gps_service,gps_cov_x_m2,gps_cov_y_m2,gps_cov_z_m2,gps_covariance_type,imu_received,imu_ros_stamp_s,imu_qx,imu_qy,imu_qz,imu_qw,imu_roll_deg,imu_pitch_deg,imu_yaw_deg,imu_gyro_x_rad_s,imu_gyro_y_rad_s,imu_gyro_z_rad_s,imu_accel_x_mps2,imu_accel_y_mps2,imu_accel_z_mps2
2026-09-11T16:26:44.880,6.784000106563326e-06,-615.3257446289062,-55379.31701660156,-221517.26806640625,-421.4981350708008,-0.00480804443359375,-1.80811607837677,-1.2385595136880876,-2.7705787260381314,-4.940604657662455,0.0,0.3033752739429474,2485.250244140625,109.21509861946106,0.0,0.0,-4562.995318907173,0,nan,nan,nan,nan,-999,-999,nan,nan,nan,-999,1,1789158404.8697898,-0.009185085299975691,0.9935359107501571,0.09492909763054487,-0.061566993437541954,168.97968598670388,-6.926395282502879,-178.2716664042797,0.002477145807355552,0.028374515781372612,0.47816436451038247,1.29820434841156,-0.5427000199508667,-8.890316770629884
2026-09-11T16:26:44.914,0.03342329600013727,-615.3865966796875,-55384.793701171875,-221539.1748046875,-421.539818725586,-0.04649169921875,-1.782310962677002,-1.2208830094337464,-2.7310375121549413,0.528975144213883,0.0,0.3026295006275177,2479.140869140625,108.94662022590637,-0.061035171151161194,-21.97266161441803,-657.5390517836762,0,nan,nan,nan,nan,-999,-999,nan,nan,nan,-999,1,1789158404.9097898,-6.558596627267584e-05,0.9934092953435383,0.09431205520569409,-0.06513987923241761,169.10682065258706,-7.435427700071259,-179.28249157128445,-0.008438492400467384,0.060024490969962985,0.4560545335461183,0.4774857963752746,-0.4283544790649414,-9.852054951992034
2026-09-11T16:26:44.948,0.06684012799996708,-615.4472045898438,-55390.24841308594,-221560.99365234375,-421.581335144043,-0.08800811767578126,-1.7830371856689453,-1.2213804721832275,-2.732150304633201,-0.014886592166596805,0.0,0.3023357689380646,2476.734619140625,108.84087681770325,0.0,0.0,657.5327551854687,0,nan,nan,nan,nan,-999,-999,nan,nan,nan,-999,1,1789158404.9417899,0.00611151301827831,0.9932177017248087,0.09549349207652852,-0.06604725096585352,169.01446790213686,-7.606325304489556,-179.97259843119204,-0.0257629796216135,0.05496059267822664,0.4886110327481945,0.36971071109771725,-0.08914244997024537,-10.194797375144958
2026-09-11T16:26:44.981,0.10024409600009676,-615.5079345703125,-55395.714111328125,-221582.8564453125,-421.6229351806641,-0.129608154296875,-1.80978524684906,-1.2397028940916062,-2.7731363951583856,-0.5485103418943371,0.0,0.3022136986255646,2475.734619140625,108.79693150520325,0.0457763709127903,16.479493528604507,493.3393999341794,0,nan,nan,nan,nan,-999,-999,nan,nan,nan,-999,1,1789158404.96979,0.01198828013767996,0.9930261607645571,0.09568235706457383,-0.06782486065678192,169.03570341465363,-7.874162117218386,179.37356408453317,-0.029833087437264275,0.0395212355821596,0.48431612652488687,0.8112061013793945,-0.3320531744766235,-8.953275464668273
2026-09-11T16:26:45.015,0.13365078400011043,-615.5678100585938,-55401.10290527344,-221604.41162109375,-421.66394989013673,-0.17062286376953126,-1.7846957445144653,-1.222516584992409,-2.7346917166079265,0.5144571380194959,0.0,0.3026428520679474,2479.250244140625,108.95142674446106,0.0,0.0,-493.2992318363844,0,nan,nan,nan,nan,-999,-999,nan,nan,nan,-999,1,1789158405.00979,0.020502218252164025,0.9926980508331881,0.09665182870481599,-0.06920016565547148,168.99047683351634,-8.12613988847564,178.41811701827854,-0.032473072463830896,0.06135704985386065,0.47109386117762825,0.9467340066146851,0.1632807251930237,-10.227257387180329
2026-09-11T16:26:45.048,0.16706956799998807,-615.6279296875,-55406.513671875,-221626.0546875,-421.70513183593755,-0.21180480957031253,-1.785882592201233,-1.2233295756578446,-2.7365103249325413,-0.024327356298741953,0.0,0.3026428520679474,2479.250244140625,108.95142674446106,0.0,0.0,0.0,0,nan,nan,nan,nan,-999,-999,nan,nan,nan,-999,1,1789158405.04179,0.02733574879735839,0.9923318160085205,0.09744009904755378,-0.07096302468555336,168.9559568882591,-8.404743548509856,177.6581379038249,-0.04195143203263651,0.06290794942718281,0.4681585664416242,0.4362978656959534,0.5991863248825073,-9.636700914440155
2026-09-11T16:26:45.081,0.2004866879999554,-615.6875610351562,-55411.88049316406,-221647.52197265625,-421.7459793090821,-0.25265228271484375,-1.7866244316101074,-1.2238377356529238,-2.737647046467704,-0.015206576601443663,0.0,0.3027019798755646,2479.734619140625,108.97271275520325,-0.0457763709127903,-16.479493528604507,-493.14523599342556,1,1789158405.0524402,38.99080382333333,-76.93790174666667,-7.105999999999998,0,1,10.310521,12.208036000000002,64.513024,1,1,1789158405.06979,0.03244877459548047,0.992046610455683,0.09764596882815724,-0.07249734120816065,168.97704566296383,-8.63726913725341,177.08815732389007,-0.04864110452260557,0.04144423935200695,0.4710970027702818,0.6762665951538085,0.20662611890792845,-10.077411772708892
2026-09-11T16:26:45.115,0.2338942720000432,-615.747802734375,-55417.30224609375,-221669.208984375,-421.7872448730469,-0.2939178466796875,-1.813097357749939,-1.2419716900587083,-2.7782115471964635,-0.5428095131254304,0.0,0.3025799095630646,2478.734619140625,108.92876744270325,0.0,0.0,493.28600142294613,1,1789158405.0524402,38.99080382333333,-76.93790174666667,-7.105999999999998,0,1,10.310521,12.208036000000002,64.513024,1,1,1789158405.10879,0.04079732119555567,0.991770235392913,0.09788339195685564,-0.07173716157594519,169.02005814799725,-8.643172065713232,176.12111405895794,-0.035333841640774806,0.03103753915406556,0.47188973131653766,-0.5335798353004455,-0.0269682879447937,-9.670043524990081
2026-09-11T16:26:45.148,0.2673135679999632,-615.8082885742188,-55422.74597167969,-221690.98388671875,-421.8286776733399,-0.33535064697265626,-1.8141093254089355,-1.242664887905121,-2.7797621866166775,-0.020742443120713865,0.0,0.3025799095630646,2478.734619140625,108.92876744270325,0.0457763709127903,16.479493528604507,493.1131262802172,1,1789158405.0524402,38.99080382333333,-76.93790174666667,-7.105999999999998,0,1,10.310521,12.208036000000002,64.513024,1,1,1789158405.14179,0.04787295704575553,0.991503824167755,0.09856244414163408,-0.07009843970617581,168.99743744561167,-8.536689137648917,175.29514121164996,-0.03556178164108526,-0.007592880377876131,0.4727637922059364,-0.11817013444900512,0.192210343170166,-9.39751671699524
2026-09-11T16:26:45.181,0.30073299200012116,-615.8688354492188,-55428.19519042969,-221712.78076171875,-421.87015228271486,-0.3768252563476563,-1.8148088455200195,-1.2431440591812135,-2.780834062234279,-0.014338106967082178,0.0,0.3027649223804474,2480.250244140625,108.99537205696106,0.0,0.0,-493.1112376002236,1,1789158405.0524402,38.99080382333333,-76.93790174666667,-7.105999999999998,0,1,10.310521,12.208036000000002,64.513024,1,1,1789158405.1697898,0.05362329237952385,0.9910005377768377,0.10072963206348888,-0.06997155039551797,168.7946750090453,-8.597175294456527,174.65039679756316,-0.011367503951164266,-0.002757271152300642,0.4730193084084284,0.35951179492950436,0.3454882851982116,-10.212449345436095
2026-09-11T16:26:45.216,0.3341571840001052,-615.9302368164062,-55433.72131347656,-221734.88525390625,-421.9122122192383,-0.41888519287109377,-1.8413820266723633,-1.2613466882705688,-2.8215521838550632,-0.5445944389430273,0.0,0.3029613792896271,2481.859619140625,109.06609654426575,0.0457763709127903,16.479493528604507,493.0408947092088,1,1789158405.0524402,38.99080382333333,-76.93790174666667,-7.105999999999998,0,1,10.310521,12.208036000000002,64.513024,1,1,1789158405.20979,0.06212687903348118,0.9904602365951812,0.1024786220525319,-0.06802133964860803,168.6558939799367,-8.48081377530327,173.66546488527942,-0.032554753872824235,-0.025122618319056777,0.4793030173143836,-0.07786480228424071,0.17955976446151733,-9.943943264007569
2026-09-11T16:26:45.249,0.36757884799999374,-615.9922485351562,-55439.30236816406,-221757.20947265625,-421.95469024658206,-0.46136322021484377,-1.8678549528121948,-1.2794806426763536,-2.862116684583823,-0.5425808363654566,0.0,0.3024578392505646,2477.734619140625,108.88482213020325,0.0,0.0,-493.07818810755384,1,1789158405.0524402,38.99080382333333,-76.93790174666667,-7.105999999999998,0,1,10.310521,12.208036000000002,64.513024,1,1,1789158405.2417898,0.0693882088662042,0.9899690514212525,0.10319691900337054,-0.06705929918107847,168.62895622630083,-8.458589415557887,172.8248824122902,-0.021747326078624944,-0.02435641877743127,0.49561783156325095,-0.33646616704940796,0.5950675318145752,-8.936800292396546
2026-09-11T16:26:45.282,0.40099788800011993,-616.05517578125,-55444.9658203125,-221779.86328125,-421.9977954101563,-0.5044683837890626,-1.894899845123291,-1.2980063939094544,-2.9035576098547176,-0.5543471994716421,0.0,0.3026409447193146,2479.234619140625,108.95074009895325,-0.1220703199505806,-43.945315182209015,-1314.9783830428128,1,1789158405.0524402,38.99080382333333,-76.93790174666667,-7.105999999999998,0,1,10.310521,12.208036000000002,64.513024,1,1,1789158405.26979,0.07575220166464837,0.9893120222879676,0.10503139552449503,-0.06702038834285831,168.47002414333528,-8.541218579714824,172.10664178552273,-0.0544170971491556,-0.03676902588468974,0.4960428192361116,-0.3785366962432862,-0.0793357998085022,-11.913118616485598
2026-09-11T16:26:45.316,0.4344234879999931,-616.120361328125,-55450.83251953125,-221803.330078125,-422.0424475097657,-0.5491204833984376,-1.9221352338790894,-1.3166626352071764,-2.945290433086916,-0.5581423010444937,0.0,0.3031311333179474,2483.250244140625,109.12720799446106,0.0,0.0,1314.7203096541507,1,1789158405.0524402,38.99080382333333,-76.93790174666667,-7.105999999999998,0,1,10.310521,12.208036000000002,64.513024,1,1,1789158405.30879,0.08494924075517044,0.9887038920436609,0.10517806202215146,-0.0646978795796379,168.514748333511,-8.38382149538058,171.02304579857744,0.0008262388678941156,-0.06944996706243316,0.5050443548532724,-0.0616838295173645,0.13425304071426392,-10.896365127716065
2026-09-11T16:26:45.349,0.46784617599996636,-616.1839599609375,-55456.556396484375,-221826.2255859375,-422.0860125732422,-0.5926855468750001,-1.8970457315444946,-1.299476326107979,-2.9068457545364565,0.5142108587798574,0.0,0.3033905327320099,2485.375244140625,109.22059178352356,0.015258791856467724,5.493165068328381,164.3543771324668,1,1789158405.0524402,38.99080382333333,-76.93790174666667,-7.105999999999998,0,1,10.310521,12.208036000000002,64.513024,1,1,1789158405.34179,0.09252182557354746,0.9880471877869591,0.10525846267571835,-0.06421154517657926,168.56513572540925,-8.416359315542564,170.14487412731413,-0.02638134977559509,-0.09514697323832128,0.4934576375480576,-0.292630440826416,0.6009515219116212,-8.666430947437286
2026-09-11T16:26:45.382,0.5012632640000447,-616.2484741210938,-55462.36267089844,-221849.45068359375,-422.13020477294924,-0.6368777465820313,-1.9240059852600098,-1.317944099903107,-2.9481569879722294,-0.552644616882377,0.0,0.3035259544849396,2486.484619140625,109.26934361457825,0.030517585575580597,10.986330807209015,164.3819395294932,1,1789158405.0524402,38.99080382333333,-76.93790174666667,-7.105999999999998,0,1,10.310521,12.208036000000002,64.513024,1,1,1789158405.3697898,0.09874663291993051,0.9875878695794927,0.10389527652880731,-0.06422673790111064,168.77556792003114,-8.474991570323885,169.4145215897315,-0.027056966729042092,-0.10008782581779202,0.49229734266133174,0.4503213754272461,-0.09404577505111694,-10.517338098964691
2026-09-11T16:26:45.416,0.5346868799999811,-616.3121948242188,-55468.09753417969,-221872.39013671875,-422.1738534545899,-0.6805264282226563,-1.9252880811691284,-1.318822335600853,-2.9501215452774954,-0.02627590317420519,0.0,0.3029041588306427,2481.390869140625,109.04549717903137,-0.2288818508386612,-82.39746630191803,-2793.946564887079,1,1789158405.0524402,38.99080382333333,-76.93790174666667,-7.105999999999998,0,1,10.310521,12.208036000000002,64.513024,1,1,1789158405.4097898,0.10818290483406534,0.9868280198490141,0.1032668940312702,-0.06166738959670255,168.9025563140907,-8.282481486583224,168.29365876505793,-0.0175737202383309,-0.10182791908203037,0.4970249160062088,0.7618786510658264,-0.23486927137374877,-11.166146073665619
2026-09-11T16:26:45.450,0.5681189440001617,-616.3738403320312,-55473.64562988281,-221894.58251953125,-422.21608062744144,-0.7227536010742188,-1.8488166332244873,-1.266439393758774,-2.8329442415863735,1.5668473786660657,0.0,0.302860289812088,2481.031494140625,109.02970433235168,-0.061035171151161194,-21.97266161441803,1807.390793675603,1,1789158405.0524402,38.99080382333333,-76.93790174666667,-7.105999999999998,0,1,10.310521,12.208036000000002,64.513024,1,1,1789158405.4417899,0.1155418059323407,0.9859389573585183,0.10408818170822984,-0.061156470412914846,168.86343418495198,-8.3167900070472,167.4442663568288,-0.007114660162829685,-0.08663081368614015,0.47431678617436096,-1.078535384788513,-0.6057567804908752,-8.2772050025177
2026-09-11T16:26:45.484,0.6015428800001246,-616.4354248046875,-55479.188232421875,-221916.7529296875,-422.258265991211,-0.76493896484375,-1.824468970298767,-1.2497612446546555,-2.795636284571077,0.49898818332278083,0.0,0.3025799095630646,2478.734619140625,108.92876744270325,0.0,0.0,657.3930016633126,1,1789158405.0524402,38.99080382333333,-76.93790174666667,-7.105999999999998,0,1,10.310521,12.208036000000002,64.513024,1,1,1789158405.4817898,0.12488726422936361,0.9849102321542276,0.10245539527021194,-0.06211197800131253,169.1418824924544,-8.507576567522142,166.35687862359504,-0.016480969593657253,-0.05578124649251437,0.4662001324879614,-0.985568341255188,-1.4988484107208253,-9.632484054870606
2026-09-11T16:26:45.517,0.6349775040000623,-616.495361328125,-55484.58251953125,-221938.330078125,-422.29932250976566,-0.8059954833984375,-1.7998194694519043,-1.2328763365745545,-2.7578658208986964,0.5050126503630632,0.0,0.3036480247974396,2487.484619140625,109.31328892707825,0.030517593026161194,10.98633348941803,328.5915070987042,1,1789158405.0524402,38.99080382333333,-76.93790174666667,-7.105999999999998,0,1,10.310521,12.208036000000002,64.513024,1,1,1789158405.50979,0.1307994571956115,0.9840362008579937,0.10295032581004102,-0.06297211933789536,169.14667605496302,-8.677080124017987,165.6829611118465,-0.011041825512742126,-0.04564227980182891,0.46376627084605526,0.014611908740997314,-0.5231847861289978,-9.273658725452423
2026-09-11T16:26:45.549,0.6683888000000024,-616.5529174804688,-55489.76257324219,-221959.05029296875,-422.33874847412113,-0.8454214477539063,-1.7747985124588013,-1.215736981034279,-2.7195261744682306,0.512980865522431,0.0,0.3030090630054474,2482.250244140625,109.08326268196106,0.0,0.0,-328.82093198173743,1,1789158405.0524402,38.99080382333333,-76.93790174666667,-7.105999999999998,0,1,10.310521,12.208036000000002,64.513024,1,1,1789158405.54179,0.13766254783727055,0.9830862207449208,0.10335340702342292,-0.06251862731275315,169.15421992662255,-8.706803059404818,164.88541973117867,0.008598539092875264,-0.019678587316236066,0.4545804284598839,-0.28645225122451784,0.6770511271667481,-7.892588183174133
2026-09-11T16:26:45.584,0.7018073280000863,-616.611328125,-55495.01953125,-221980.078125,-422.37875976562503,-0.8854327392578125,-1.7756472826004028,-1.216318388581276,-2.7208267461105824,-0.01739776051762433,0.0,0.3026733696460724,2479.500244140625,108.96241307258606,-0.030517585575580597,-10.986330807209015,-328.7496926011061,1,1789158405.0524402,38.99080382333333,-76.93790174666667,-7.105999999999998,0,1,10.310521,12.208036000000002,64.513024,1,1,1789158405.58179,0.14576509721406497,0.9819333353848289,0.10358936588820454,-0.061876526802001085,169.18910414732167,-8.726423604489506,163.93986108040625,-0.011429114073759667,-0.027364319210318296,0.4429835882450076,-0.038736268138885505,-0.027850886459350587,-9.731433155002595
2026-09-11T16:26:45.618,0.7352318400000968,-616.6673583984375,-55500.062255859375,-222000.2490234375,-422.4171405029297,-0.9238134765625001,-1.725170373916626,-1.181741706132889,-2.643480910282945,1.0344708233399549,0.0,0.30327799916267395,2484.453369140625,109.18007969856262,0.030517593026161194,10.98633348941803,657.3817531463178,1,1789158405.0524402,38.99080382333333,-76.93790174666667,-7.105999999999998,0,1,10.310521,12.208036000000002,64.513024,1,1,1789158405.6097898,0.15130685526440682,0.9809554750393115,0.10397371842737782,-0.06341969265755504,169.21742130251826,-8.968281368233532,163.31119485557434,0.01609245930216332,-0.024063727061871817,0.4271246539967611,0.7078440086746215,-0.19446587270736695,-10.506844983291625
2026-09-11T16:26:45.650,0.7686390080000365,-616.7213134765625,-55504.918212890625,-222019.6728515625,-422.45409973144535,-0.9607727050781251,-1.7006222009658813,-1.164926207661629,-2.605865711483598,0.5033500137243128,0.0,0.3028869926929474,2481.250244140625,109.03931736946106,0.0,0.0,-328.86156316626,1,1789158405.0524402,38.99080382333333,-76.93790174666667,-7.105999999999998,0,1,10.310521,12.208036000000002,64.513024,1,1,1789158405.64179,0.15747468975867046,0.9800467056638592,0.10337065075807626,-0.06344040798008281,169.34317117314853,-9.02733434775813,162.58707442798453,0.01791946996315098,-0.027869592028770655,0.4291918219628232,-0.1754409713935852,-0.3176373987388611,-8.372721775093078
2026-09-11T16:26:45.684,0.8020442560000447,-616.7725830078125,-55509.532470703125,-222038.1298828125,-422.48921936035157,-0.995892333984375,-1.5452032089233398,-1.0584641981124878,-2.3677169785980823,3.186984558507541,0.0,0.3027668297290802,2480.265869140625,108.99605870246887,-0.0457763709127903,-16.479493528604507,-493.3204964860747,1,1789158405.0524402,38.99080382333333,-76.93790174666667,-7.105999999999998,0,1,10.310521,12.208036000000002,64.513024,1,1,1789158405.6817899,0.16494274364363465,0.9785931208812707,0.10452304871477937,-0.06499482572122978,169.30551804762703,-9.304865048840247,161.73816635630075,-0.007737044574090864,-0.00039618974020271284,0.40138750524807715,1.232303659324646,0.49572616567611694,-12.07983166923523
2026-09-11T16:26:45.718,0.8356003840001449,-616.8239135742188,-55514.15222167969,-222056.60888671875,-422.52438079833985,-1.0310537719726562,-1.4933606386184692,-1.0229520374536516,-2.288278537611065,1.0582913695742895,0.0,0.3028240501880646,2480.734619140625,109.01665806770325,0.0,0.0,491.1023562836359,1,1789158405.0524402,38.99080382333333,-76.93790174666667,-7.105999999999998,0,1,10.310521,12.208036000000002,64.513024,1,1,1789158405.70979,0.17017354273845137,0.9777909621610454,0.10380675474994824,-0.06472987977978632,169.43260926017228,-9.318061911570014,161.11802554441857,0.0014917329116795536,-0.014292152178731166,0.4000401110655375,1.1876834010887145,-0.8552379606056213,-8.183747626476288
2026-09-11T16:26:45.751,0.8690227520000917,-616.8743286132812,-55518.68957519531,-222074.75830078125,-422.5589151000977,-1.0655880737304688,-1.4938479661941528,-1.0232858568429948,-2.2890252703180782,-0.009987903590305545,0.0,0.3030090630054474,2482.250244140625,109.08326268196106,0.0,0.0,0.0,1,1789158405.0524402,38.99080382333333,-76.93790174666667,-7.105999999999998,0,1,10.310521,12.208036000000002,64.513024,1,1,1789158405.7417898,0.17595602923330023,0.9765949991150082,0.10403613913776669,-0.06691909468391105,169.5008191899891,-9.631876421657516,160.45990139656433,0.01695360475509732,0.03732404058682394,0.3962251703865283,0.1354298387336731,-0.08110099683761596,-11.672463421516419
2026-09-11T16:26:45.785,0.9024309119999998,-616.9227905273438,-55523.05114746094,-222092.20458984375,-422.5921115112305,-1.0987844848632813,-1.4680851697921753,-1.0056383413076402,-2.2495489023524495,0.5282396736427012,0.0,0.3030090630054474,2482.250244140625,109.08326268196106,0.0,0.0,0.0,1,1789158405.0524402,38.99080382333333,-76.93790174666667,-7.105999999999998,0,1,10.310521,12.208036000000002,64.513024,1,1,1789158405.7817898,0.1828223250564204,0.9751118187133598,0.10489293999581581,-0.06877797325832348,169.5051929673793,-9.932390260790033,159.67643065544075,0.011180753721200875,0.019306483119710872,0.3797955134728797,-0.15131661199569701,-0.16994924730300906,-9.612772688045503
2026-09-11T16:26:45.817,0.9358411519999663,-616.9692993164062,-55527.23693847656,-222108.94775390625,-422.62397003173834,-1.1306430053710939,-1.4162002801895142,-0.9700971919298172,-2.170045615447871,1.0637801278248393,0.0,0.3027019798755646,2479.734619140625,108.97271275520325,0.0457763709127903,16.479493528604507,493.24678687195984,1,1789158405.0524402,38.99080382333333,-76.93790174666667,-7.105999999999998,0,1,10.310521,12.208036000000002,64.513024,1,1,1789158405.80879,0.18737591976199858,0.9740636803552893,0.10594540783760358,-0.0697551565418475,169.44966911461051,-10.113294912641152,159.15876703826387,-0.00032532937257174306,-0.005482602779289788,0.37271855242189306,-0.4063875827026367,-0.2805682611274719,-9.620814141178132
2026-09-11T16:26:45.851,0.969248959999959,-617.01513671875,-55531.3623046875,-222125.44921875,-422.6553686523438,-1.1620416259765627,-1.364134430885315,-0.9344320851564408,-2.09026504374651,1.0675680000730445,0.0,0.3030281364917755,2482.406494140625,109.09012913703918,0.0,0.0,-493.28269393215294,1,1789158405.0524402,38.99080382333333,-76.93790174666667,-7.105999999999998,0,1,10.310521,12.208036000000002,64.513024,1,1,1789158405.84179,0.1929460534824699,0.9727081782567591,0.10712547279346382,-0.07165719417290639,169.41007942379733,-10.412979384758616,158.52863380422218,0.0031579987485585398,-0.03043417883165112,0.3623684008917163,1.1015810126686096,0.12807485111236572,-10.461930525550843
2026-09-11T16:26:45.885,1.0026660800001537,-617.0607299804688,-55535.46569824219,-222141.86279296875,-422.68660003662114,-1.1932730102539064,-1.3387748003005981,-0.9170607382059098,-2.0514064473109985,0.5198337543878643,0.0,0.3025532066822052,2478.515869140625,108.91915440559387,-0.045776382088661194,-16.47949755191803,-493.14535638684646,1,1789158405.0524402,38.99080382333333,-76.93790174666667,-7.105999999999998,0,1,10.310521,12.208036000000002,64.513024,1,1,1789158405.88179,0.199456840619061,0.9714755668647267,0.10677713877659997,-0.07106922224003118,169.50734891071798,-10.409305565672799,157.75372058243724,-0.0032464869416346524,-0.04772690106041094,0.3453153123692553,-0.24183199298858643,-0.30263322399139403,-10.678265228118898
2026-09-11T16:26:45.918,1.036087008000095,-617.1046752929688,-55539.42077636719,-222157.68310546875,-422.7167025756836,-1.2233755493164062,-1.312514066696167,-0.8990721356868745,-2.0111670894928273,0.5382436573594518,0.0,0.30291178822517395,2481.453369140625,109.04824376106262,0.0915527418255806,32.958987057209015,1479.267260598324,1,1789158405.0524402,38.99080382333333,-76.93790174666667,-7.105999999999998,0,1,10.310521,12.208036000000002,64.513024,1,1,1789158405.9097898,0.20382362199728432,0.9704190638760196,0.10758140956256237,-0.07189584061981641,169.47953554541382,-10.567481649562147,157.25207558574715,-0.004846604799863053,-0.04615034514708446,0.3423198037740574,0.804929845275879,-0.3606885929489136,-9.059677618923187
2026-09-11T16:26:45.951,1.0694948160000877,-617.1468505859375,-55543.216552734375,-222172.8662109375,-422.74559265136725,-1.2522656250000002,-1.2870001792907715,-0.8815951228141785,-1.9720721251211917,0.5231415623766703,0.0,0.3029461205005646,2481.734619140625,109.06060338020325,0.0,0.0,-986.5653878643059,1,1789158405.0524402,38.99080382333333,-76.93790174666667,-7.105999999999998,0,1,10.310521,12.208036000000002,64.513024,1,1,1789158405.9417899,0.20865056952931668,0.9691835161695375,0.10868279230129263,-0.07304999984899167,169.4311412106669,-10.77491084283974,156.70056473126917,-0.012093037321218312,-0.03605361542429726,0.3306323809710026,1.0924608280181884,-0.3261691843795776,-10.298257534351348
2026-09-11T16:26:45.985,1.1029001920001065,-617.1859741210938,-55546.73767089844,-222186.95068359375,-422.7723922729493,-1.2790652465820314,-1.1827313899993896,-0.8101710021495819,-1.812300917478483,2.138102581589154,0.0,0.3028469383716583,2480.922119140625,109.024897813797,0.1220703199505806,43.945315182209015,1315.5162564907,1,1789158405.0524402,38.99080382333333,-76.93790174666667,-7.105999999999998,0,1,10.310521,12.208036000000002,64.513024,1,1,1789158405.9815578,0.2144447495733908,0.9678419965654192,0.10962141299766497,-0.07265304451338694,169.3793109420737,-10.815603027851052,156.021889169963,0.005421690788395186,-0.031011359215285646,0.32160309461873515,0.38020382677078246,-0.017848103294372558,-10.251381746578216
2026-09-11T16:26:46.018,1.1363252160001593,-617.2274169921875,-55550.467529296875,-222201.8701171875,-422.80078063964845,-1.3074536132812502,-1.2350406646728516,-0.8460028553009034,-1.8924544902042377,-1.0720068039820927,0.0,0.30295947194099426,2481.843994140625,109.06540989875793,0.015258789993822575,5.493164397776127,-1150.4000949818933,1,1789158405.0524402,38.99080382333333,-76.93790174666667,-7.105999999999998,0,1,10.310521,12.208036000000002,64.513024,1,1,1789158406.0095577,0.21822768439026666,0.9669083619706501,0.11099019894113289,-0.07173613493842652,169.2442251108025,-10.787488181338754,155.58179518610947,-0.02394923346294099,-0.025181261381923788,0.311742682476668,0.25428643869400025,-0.044620258235931395,-10.060936600437165
2026-09-11T16:26:46.052,1.1697437120001268,-617.2665405273438,-55553.98864746094,-222215.95458984375,-422.8275802612305,-1.3342532348632814,-1.1834938526153564,-0.8106932890415193,-1.8134692399819219,1.0565875334251558,0.0,0.3028106987476349,2480.625244140625,109.01185154914856,-0.1678466945886612,-60.42481005191803,-1972.4997333739461,1,1789158406.0432477,38.990799196666664,-76.937900675,-7.100000000000001,0,1,8.946081000000001,11.182336,74.787904,1,1,1789158406.0415578,0.22259725269499325,0.9660445924992555,0.11108944003682109,-0.06976707466917594,169.23550738830403,-10.61756157009862,155.0518058235075,-0.01637171198248241,-0.0013824753005047086,0.3170634932342979,-0.6067374455070496,0.09316317653656006,-9.48038291086197
2026-09-11T16:26:46.085,1.2031506560001617,-617.3062133789062,-55557.55920410156,-222230.23681640625,-422.8547561645508,-1.361429138183594,-1.158605933189392,-0.7936450642347337,-1.7753334471965212,0.5103197947937949,0.0,0.3029308617115021,2481.609619140625,109.05511021614075,0.015258789993822575,5.493164397776127,1973.1818166194844,1,1789158406.0432477,38.990799196666664,-76.937900675,-7.100000000000001,0,1,8.946081000000001,11.182336,74.787904,1,1,1789158406.0815578,0.22811819306542117,0.9645245587056969,0.11228548817914506,-0.07103826286248073,169.19029711247964,-10.851550246811946,154.4168981143679,-0.008440237729719378,0.007274183256461966,0.31442909326133767,1.1043268747138977,0.03599040609359741,-9.776249546241761
2026-09-11T16:26:46.118,1.236558400000149,-617.3445434570312,-55561.00891113281,-222244.03564453125,-422.88101226806646,-1.387685241699219,-1.185291051864624,-0.8119243705272675,-1.8162230908358683,-0.5471577575708417,0.0,0.3029957115650177,2482.140869140625,109.07845616340637,-0.1220703199505806,-43.945315182209015,-1479.8508866687869,1,1789158406.0432477,38.990799196666664,-76.937900675,-7.100000000000001,0,1,8.946081000000001,11.182336,74.787904,1,1,1789158406.1095576,0.23161912229161194,0.9635704784214942,0.1131673129213465,-0.0712578037101761,169.13447320862338,-10.938034918547235,154.01120946460213,-0.01913544085301543,0.019717682691480738,0.2931509116856487,-0.020986231346130372,0.036676871604919434,-9.609242293987274
2026-09-11T16:26:46.152,1.2699637440000515,-617.3803100585938,-55564.22790527344,-222256.91162109375,-422.9055123901368,-1.4121853637695314,-1.0821974277496338,-0.7413052380084992,-1.6582525903912366,2.1140070438722156,0.0,0.30268290638923645,2479.578369140625,108.96584630012512,-0.030517585575580597,-10.986330807209015,986.6380772817735,1,1789158406.0432477,38.990799196666664,-76.937900675,-7.100000000000001,0,1,8.946081000000001,11.182336,74.787904,1,1,1789158406.1415577,0.23569840049330945,0.962700660591235,0.11245265173428855,-0.07076795334063116,169.249765796959,-10.909982898305634,153.51533413423078,-8.20304748437335e-06,0.021411873796391635,0.29105424765522797,0.1892683481216431,0.1754409713935852,-10.322578026752472
2026-09-11T16:26:46.186,1.3033791360001032,-617.4163208007812,-55567.46887207031,-222269.87548828125,-422.9301797485352,-1.4368527221679688,-1.1090407371520996,-0.7596929049491883,-1.699384629897073,-0.5502753623438141,0.0,0.3030090630054474,2482.250244140625,109.08326268196106,0.0,0.0,328.7805454202665,1,1789158406.0432477,38.990799196666664,-76.937900675,-7.100000000000001,0,1,8.946081000000001,11.182336,74.787904,1,1,1789158406.1815577,0.24048395130916378,0.9613278475201061,0.11318119594077876,-0.07215438746539524,169.25633522156917,-11.137522576800876,152.96102466319886,-0.007141538233310397,0.03442103444198177,0.2698638561409144,0.4229608214759827,0.09424190805435181,-9.84950522294998
2026-09-11T16:26:46.219,1.3368009600001187,-617.4495849609375,-55570.462646484375,-222281.8505859375,-422.9529656982422,-1.459638671875,-1.0054981708526611,-0.688766247034073,-1.540726214732624,2.1221659809794486,0.0,0.3031311333179474,2483.250244140625,109.12720799446106,0.0,0.0,0.0,1,1789158406.0432477,38.990799196666664,-76.937900675,-7.100000000000001,0,1,8.946081000000001,11.182336,74.787904,1,1,1789158406.2095578,0.24378618398258653,0.9606078523267041,0.11264126941159294,-0.07150381089725406,169.33901504503442,-11.086749034064235,152.55750010310518,-0.010751926323985868,0.0227460034766161,0.27192264652656695,0.41962656042099,-0.4402205257606506,-9.108710869731903
2026-09-11T16:26:46.252,1.3702207359999647,-617.4859619140625,-55573.736572265625,-222294.9462890625,-422.97788391113284,-1.4845568847656252,-1.0842803716659546,-0.742732054591179,-1.6614442881871379,-1.6147866328414242,0.0,0.3028240501880646,2480.734619140625,109.01665806770325,0.0,0.0,0.0,1,1789158406.0432477,38.990799196666664,-76.937900675,-7.100000000000001,0,1,8.946081000000001,11.182336,74.787904,1,1,1789158406.2415578,0.24756420379051494,0.959504169724373,0.11321603349611953,-0.07242819231843052,169.34157954261585,-11.24745632971127,152.117516665141,0.010443875711008868,0.0168361440964381,0.2645308280785206,0.11875853345870971,0.11718946943283082,-10.212155145931243
2026-09-11T16:26:46.285,1.403625952000084,-617.517578125,-55576.58203125,-222306.328125,-422.999541015625,-1.5062139892578126,-0.9809271693229675,-0.6719351109862328,-1.5030760356707054,2.119337998134585,0.0,0.3031311333179474,2483.250244140625,109.12720799446106,0.0,0.0,0.0,1,1789158406.0432477,38.990799196666664,-76.937900675,-7.100000000000001,0,1,8.946081000000001,11.182336,74.787904,1,1,1789158406.2815578,0.25221222526183706,0.9582247605910119,0.11370153003303725,-0.07256902704953727,169.34470651381906,-11.328196888158809,151.56734979758343,-0.0007361798784912083,0.0030558969873168717,0.2534888280328532,0.869947935848236,0.49582423217773436,-9.477146716308594
2026-09-11T16:26:46.319,1.4370339199999762,-617.5513305664062,-55579.61975097656,-222318.47900390625,-423.0226614379883,-1.5293344116210938,-1.007230281829834,-0.6899527430534363,-1.543380330738716,-0.5393213998307728,0.0,0.302433043718338,2477.531494140625,108.87589573860168,0.0,0.0,0.0,1,1789158406.0432477,38.990799196666664,-76.937900675,-7.100000000000001,0,1,8.946081000000001,11.182336,74.787904,1,1,1789158406.3095577,0.25547527090665595,0.9575139409937643,0.11256931472669944,-0.07230206179440717,169.50422355083003,-11.301850572980277,151.1631472475135,-0.00826727560084674,-0.01269290698512876,0.25620072062460203,0.7094130727005005,-0.3341125710105896,-9.226979070682527
2026-09-11T16:26:46.353,1.4704505920001338,-617.580078125,-55582.20703125,-222328.828125,-423.04235351562505,-1.5490264892578127,-0.8774221539497375,-0.6010341754555703,-1.344475159841557,2.6609043413253914,0.0,0.3025207817554474,2478.250244140625,108.90748143196106,0.0610351599752903,21.972657591104507,657.5357830666338,1,1789158406.0432477,38.990799196666664,-76.937900675,-7.100000000000001,0,1,8.946081000000001,11.182336,74.787904,1,1,1789158406.3415577,0.25912292270531784,0.956599315251079,0.11140721376086055,-0.07322222143490557,169.70425325758634,-11.409798489699043,150.71824995818835,0.0017964673990777634,-0.0127735411965709,0.23639280441079316,0.6117388370895386,-0.358727262916565,-10.641588356513976
2026-09-11T16:26:46.386,1.5038727040000595,-617.6113891601562,-55585.02502441406,-222340.10009765625,-423.06380157470704,-1.570474548339844,-0.9299435019493103,-0.6370112988352776,-1.424953692813343,-1.0764467362142598,0.0,0.3033905327320099,2485.375244140625,109.22059178352356,0.01525880303233862,5.493169091641903,-493.0714282657924,1,1789158406.0432477,38.990799196666664,-76.937900675,-7.100000000000001,0,1,8.946081000000001,11.182336,74.787904,1,1,1789158406.3815577,0.26310745818462306,0.955235562964624,0.11285529262960983,-0.07458664505640394,169.62641073552487,-11.647021440432741,150.2618010836963,0.008408123671482682,-0.004978377158388625,0.22245600126776804,1.1894485981178282,0.3015544924736023,-9.791253720989229
2026-09-11T16:26:46.419,1.5372797120000996,-617.6368408203125,-55587.315673828125,-222349.2626953125,-423.0812359619141,-1.5879089355468752,-0.8008166551589966,-0.5485594087839127,-1.2270924498566396,2.6477046388368146,0.0,0.3029766380786896,2481.984619140625,109.07158970832825,-0.0457763709127903,-16.479493528604507,-657.726145969732,1,1789158406.0432477,38.990799196666664,-76.937900675,-7.100000000000001,0,1,8.946081000000001,11.182336,74.787904,1,1,1789158406.4095578,0.2658459907128271,0.95470066947767,0.11173567394248325,-0.07340081804328459,169.75253600007719,-11.511264254751904,149.9148261004316,-0.0027872908154349444,-0.0025254914276357948,0.21734794614595626,0.4892537765693664,-0.3269537163925171,-9.839404373283385
2026-09-11T16:26:46.452,1.5706845439999597,-617.6642456054688,-55589.78210449219,-222359.12841796875,-423.1000082397461,-1.6066812133789063,-0.8271197080612183,-0.5665770000219346,-1.267396653592372,-0.5393708083338745,0.0,0.30207255482673645,2474.578369140625,108.74611973762512,0.0,0.0,493.3266399505772,1,1789158406.0432477,38.990799196666664,-76.937900675,-7.100000000000001,0,1,8.946081000000001,11.182336,74.787904,1,1,1789158406.4415576,0.26888584330880766,0.9537114442343928,0.11217922118148349,-0.0745030653032214,169.77091295428684,-11.679426116524434,149.55881654805938,-0.011687946401830426,0.00437990375787977,0.1967125693337769,0.21878636510848998,-0.3031235564994812,-10.055150676841736
2026-09-11T16:26:46.486,1.6040915519999999,-617.6881103515625,-55591.929931640625,-222367.7197265625,-423.1163555908203,-1.623028564453125,-0.7237943410873413,-0.4957991236448288,-1.1090710532498842,2.118653558469549,0.0,0.3014278709888458,2469.297119140625,108.5140335559845,-0.0457763709127903,-16.479493528604507,-493.2945066072574,1,1789158406.0432477,38.990799196666664,-76.937900675,-7.100000000000001,0,1,8.946081000000001,11.182336,74.787904,1,1,1789158406.4815578,0.27222379645085976,0.9527562921282284,0.1118647447149952,-0.07507284026730002,169.86397585944886,-11.768434002949727,149.15568868758768,-0.009865473596897949,-0.0073820446042352165,0.174639739349655,0.6508673712348938,-0.278999197101593,-10.090356550922392
2026-09-11T16:26:46.519,1.637497919999987,-617.709228515625,-55593.83056640625,-222375.322265625,-423.1308215332032,-1.6374945068359377,-0.6456488966941833,-0.44226949423551565,-0.9893286825239691,1.602378007969429,0.0,0.29902079701423645,2449.578369140625,107.64748692512512,-0.0610351637005806,-21.972658932209015,-164.4346791487962,1,1789158406.0432477,38.990799196666664,-76.937900675,-7.100000000000001,0,1,8.946081000000001,11.182336,74.787904,1,1,1789158406.5095577,0.27433433089623954,0.951967202958241,0.1126234226574834,-0.07625669841062731,169.8393910605425,-11.945471644769317,148.91434966675953,-0.0037912042011820826,-0.008311432430922198,0.15375635125076725,0.6292927408790588,-0.28870778076171877,-9.385454537296294
2026-09-11T16:26:46.553,1.6709200000000237,-617.7308349609375,-55595.775146484375,-222383.1005859375,-423.1456219482422,-1.652294921875,-0.6456488966941833,-0.44226949423551565,-0.9893286825239691,0.0,0.0,0.2937527000904083,2406.422119140625,105.750972032547,-0.3509521782398224,-126.34278416633606,-3122.7896418778414,1,1789158406.0432477,38.990799196666664,-76.937900675,-7.100000000000001,0,1,8.946081000000001,11.182336,74.787904,1,1,1789158406.5495577,0.2769659674912029,0.951286941147719,0.11174314175299906,-0.0765276337321844,169.97979809647848,-11.975743745827684,148.5879767019967,-0.004237659423842232,-0.012777380920925287,0.12246434309176092,0.3879510803985595,-0.5103380744171143,-9.653568352718354
2026-09-11T16:26:46.586,1.7043390080000336,-617.744873046875,-55597.03857421875,-222388.154296875,-423.1552380371094,-1.6619110107421877,-0.43946126103401184,-0.30103096380829814,-0.6733870879748967,4.2262933246605,0.0,0.2768554985523224,2268.000244140625,99.66797947883606,-0.7019043564796448,-252.68556833267212,-3780.5665615897037,1,1789158406.0432477,38.990799196666664,-76.937900675,-7.100000000000001,0,1,8.946081000000001,11.182336,74.787904,1,1,1789158406.5815578,0.2783051719526125,0.9507823806937898,0.11317321142296548,-0.0758348207810145,169.8146430001255,-11.958210115879835,148.4388091273612,-0.008482474697617641,-0.019971104498870317,0.09492950521352277,0.5275977787017823,-0.123367659034729,-9.613851419563293
2026-09-11T16:26:46.619,1.7377483840000423,-617.759521484375,-55598.35693359375,-222393.427734375,-423.1652722167969,-1.6719451904296876,-0.43946126103401184,-0.30103096380829814,-0.6733870879748967,0.0,0.0,0.2511158287525177,2057.140869140625,90.40169835090637,-0.6713867783546448,-241.69924020767212,328.8396683912066,1,1789158406.0432477,38.990799196666664,-76.937900675,-7.100000000000001,0,1,8.946081000000001,11.182336,74.787904,1,1,1789158406.6095576,0.27931074022538027,0.9504534613431361,0.11307405970651335,-0.07640670937221178,169.85567810740073,-12.029052270736072,148.31851212855364,-0.0013615313494807764,-0.016487950910665232,0.055806902832518684,1.504928533821106,-0.11787593494415283,-9.866470727729798
2026-09-11T16:26:46.653,1.771157568000035,-617.774169921875,-55599.67529296875,-222398.701171875,-423.1753063964844,-1.6819793701171877,-0.43946126103401184,-0.30103096380829814,-0.6733870879748967,0.0,0.0,0.2169647514820099,1777.375244140625,78.10731053352356,-0.7476807832717896,-269.16508197784424,-822.1045377875145,1,1789158406.0432477,38.990799196666664,-76.937900675,-7.100000000000001,0,1,8.946081000000001,11.182336,74.787904,1,1,1789158406.6415577,0.27974610684666673,0.9502551737772414,0.11342905201930022,-0.07675330984212256,169.83161806351384,-12.083274888796135,148.27115639422834,-0.0013007938915113738,-0.021253921499086146,0.02037322835852981,0.6280178763580322,-0.35127420879364013,-9.918151774082185
2026-09-11T16:26:46.687,1.8045640640000329,-617.7821655273438,-55600.39489746094,-222401.57958984375,-423.1807833862305,-1.6874563598632815,-0.2290368378162384,-0.15689023390412332,-0.3509534580890371,4.314751535275785,0.0,0.17969325184822083,1472.047119140625,64.6895706653595,-1.1444092988967896,-411.98734760284424,-4275.284232893191,1,1789158406.0432477,38.990799196666664,-76.937900675,-7.100000000000001,0,1,8.946081000000001,11.182336,74.787904,1,1,1789158406.6815577,0.27986641498910936,0.9503794941834512,0.11296978903700103,-0.07544159039738421,169.8453312706271,-11.924886389889213,148.24617866265297,-0.00435843620808024,-0.03531411942022727,-0.004544139240492436,0.8349381947708129,-0.1866205525779724,-9.6617078723526
2026-09-11T16:26:46.720,1.8379846400000588,-617.7898559570312,-55601.08703613281,-222404.34814453125,-423.18605133056644,-1.6927243041992188,-0.2290368378162384,-0.15689023390412332,-0.3509534580890371,0.0,0.0,0.1424103081226349,1166.625244140625,51.26771092414856,-0.6866456270217896,-247.19242572784424,4930.942000367447,1,1789158406.0432477,38.990799196666664,-76.937900675,-7.100000000000001,0,1,8.946081000000001,11.182336,74.787904,1,1,1789158406.7095578,0.27957521669291563,0.9504675853447627,0.11332436818747607,-0.07487760008784233,169.7847267014117,-11.870645316118408,148.28284507674115,-0.001539554933184198,-0.012699364703361141,-0.028798107190831635,0.346468950214386,-0.24791211608886718,-9.763991233539581
2026-09-11T16:26:46.753,1.871404160000111,-617.7974853515625,-55601.773681640625,-222407.0947265625,-423.19127746582035,-1.697950439453125,-0.2290368378162384,-0.15689023390412332,-0.3509534580890371,0.0,0.0,0.10396197438240051,851.656494140625,37.426310777664185,-0.8850098848342896,-318.60355854034424,-2136.8090508896726,1,1789158406.0432477,38.990799196666664,-76.937900675,-7.100000000000001,0,1,8.946081000000001,11.182336,74.787904,1,1,1789158406.7495577,0.27849511518459263,0.9508389255735937,0.11434949006880502,-0.07259478323804441,169.58727644459944,-11.638929215188226,148.41416667432355,-0.001965938869446413,-0.02918365042259718,-0.044101852204018716,0.018730701808929443,-0.09198637851715087,-9.684851566734315
2026-09-11T16:26:46.787,1.9048155840000618,-617.8027954101562,-55602.25158691406,-222409.00634765625,-423.19491485595705,-1.701587829589844,-0.1515427678823471,-0.10380679599940777,-0.23220918933296272,1.5887810679602803,0.0,0.0761127769947052,623.515869140625,27.400599718093872,-0.33569347858428955,-120.84965229034424,5918.751210672473,1,1789158406.0432477,38.990799196666664,-76.937900675,-7.100000000000001,0,1,8.946081000000001,11.182336,74.787904,1,1,1789158406.7815578,0.2775549828323114,0.9512654861780935,0.11508527136994647,-0.06937280897453088,169.39669941136762,-11.295486702423178,148.5197634183528,0.000618370153981591,-0.030672939873323948,-0.03837158720387093,0.11728753593444824,0.1744603063774109,-9.575899683437347
2026-09-11T16:26:46.820,1.9382258880000336,-617.807861328125,-55602.70751953125,-222410.830078125,-423.1983850097657,-1.7050579833984376,-0.1515427678823471,-0.10380679599940777,-0.23220918933296272,0.0,0.0,0.0643177330493927,526.890869140625,23.154383897781372,-0.3509522080421448,-126.34279489517212,-164.4146250459893,1,1789158406.0432477,38.990799196666664,-76.937900675,-7.100000000000001,0,1,8.946081000000001,11.182336,74.787904,1,1,1789158406.8095577,0.27688685628061493,0.9515110994449922,0.11621228659073683,-0.06674579310617679,169.18368582369072,-11.032982194940681,148.59804634120914,0.000580496509213314,-0.037006390662960964,-0.014864271107534906,-0.08472945739746093,0.5267151801872253,-9.926977759227753
2026-09-11T16:26:46.854,1.9716462720000436,-617.8129272460938,-55603.16345214844,-222412.65380859375,-423.20185516357424,-1.7085281372070313,-0.1515427678823471,-0.10380679599940777,-0.23220918933296272,0.0,0.0,0.052305251359939575,428.484619140625,18.829890489578247,-0.3356934189796448,-120.84963083267212,164.36567762053105,1,1789158406.0432477,38.990799196666664,-76.937900675,-7.100000000000001,0,1,8.946081000000001,11.182336,74.787904,1,1,1789158406.8495576,0.2763481741905535,0.9517306134301422,0.11761867065528654,-0.06329592715740841,168.91674762729318,-10.689629085249933,148.6573482776529,-0.0020423842906837643,-0.02972470249071543,0.006207961616418631,0.26576021938323974,0.22261095867156983,-9.601200840854645
2026-09-11T16:26:46.887,2.005062528000053,-617.8255615234375,-55604.300537109375,-222417.2021484375,-423.2105096435547,-1.7171826171875002,-0.43807607889175415,-0.3000821140408516,-0.6712645714943881,-5.87364778511955,0.0,0.049284011125564575,403.734619140625,17.742244005203247,0.0,0.0,3616.492249539795,1,1789158406.0432477,38.990799196666664,-76.937900675,-7.100000000000001,0,1,8.946081000000001,11.182336,74.787904,1,1,1789158406.8815577,0.27602582360936617,0.9517966238053153,0.11862927330801167,-0.061806368021322236,168.75528975584155,-10.55292355117733,148.69694715065984,-0.003520503634197762,-0.0008096582400001695,0.007131066257798432,0.03206774602890015,0.05648630493164063,-9.704759066562653
2026-09-11T16:26:46.920,2.038485600000058,-617.840087890625,-55605.60791015625,-222422.431640625,-423.22046020507815,-1.7271331787109376,-0.43807607889175415,-0.3000821140408516,-0.6712645714943881,0.0,0.0,0.049284011125564575,403.734619140625,17.742244005203247,0.0,0.0,0.0,1,1789158406.0432477,38.990799196666664,-76.937900675,-7.100000000000001,0,1,8.946081000000001,11.182336,74.787904,1,1,1789158406.9095578,0.27594779729824104,0.9519101751383867,0.11800812338019667,-0.061594759927602376,168.8180464846648,-10.509206769705647,148.6991017139607,-0.0028981192229365843,0.020311618235934407,0.015822456866879796,0.2494811801147461,-0.18024622997283937,-9.786056196403504
2026-09-11T16:26:46.954,2.0718948799999453,-617.84375,-55605.9375,-222423.75,-423.22296875,-1.7296417236328125,-0.12294764071702957,-0.08421913389116527,-0.18839283708653626,6.461168278706275,0.0,0.049284011125564575,403.734619140625,17.742244005203247,0.0,0.0,0.0,1,1789158406.0432477,38.990799196666664,-76.937900675,-7.100000000000001,0,1,8.946081000000001,11.182336,74.787904,1,1,1789158406.9495578,0.2760371328652155,0.9519664984237488,0.11667041504011955,-0.06285937808111375,169.0070259896984,-10.608127386786505,148.6830518538367,-0.0020387190992545764,0.04410080500646752,0.013934708747922728,0.281941192150116,-0.25703230073928834,-9.716036714248657
2026-09-11T16:26:46.987,2.105303296000102,-617.8436279296875,-55605.926513671875,-222423.7060546875,-423.222885131836,-1.72955810546875,-0.01790485344827175,-0.01226482461206615,-0.027435631290412796,2.153777936636138,0.0,0.049284011125564575,403.734619140625,17.742244005203247,0.0,0.0,0.0,1,1789158406.0432477,38.990799196666664,-76.937900675,-7.100000000000001,0,1,8.946081000000001,11.182336,74.787904,1,1,1789158406.9815578,0.2758980382010299,0.9519845649998381,0.1165106387984061,-0.063489617778653,169.0421568288702,-10.671183021034448,148.70188738039934,0.0011552334318950467,0.0561100665235901,0.016455662319503336,0.27782239908218387,-0.12209279451370239,-9.74339726819992
2026-09-11T16:26:47.021,2.1387257600001703,-617.843505859375,-55605.91552734375,-222423.662109375,-423.2228015136719,-1.7294744873046877,0.0,0.0,0.0,0.3669635072997921,0.0,0.049284011125564575,403.734619140625,17.742244005203247,0.0,0.0,0.0,1,1789158406.0432477,38.990799196666664,-76.937900675,-7.100000000000001,0,1,8.946081000000001,11.182336,74.787904,1,1,1789158407.0095577,0.2758249362604011,0.9518547256551562,0.1167784714511238,-0.06523782944298603,169.06301555063683,-10.871950788170283,148.72325077529177,-0.0010473720841217972,0.06722938465512078,0.014226527798856178,0.6449833811378478,-0.11326680936813353,-9.786644595413208
2026-09-11T16:26:47.054,2.17214521599999,-617.8448486328125,-55606.036376953125,-222424.1455078125,-423.2237213134766,-1.7303942871093752,-0.026260698214173317,-0.017988578276708724,-0.04023930358963114,-0.5382666395528957,0.0,0.04946902394294739,405.250244140625,17.80884861946106,0.0,0.0,0.0,1,1789158407.0474598,38.990797181666665,-76.93790067,-7.0859999999999985,0,1,9.659664000000001,12.124324000000001,57.289761,1,1,1789158407.0495577,0.27557043837361944,0.9517865115375449,0.11696214143891884,-0.06695690718502838,169.09030766085058,-11.064853249794869,148.76529254753564,-0.00022933626371205492,0.04817126188796869,0.004794070389378024,0.47493606733322147,-0.14641328691482544,-9.703680335044861
2026-09-11T16:26:47.087,2.205595520000088,-617.845703125,-55606.11328125,-222424.453125,-423.22430664062506,-1.7309796142578127,-0.026260698214173317,-0.017988578276708724,-0.04023930358963114,0.0,0.0,0.04946902394294739,405.250244140625,17.80884861946106,0.0,0.0,0.0,1,1789158407.0474598,38.990797181666665,-76.93790067,-7.0859999999999985,0,1,9.659664000000001,12.124324000000001,57.289761,1,1,1789158407.0815578,0.27534297325192403,0.9517617051830273,0.11702865651959576,-0.0681189928074773,169.11451919370208,-11.192861604874752,148.7997098243701,0.0013590878885279844,0.02505088528679981,-0.0011058406140636071,0.48023165842056276,-0.15749480159759524,-9.677300446109772
2026-09-11T16:26:47.121,2.239006560000007,-617.8465576171875,-55606.190185546875,-222424.7607421875,-423.2248919677735,-1.7315649414062502,-0.026260698214173317,-0.017988578276708724,-0.04023930358963114,0.0,0.0,0.04946902394294739,405.250244140625,17.80884861946106,0.0,0.0,0.0,1,1789158407.0474598,38.990797181666665,-76.93790067,-7.0859999999999985,0,1,9.659664000000001,12.124324000000001,57.289761,1,1,1789158407.1095576,0.275100690849474,0.9519044455476826,0.11671161869958484,-0.06764565397143987,169.133439393197,-11.127871403403528,148.82310275475496,0.00041695915830144536,-0.0016563174601426187,-0.002978578901453523,0.3949138020133972,-0.1317033116722107,-9.770757822151184
2026-09-11T16:26:47.154,2.272415072000058,-617.8425903320312,-55605.83312988281,-222423.33251953125,-423.22217437744143,-1.7288473510742188,0.13130348920822144,0.08994289010763169,0.201196515094022,3.2306577552503977,0.0,0.04946902394294739,405.250244140625,17.80884861946106,0.0,0.0,0.0,1,1789158407.0474598,38.990797181666665,-76.93790067,-7.0859999999999985,0,1,9.659664000000001,12.124324000000001,57.289761,1,1,1789158407.1495578,0.2745640171552506,0.9519986824756405,0.11774540922588161,-0.06670178149379197,168.98290938914943,-11.049519396153283,148.8929281766481,0.005413487740910812,-0.03325358370532276,-0.007600734359510105,0.38059609277725215,0.050210048828125006,-9.739376541633606
2026-09-11T16:26:47.188,2.305822080000098,-617.8381958007812,-55605.43762207031,-222421.75048828125,-423.21916412353517,-1.7258370971679688,0.13130348920822144,0.08994289010763169,0.201196515094022,0.0,0.0,0.04946902394294739,405.250244140625,17.80884861946106,0.0,0.0,0.0,1,1789158407.0474598,38.990797181666665,-76.93790067,-7.0859999999999985,0,1,9.659664000000001,12.124324000000001,57.289761,1,1,1789158407.1815577,0.27407911554340464,0.952237818859329,0.11835065302433526,-0.06416305545784383,168.8345402265784,-10.78195041567008,148.94256632739285,0.00537421783274094,-0.022240032526462943,0.0008447393579652555,-0.06119349700927734,0.19083741214752198,-9.71976324131012
2026-09-11T16:26:47.221,2.33924576000004,-617.8338012695312,-55605.04211425781,-222420.16845703125,-423.21615386962895,-1.7228268432617189,0.13130348920822144,0.08994289010763169,0.201196515094022,0.0,0.0,0.05176547169685364,424.062744140625,18.63556981086731,0.1068115308880806,38.452151119709015,1150.4463637689244,1,1789158407.0474598,38.990797181666665,-76.93790067,-7.0859999999999985,0,1,9.659664000000001,12.124324000000001,57.289761,1,1,1789158407.2095578,0.2736644558886903,0.9522780923654979,0.1197354766228214,-0.06275042646692477,168.6324682537901,-10.663837684989138,148.9973356249122,0.0016530013345638296,0.008723679200243258,0.006593679381109377,0.2982202314186096,0.3193045292663574,-9.693089152870177
2026-09-11T16:26:47.254,2.3726537280001594,-617.8294677734375,-55604.652099609375,-222418.6083984375,-423.2131854248047,-1.7198583984375002,0.13130348920822144,0.08994289010763169,0.201196515094022,0.0,0.0,0.054319411516189575,444.984619140625,19.554988145828247,0.1525879055261612,54.93164598941803,493.28037160625956,1,1789158407.0474598,38.990797181666665,-76.93790067,-7.0859999999999985,0,1,9.659664000000001,12.124324000000001,57.289761,1,1,1789158407.2495577,0.27292609211325436,0.9522596108233441,0.12187718982794396,-0.062120306164763134,168.36454223168758,-10.651585418114973,149.10283334809483,0.0034831535882050833,0.04647515092088061,0.006798581035293512,0.18210949350357056,0.2749784705352783,-9.727118228931428
2026-09-11T16:26:47.288,2.406061791999946,-617.8250732421875,-55604.256591796875,-222417.0263671875,-423.2101751708985,-1.7168481445312502,0.13130348920822144,0.08994289010763169,0.201196515094022,0.0,0.0,0.0614033043384552,503.015869140625,22.105189561843872,0.2899170219898224,104.37012791633606,1479.836782138409,1,1789158407.0474598,38.990797181666665,-76.93790067,-7.0859999999999985,0,1,9.659664000000001,12.124324000000001,57.289761,1,1,1789158407.2815578,0.27239675224541865,0.952272405520762,0.12289247985315702,-0.06224719628538031,168.24790921143142,-10.690494752253748,149.17713737640977,0.004055796115784423,0.041538138065764244,0.013580406909767879,0.3331319059944153,0.28762904924392696,-9.724372366886138
2026-09-11T16:26:47.321,2.439485311999988,-617.822998046875,-55604.06982421875,-222416.279296875,-423.2087536621094,-1.7154266357421877,0.05315804481506348,0.03641326069831848,0.08145414436810675,-1.6015557131399014,0.0,0.07666590809822083,628.047119140625,27.599726915359497,0.6408692002296448,230.71291208267212,3780.0562049172813,1,1789158407.0474598,38.990797181666665,-76.93790067,-7.0859999999999985,0,1,9.659664000000001,12.124324000000001,57.289761,1,1,1789158407.3095577,0.27203206497849414,0.9523051893823656,0.12356811844727629,-0.06200243545501205,168.160566578398,-10.679758347137764,149.22588442830525,0.0018675022996339325,0.022512652955624456,0.018096620882228402,0.4124677058029175,0.320579393787384,-9.725058832397462
2026-09-11T16:26:47.355,2.472904288000109,-617.8232421875,-55604.091796875,-222416.3671875,-423.20892089843755,-1.7155938720703126,0.0,0.0,0.0,-1.0895983377284437,0.0,0.08406642079353333,688.672119140625,30.263911485671997,-0.045776382088661194,-16.47949755191803,-7396.767921126486,1,1789158407.0474598,38.990797181666665,-76.93790067,-7.0859999999999985,0,1,9.659664000000001,12.124324000000001,57.289761,1,1,1789158407.3495576,0.2718250297066725,0.9520247419900162,0.12480193893341418,-0.06468786518559619,168.0967648375681,-11.012168990701332,149.28099996435486,0.002686410784669672,-0.0029586821479807876,0.005797285643424365,0.5179872615432739,0.3318570414733887,-9.75673431241989
2026-09-11T16:26:47.388,2.506321631999981,-617.8232421875,-55604.091796875,-222416.3671875,-423.20892089843755,-1.7155938720703126,0.0,0.0,0.0,0.0,0.0,0.08407405018806458,688.734619140625,30.266658067703247,0.0,0.0,493.142050785995,1,1789158407.0474598,38.990797181666665,-76.93790067,-7.0859999999999985,0,1,9.659664000000001,12.124324000000001,57.289761,1,1,1789158407.3815577,0.2712408972961345,0.9521059279606168,0.12533109588365848,-0.06492144469157717,168.03705411239514,-11.046991708648857,149.35809578031484,0.0023965115959134137,-0.016809440558882588,-0.0024891885791943126,0.4852330500030518,0.3691223120880127,-9.747908327274322
2026-09-11T16:26:47.421,2.539729920000127,-617.8232421875,-55604.091796875,-222416.3671875,-423.20892089843755,-1.7155938720703126,0.0,0.0,0.0,0.0,0.0,0.08407405018806458,688.734619140625,30.266658067703247,0.0,0.0,0.0,1,1789158407.0474598,38.990797181666665,-76.93790067,-7.0859999999999985,0,1,9.659664000000001,12.124324000000001,57.289761,1,1,1789158407.4095578,0.2706506502643545,0.9522820706307464,0.12561982257626073,-0.0642397356984661,167.97806940498887,-10.97302784448506,149.42729489181158,0.0026977554248076353,-0.025594031750020445,-0.009197536092159718,0.3719662406349182,0.38285162231445313,-9.669062859973907
2026-09-11T16:26:47.455,2.5731490880000365,-617.8232421875,-55604.091796875,-222416.3671875,-423.20892089843755,-1.7155938720703126,0.0,0.0,0.0,0.0,0.0,0.08407405018806458,688.734619140625,30.266658067703247,0.0,0.0,0.0,1,1789158407.0474598,38.990797181666665,-76.93790067,-7.0859999999999985,0,1,9.659664000000001,12.124324000000001,57.289761,1,1,1789158407.4495578,0.2697374152617431,0.952650545606364,0.12621496665162524,-0.061387677565942614,167.81876219635103,-10.664152860931397,149.52284431488863,0.002296504229774139,-0.028626017726584997,-0.004641877678604118,0.31675480022430424,0.5152413994979859,-9.679359842643738
2026-09-11T16:26:47.488,2.606566848000057,-617.8232421875,-55604.091796875,-222416.3671875,-423.20892089843755,-1.7155938720703126,0.0,0.0,0.0,0.0,0.0,0.08407405018806458,688.734619140625,30.266658067703247,0.0,0.0,0.0,1,1789158407.0474598,38.990797181666665,-76.93790067,-7.0859999999999985,0,1,9.659664000000001,12.124324000000001,57.289761,1,1,1789158407.4815578,0.26900401329976215,0.9526353546061223,0.12781264808926285,-0.06153575360308343,167.63444293278587,-10.71981916086348,149.62753659105041,0.0012470377505499485,-0.024939184214672172,-0.010170382617221358,0.53456050031662,0.5522124706077576,-9.721332305335999
2026-09-11T16:26:47.522,2.6399764160000814,-617.8232421875,-55604.091796875,-222416.3671875,-423.20892089843755,-1.7155938720703126,0.0,0.0,0.0,0.0,0.0,0.08199885487556458,671.734619140625,29.519587755203247,0.0,0.0,0.0,1,1789158407.0474598,38.990797181666665,-76.93790067,-7.0859999999999985,0,1,9.659664000000001,12.124324000000001,57.289761,1,1,1789158407.5095577,0.2683720096489579,0.952991088345392,0.12708289949299498,-0.06028587419701527,167.6742721709206,-10.551240234468434,149.68698323411448,0.0016554447955166216,-0.034736939036592744,-0.009013752921924714,0.0734518097114563,0.3943254030036927,-9.668082194957734
2026-09-11T16:26:47.555,2.673384864000127,-617.8232421875,-55604.091796875,-222416.3671875,-423.20892089843755,-1.7155938720703126,0.0,0.0,0.0,0.0,0.0,0.08163264393806458,668.734619140625,29.387751817703247,0.0,0.0,0.0,1,1789158407.0474598,38.990797181666665,-76.93790067,-7.0859999999999985,0,1,9.659664000000001,12.124324000000001,57.289761,1,1,1789158407.5495577,0.2677244857983842,0.95337847162689,0.12596260566765413,-0.05938443833009776,167.76805999553594,-10.409267720364001,149.74716154669184,0.0003378957431861022,-0.05427293295294087,-0.00036983526849759845,0.34784188123703,0.3606885929489136,-9.702699670028686
2026-09-11T16:26:47.588,2.7067882559999816,-617.8232421875,-55604.091796875,-222416.3671875,-423.20892089843755,-1.7155938720703126,0.0,0.0,0.0,0.0,0.0,0.08163264393806458,668.734619140625,29.387751817703247,0.0,0.0,0.0,1,1789158407.0474598,38.990797181666665,-76.93790067,-7.0859999999999985,0,1,9.659664000000001,12.124324000000001,57.289761,1,1,1789158407.5815578,0.2674566169917805,0.9536428371492183,0.124635214121869,-0.05914694059794794,167.9082349142173,-10.339422541383533,149.76489868184794,-7.592182246175333e-05,-0.06764285315491823,0.0017467255153959251,0.3123418076515198,0.22143416065216065,-9.730452489986419
2026-09-11T16:26:47.622,2.7402005760000065,-617.8232421875,-55604.091796875,-222416.3671875,-423.20892089843755,-1.7155938720703126,0.0,0.0,0.0,0.0,0.0,0.08163264393806458,668.734619140625,29.387751817703247,0.0,0.0,0.0,1,1789158407.0474598,38.990797181666665,-76.93790067,-7.0859999999999985,0,1,9.659664000000001,12.124324000000001,57.289761,1,1,1789158407.6095576,0.26727910870133204,0.9537971308038616,0.12373822069148063,-0.05934445266618653,168.01317024680384,-10.331925905309616,149.7790990618015,0.00441707927094725,-0.0681146156517323,0.0013587388226775855,0.2874329162406921,0.19230840967178345,-9.72819696044922
2026-09-11T16:26:47.656,2.7736197760000323,-617.8232421875,-55604.091796875,-222416.3671875,-423.20892089843755,-1.7155938720703126,0.0,0.0,0.0,0.0,0.0,0.08163264393806458,668.734619140625,29.387751817703247,0.0,0.0,0.0,1,1789158407.0474598,38.990797181666665,-76.93790067,-7.0859999999999985,0,1,9.659664000000001,12.124324000000001,57.289761,1,1,1789158407.6495578,0.2670282992704319,0.9541674916744621,0.12171561187044892,-0.05869919119892825,168.22027922115404,-10.19627452230015,149.78555647140166,0.0031510174315505625,-0.06486952497349925,-0.0016804030038201406,0.19172001066207886,0.12464252355575563,-9.742710802688599
2026-09-11T16:26:47.689,2.807037887999968,-617.8232421875,-55604.091796875,-222416.3671875,-423.20892089843755,-1.7155938720703126,0.0,0.0,0.0,0.0,0.0,0.08163264393806458,668.734619140625,29.387751817703247,0.0,0.0,0.0,1,1789158407.0474598,38.990797181666665,-76.93790067,-7.0859999999999985,0,1,9.659664000000001,12.124324000000001,57.289761,1,1,1789158407.6815577,0.2666920042690528,0.9543642085219746,0.12108331050173503,-0.058336646022211606,168.2777058824264,-10.132940948977312,149.8174082310098,0.002947337507842824,-0.0590350638170074,-0.0028478537404791476,0.23261374183654787,0.11601267141342163,-9.719076775798797
2026-09-11T16:26:47.722,2.8404447360001086,-617.8232421875,-55604.091796875,-222416.3671875,-423.20892089843755,-1.7155938720703126,0.0,0.0,0.0,0.0,0.0,0.08163264393806458,668.734619140625,29.387751817703247,0.0,0.0,0.0,1,1789158407.0474598,38.990797181666665,-76.93790067,-7.0859999999999985,0,1,9.659664000000001,12.124324000000001,57.289761,1,1,1789158407.7095578,0.2663696946017562,0.9544817287403583,0.1208665196286027,-0.05833609287098912,168.2987504090671,-10.122412658423864,149.85398921374232,0.006067811677483486,-0.044463135359181546,-0.0007951720072086166,0.18181529399871826,0.12542705556869507,-9.723489768371582
2026-09-11T16:26:47.756,2.873853631999964,-617.8232421875,-55604.091796875,-222416.3671875,-423.20892089843755,-1.7155938720703126,0.0,0.0,0.0,0.0,0.0,0.08163264393806458,668.734619140625,29.387751817703247,0.0,0.0,0.0,1,1789158407.0474598,38.990797181666665,-76.93790067,-7.0859999999999985,0,1,9.659664000000001,12.124324000000001,57.289761,1,1,1789158407.7495577,0.26576595562209143,0.9546366134881782,0.1211613570360951,-0.05794237293441895,168.2479955134891,-10.080342766020022,149.92622902219492,0.0023383921318220024,-0.030870336611724503,-0.0024183282115633428,0.20525318788528443,0.200153729801178,-9.704562933559417
2026-09-11T16:26:47.789,2.9072629439999673,-617.8232421875,-55604.091796875,-222416.3671875,-423.20892089843755,-1.7155938720703126,0.0,0.0,0.0,0.0,0.0,0.08163264393806458,668.734619140625,29.387751817703247,0.0,0.0,0.0,1,1789158407.0474598,38.990797181666665,-76.93790067,-7.0859999999999985,0,1,9.659664000000001,12.124324000000001,57.289761,1,1,1789158407.7805576,0.2652233805556237,0.9547789217734233,0.12129158245489229,-0.057811079988303836,168.22392567814865,-10.063081650213615,149.99143884503275,0.0026050784415267364,-0.015939742992613814,-0.0032218777991815323,0.14680555292129518,0.19858466577529907,-9.721822637844085
2026-09-11T16:26:47.822,2.940673600000082,-617.8232421875,-55604.091796875,-222416.3671875,-423.20892089843755,-1.7155938720703126,0.0,0.0,0.0,0.0,0.0,0.08163264393806458,668.734619140625,29.387751817703247,0.0,0.0,0.0,1,1789158407.0474598,38.990797181666665,-76.93790067,-7.0859999999999985,0,1,9.659664000000001,12.124324000000001,57.289761,1,1,1789158407.8095577,0.2647047574944311,0.954939086699788,0.12130069191888802,-0.05752281454160628,168.2093505737357,-10.025084010589785,150.0515240228179,0.0016351989761934872,-0.005449616056427095,0.0011255628346111433,0.14092156282424928,0.20682225191116335,-9.720253573818207
2026-09-11T16:26:47.856,2.9740974720000395,-617.8232421875,-55604.091796875,-222416.3671875,-423.20892089843755,-1.7155938720703126,0.0,0.0,0.0,0.0,0.0,0.08163264393806458,668.734619140625,29.387751817703247,0.0,0.0,0.0,1,1789158407.0474598,38.990797181666665,-76.93790067,-7.0859999999999985,0,1,9.659664000000001,12.124324000000001,57.289761,1,1,1789158407.8495576,0.2639915624699173,0.9549995197631392,0.12205580531877538,-0.058195812433973135,168.13569272078402,-10.113422130821942,150.14865615246123,0.0014871950556243681,0.0032442180136070596,-0.002279225470179395,0.14886494945526124,0.231731143321991,-9.687989694786072
2026-09-11T16:26:47.889,3.0075034880001112,-617.8232421875,-55604.091796875,-222416.3671875,-423.20892089843755,-1.7155938720703126,-0.1575641930103302,-0.10793147221207619,-0.2414358272460542,-3.2308992551474662,0.0,0.08163264393806458,668.734619140625,29.387751817703247,0.0,0.0,0.0,1,1789158407.0474598,38.990797181666665,-76.93790067,-7.0859999999999985,0,1,9.659664000000001,12.124324000000001,57.289761,1,1,1789158407.8805578,0.2633659547614105,0.9551762328957799,0.12220030045495557,-0.05782581216339237,168.10245316107245,-10.069026040216833,150.2221507226059,0.0022910937090929564,0.014849086743042557,8.796459430051421e-05,0.13425304071426392,0.26546601987838747,-9.715742514743805
2026-09-11T16:26:47.922,3.0409134080000513,-617.8646850585938,-55607.82165527344,-222431.28662109375,-423.23730926513673,-1.7439822387695314,-0.6103297472000122,-0.4180758768320084,-0.9352091017179849,-9.283003509750664,0.0,0.08163264393806458,668.734619140625,29.387751817703247,0.0,0.0,0.0,1,1789158407.0474598,38.990797181666665,-76.93790067,-7.0859999999999985,0,1,9.659664000000001,12.124324000000001,57.289761,1,1,1789158407.9095578,0.2628049873933544,0.9552997453390206,0.12242338183579463,-0.057865799366019405,168.07254633602693,-10.07314821660219,150.2915905660698,0.0007831292353698557,0.020843943657792678,0.0028869491157238205,0.21515790454864503,0.26585828588485716,-9.721724571342468
2026-09-11T16:26:47.957,3.0743363520000457,-617.8644409179688,-55607.79968261719,-222431.19873046875,-423.23714202880865,-1.7438150024414063,-0.12063425779342651,-0.08263446658849717,-0.18484803728636606,10.036261624456747,0.0,0.08163264393806458,668.734619140625,29.387751817703247,-0.015258789993822575,-5.493164397776127,-164.35309821232497,1,1789158407.0474598,38.990797181666665,-76.93790067,-7.0859999999999985,0,1,9.659664000000001,12.124324000000001,57.289761,1,1,1789158407.9495578,0.2619799460928043,0.9553643344031741,0.12328425080726339,-0.058706813049961594,167.99017091713415,-10.181607420179695,150.40442706439447,0.0022785273384785974,0.03516524283503215,-0.002501754949808672,0.14111769582748412,0.33852556358337405,-9.737022945594788
2026-09-11T16:26:47.990,3.1077578560000347,-617.8643188476562,-55607.78869628906,-222431.15478515625,-423.2370584106446,-1.7437313842773439,-0.01754046231508255,-0.012015216685831548,-0.02687727426143418,2.112988389232539,0.0,0.07801440358161926,639.093994140625,28.085185289382935,-0.1068115383386612,-38.45215380191803,-986.1611674972123,1,1789158407.0474598,38.990797181666665,-76.93790067,-7.0859999999999985,0,1,9.659664000000001,12.124324000000001,57.289761,1,1,1789158407.9815578,0.2610913915666045,0.9554210337650006,0.12450022509464724,-0.059174550616068466,167.85637600662483,-10.25824181146305,150.52557182133808,0.0007548549014875475,0.0583273328053237,-0.0021605430810437806,0.17249897634506228,0.4383572622299194,-9.687009029769898
2026-09-11T16:26:48.023,3.141181632000098,-617.8641967773438,-55607.77770996094,-222431.11083984375,-423.2369747924805,-1.7436477661132814,0.0,0.0,0.0,0.35948112762031414,0.0,0.0732746422290802,600.265869140625,26.378871202468872,-0.1373291164636612,-49.43848192691803,-328.69799405606335,1,1789158407.0474598,38.990797181666665,-76.93790067,-7.0859999999999985,0,1,9.659664000000001,12.124324000000001,57.289761,1,1,1789158408.0215578,0.2599503368358474,0.9556654995620083,0.12492313556466574,-0.05935895489746121,167.80154584336407,-10.276708207110833,150.6673485650522,-0.003509158994059799,0.07040640749252605,-0.004766319654271315,0.15043401348114013,0.35813886390686034,-9.767619694099427
2026-09-11T16:26:48.057,3.1745885120001276,-617.8641967773438,-55607.77770996094,-222431.11083984375,-423.2369747924805,-1.7436477661132814,0.0,0.0,0.0,0.0,0.0,0.06870844960212708,562.859619140625,24.735041856765747,-0.1525879055261612,-54.93164598941803,-164.43211884782835,1,1789158408.0447748,38.99079698166667,-76.93790023166666,-7.134,0,1,10.310521,12.208036000000002,64.49696100000001,1,1,1789158408.0495577,0.2592375763479973,0.9558659047011953,0.12459463934789118,-0.05993685914986648,167.84700309140456,-10.32214199622487,150.75375334995204,-0.00256406320410487,0.07218105827595389,-0.0016580627893946131,0.2590916972732544,0.30989014511108404,-9.683870901718139
2026-09-11T16:26:48.090,3.2080086720000054,-617.8641967773438,-55607.77770996094,-222431.11083984375,-423.2369747924805,-1.7436477661132814,0.0,0.0,0.0,0.0,0.0,0.06373408436775208,522.109619140625,22.944270372390747,-0.1678466945886612,-60.42481005191803,-164.36677928891083,1,1789158408.0447748,38.99079698166667,-76.93790023166666,-7.134,0,1,10.310521,12.208036000000002,64.49696100000001,1,1,1789158408.0815578,0.2585686356768805,0.9561160899685044,0.12360412980647013,-0.06087940737491657,167.97773930092845,-10.389323555955624,150.83121666910785,-0.0013472196496144228,0.07207756025131062,-0.0005895722213236844,0.2678196159172058,0.24957924661636352,-9.774092083206178
2026-09-11T16:26:48.124,3.241432128000042,-617.8641967773438,-55607.77770996094,-222431.11083984375,-423.2369747924805,-1.7436477661132814,0.0,0.0,0.0,0.0,0.0,0.0569324791431427,466.390869140625,20.495692491531372,-0.2746582329273224,-98.87696385383606,-1150.4541541687272,1,1789158408.0447748,38.99079698166667,-76.93790023166666,-7.134,0,1,10.310521,12.208036000000002,64.49696100000001,1,1,1789158408.1215577,0.2576104910956193,0.9562721635276044,0.12372163598163523,-0.06223617059023034,167.9911641910645,-10.531345405350667,150.95677832697717,-0.0005044001538263612,0.0652812481440447,-0.0013187707828069154,0.3347009700202942,0.2682118819236755,-9.771738487167358
2026-09-11T16:26:48.157,3.2748516480000944,-617.8641967773438,-55607.77770996094,-222431.11083984375,-423.2369747924805,-1.7436477661132814,0.0,0.0,0.0,0.0,0.0,0.051481276750564575,421.734619140625,18.533259630203247,0.0,0.0,2958.6590068822525,1,1789158408.0447748,38.99079698166667,-76.93790023166666,-7.134,0,1,10.310521,12.208036000000002,64.49696100000001,1,1,1789158408.1495578,0.257168118431027,0.9563899023718625,0.12296331187034011,-0.0637411753708875,168.1131651690305,-10.670887676311443,151.01303029972655,0.002248333142419095,0.06464245763781477,-0.005469861875750229,0.21329464101791382,0.0762957382583618,-9.674946850070953
2026-09-11T16:26:48.190,3.3082557440000073,-617.8641967773438,-55607.77770996094,-222431.11083984375,-423.2369747924805,-1.7436477661132814,0.0,0.0,0.0,0.0,0.0,0.0499592125415802,409.265869140625,17.985316514968872,-0.0610351637005806,-21.972658932209015,-657.7833728015364,1,1789158408.0447748,38.99079698166667,-76.93790023166666,-7.134,0,1,10.310521,12.208036000000002,64.49696100000001,1,1,1789158408.1815577,0.2565624392728354,0.9566360830834547,0.12232842799611107,-0.06370930074265714,168.17750794885228,-10.641484713180187,151.0789542518893,-5.2185344634630454e-05,0.03616165130499571,0.0010623819156889483,0.31920646276474,0.13905829929351807,-9.74114173866272
2026-09-11T16:26:48.223,3.3416642560000582,-617.8641967773438,-55607.77770996094,-222431.11083984375,-423.2369747924805,-1.7436477661132814,0.0,0.0,0.0,0.0,0.0,0.049894362688064575,408.734619140625,17.961970567703247,0.0,0.0,657.6964257544764,1,1789158408.0447748,38.99079698166667,-76.93790023166666,-7.134,0,1,10.310521,12.208036000000002,64.49696100000001,1,1,1789158408.2215576,0.25585493527481207,0.9568408892561734,0.12225751477565791,-0.06361497326775205,168.17519537865064,-10.620276529637195,151.16215590669415,0.0036611771719085055,0.011975576662559093,0.005430068368804758,0.35755046489715575,0.26115109380722046,-9.708583660125733
2026-09-11T16:26:48.257,3.375073632000067,-617.8641967773438,-55607.77770996094,-222431.11083984375,-423.2369747924805,-1.7436477661132814,0.0,0.0,0.0,0.0,0.0,0.049894362688064575,408.734619140625,17.961970567703247,0.0,0.0,0.0,1,1789158408.0447748,38.99079698166667,-76.93790023166666,-7.134,0,1,10.310521,12.208036000000002,64.49696100000001,1,1,1789158408.2495577,0.2553043273286825,0.9569818951970139,0.12276515159675754,-0.06272216726011219,168.08753255309347,-10.528984482479514,151.2265410451578,0.0020802579354520416,0.010248573367710704,0.008211250531857723,0.18642441957473754,0.2774301330757141,-9.68494963323593
2026-09-11T16:26:48.290,3.4084928639999816,-617.8649291992188,-55607.84362792969,-222431.37451171875,-423.23747650146487,-1.7441494750976563,-0.02577344700694084,-0.017654811199754476,-0.03949268790209927,-0.5282829719067015,0.0,0.049894362688064575,408.734619140625,17.961970567703247,0.0,0.0,0.0,1,1789158408.0447748,38.99079698166667,-76.93790023166666,-7.134,0,1,10.310521,12.208036000000002,64.49696100000001,1,1,1789158408.2815578,0.25473252698099597,0.9569804656023467,0.12409853617903031,-0.06244422688778782,167.9227826526426,-10.529379145566276,151.30581624162974,0.0028379053637427798,0.012444546632569968,0.012419937490116847,0.36441512001037596,0.42658928203582763,-9.741926270675659
2026-09-11T16:26:48.323,3.441900415999953,-617.8657836914062,-55607.92053222656,-222431.68212890625,-423.2380618286133,-1.7447348022460938,-0.02577344700694084,-0.017654811199754476,-0.03949268790209927,0.0,0.0,0.049894362688064575,408.734619140625,17.961970567703247,0.0,0.0,0.0,1,1789158408.0447748,38.99079698166667,-76.93790023166666,-7.134,0,1,10.310521,12.208036000000002,64.49696100000001,1,1,1789158408.3215578,0.2539516174549251,0.9567679440415052,0.12693476852091676,-0.06317627550876932,167.6123743117288,-10.68215979983937,151.4324952722509,0.0033419564517187424,0.017588730069898056,0.008921599537419415,0.41099670827865603,0.5858492806625366,-9.712996652698518
2026-09-11T16:26:48.356,3.475311136000073,-617.8666381835938,-55607.99743652344,-222431.98974609375,-423.2386471557617,-1.7453201293945313,-0.02577344700694084,-0.017654811199754476,-0.03949268790209927,0.0,0.0,0.049894362688064575,408.734619140625,17.961970567703247,0.0,0.0,0.0,1,1789158408.0447748,38.99079698166667,-76.93790023166666,-7.134,0,1,10.310521,12.208036000000002,64.49696100000001,1,1,1789158408.3495576,0.25321674719844645,0.9568290509745515,0.12809184402912563,-0.06286434317317796,167.46471490839255,-10.671094057078433,151.529285322953,0.0009576621605692886,0.018100460606582793,0.006920055951232317,0.3454882851982116,0.5355411653327942,-9.709172059135437
2026-09-11T16:26:48.391,3.5087262720001036,-617.8674926757812,-55608.07434082031,-222432.29736328125,-423.2392324829102,-1.7459054565429688,-0.02577344700694084,-0.017654811199754476,-0.03949268790209927,0.0,0.0,0.049894362688064575,408.734619140625,17.961970567703247,0.0,0.0,0.0,1,1789158408.0447748,38.99079698166667,-76.93790023166666,-7.134,0,1,10.310521,12.208036000000002,64.49696100000001,1,1,1789158408.3815577,0.2524443067524396,0.9570293620018102,0.128020118875943,-0.06306759403749,167.4697381938415,-10.681595913799946,151.6223609664432,-0.0015292574905974316,0.017101608675666437,0.006846053990947757,0.3817728907966614,0.4630700206375122,-9.695835014915467
2026-09-11T16:26:48.424,3.5421508800000083,-617.868408203125,-55608.15673828125,-222432.626953125,-423.23985961914065,-1.7465325927734376,-0.02577344700694084,-0.017654811199754476,-0.03949268790209927,0.0,0.0,0.049894362688064575,408.734619140625,17.961970567703247,0.0,0.0,0.0,1,1789158408.0447748,38.99079698166667,-76.93790023166666,-7.134,0,1,10.310521,12.208036000000002,64.49696100000001,1,1,1789158408.4215577,0.2516101243026328,0.9573842499750289,0.12719966706145852,-0.0626736623121643,167.54324232447797,-10.603710319210483,151.71068536856046,-0.0008168140899333463,0.011158588039700547,0.008711287362554098,0.3732411051559448,0.3943254030036927,-9.711917921180724
2026-09-11T16:26:48.456,3.5755723839999973,-617.8989868164062,-55610.90881347656,-222443.63525390625,-423.26080596923833,-1.767478942871094,-0.7807295322418213,-0.5347997295856476,-1.1963129240910142,-15.473418502831692,0.0,0.049894362688064575,408.734619140625,17.961970567703247,0.0,0.0,0.0,1,1789158408.0447748,38.99079698166667,-76.93790023166666,-7.134,0,1,10.310521,12.208036000000002,64.49696100000001,1,1,1789158408.4495578,0.25126219688974144,0.9575278120840045,0.126358172612818,-0.06357208281713911,167.6586447585175,-10.675249942347525,151.75082741622342,-0.003188018411692842,0.004502251338444573,0.004182507019479211,0.4273738140487671,0.32891504642486574,-9.741043672161103
2026-09-11T16:26:48.489,3.6089792960001432,-617.906005859375,-55611.54052734375,-222446.162109375,-423.2656140136719,-1.7722869873046876,-0.22836542129516602,-0.15643031358718873,-0.34992464564063297,11.326081740114335,0.0,0.049894362688064575,408.734619140625,17.961970567703247,0.0,0.0,0.0,1,1789158408.0447748,38.99079698166667,-76.93790023166666,-7.134,0,1,10.310521,12.208036000000002,64.49696100000001,1,1,1789158408.4815578,0.25068393504558323,0.957824348812525,0.12559165613531326,-0.06290323871720341,167.72162421947516,-10.571834040361201,151.8071038103035,-0.0019807741680883647,-0.004714832441337482,0.004338713987532704,0.2867464507293701,0.35813886390686034,-9.666218931427002
2026-09-11T16:26:48.525,3.642402528000048,-617.9061279296875,-55611.551513671875,-222446.2060546875,-423.26569763183596,-1.7723706054687502,-0.04424404725432396,-0.030307172369211915,-0.06779521378223846,3.7735172115711855,0.0,0.049894362688064575,408.734619140625,17.961970567703247,0.0,0.0,0.0,1,1789158408.0447748,38.99079698166667,-76.93790023166666,-7.134,0,1,10.310521,12.208036000000002,64.49696100000001,1,1,1789158408.5215578,0.250326028773611,0.9580302366340842,0.1245812600294679,-0.06320169825838785,167.8402156856803,-10.57195128553566,151.84212210509517,0.001702743218245668,-0.009906663367245013,0.011854625345395886,0.5189679265594482,0.29596470188140866,-9.688087761287688
2026-09-11T16:26:48.558,3.6758220159999837,-617.9072265625,-55611.650390625,-222446.6015625,-423.26645019531253,-1.7731231689453126,-0.04424404725432396,-0.030307172369211915,-0.06779521378223846,0.0,0.0,0.049894362688064575,408.734619140625,17.961970567703247,0.0,0.0,0.0,1,1789158408.0447748,38.99079698166667,-76.93790023166666,-7.134,0,1,10.310521,12.208036000000002,64.49696100000001,1,1,1789158408.5495577,0.24999592364806295,0.9580735620926192,0.124757500266173,-0.06350318028136942,167.8245517218055,-10.60628486793839,151.88551059928292,-0.000520806248795108,-0.019047825324565316,0.009392663902532683,0.29959316244125367,0.29812216491699217,-9.728000827445983
2026-09-11T16:26:48.591,3.7092300480001086,-617.9087524414062,-55611.78771972656,-222447.15087890625,-423.2674954223633,-1.7741683959960939,-0.04424404725432396,-0.030307172369211915,-0.06779521378223846,0.0,0.0,0.049894362688064575,408.734619140625,17.961970567703247,0.0,0.0,0.0,1,1789158408.0447748,38.99079698166667,-76.93790023166666,-7.134,0,1,10.310521,12.208036000000002,64.49696100000001,1,1,1789158408.5815578,0.24950897955036933,0.9581828230334066,0.12517636460479276,-0.06294302591862433,167.756988607616,-10.54962692923536,151.94344753647482,-0.0010239846721450732,-0.0277015168218036,0.010063568466999304,0.3894220779228211,0.35598140087127683,-9.66357113588333
2026-09-11T16:26:48.625,3.7426399360001597,-617.9102172851562,-55611.91955566406,-222447.67822265625,-423.2684988403321,-1.7751718139648438,-0.04424404725432396,-0.030307172369211915,-0.06779521378223846,0.0,0.0,0.049894362688064575,408.734619140625,17.961970567703247,0.0,0.0,0.0,1,1789158408.0447748,38.99079698166667,-76.93790023166666,-7.134,0,1,10.310521,12.208036000000002,64.49696100000001,1,1,1789158408.6215577,0.24888844882386363,0.9583011767163732,0.12539630524315226,-0.06315980824410192,167.73094912027167,-10.572037598955246,152.02126121913489,-0.0017709855919986464,-0.013176188655005992,0.005929930666575934,0.3241097878456116,0.30655588405609135,-9.557561247634888
2026-09-11T16:26:48.658,3.7760461760001363,-617.9345092773438,-55614.10583496094,-222456.42333984375,-423.2851388549805,-1.7918118286132814,-0.7933533787727356,-0.5434470644593239,-1.2156564612994885,-15.3606000582667,0.0,0.049772292375564575,407.734619140625,17.918025255203247,0.0,0.0,0.0,1,1789158408.0447748,38.99079698166667,-76.93790023166666,-7.134,0,1,10.310521,12.208036000000002,64.49696100000001,1,1,1789158408.6495578,0.24859802001884002,0.9581111328429167,0.127825207250042,-0.06231210120561885,167.42991464369135,-10.542103892256362,152.07312770638873,-0.0033042573398756646,-0.003636393496530186,0.010878288161830256,0.6487099081993103,1.3467472667121887,-10.935297528858184
2026-09-11T16:26:48.691,3.809450848000097,-617.9472045898438,-55615.24841308594,-222460.99365234375,-423.293835144043,-1.8005081176757813,-0.32448071241378784,-0.2222692880034447,-0.49720223694399707,9.614756177107754,0.0,0.046857863664627075,383.859619140625,16.868830919265747,-0.0762939527630806,-27.465822994709015,-822.2150181490016,1,1789158408.0447748,38.99079698166667,-76.93790023166666,-7.134,0,1,10.310521,12.208036000000002,64.49696100000001,1,1,1789158408.6815577,0.24884906694246048,0.9583851896253067,0.1250427231879766,-0.06273984034460509,167.75965912270559,-10.514910419545023,152.01925297113047,0.0018619172460275508,-0.010262361468801459,0.0040358993623116875,0.2538941726875305,-0.6767569276618958,-8.455195702953338
2026-09-11T16:26:48.725,3.8428782400001182,-617.9474487304688,-55615.27038574219,-222461.08154296875,-423.2940023803711,-1.8006753540039064,-0.06399589776992798,-0.043837189972400666,-0.09806100119094627,5.337900666343628,0.0,0.045499831438064575,372.734619140625,16.379939317703247,0.0,0.0,821.6561733171229,1,1789158408.0447748,38.99079698166667,-76.93790023166666,-7.134,0,1,10.310521,12.208036000000002,64.49696100000001,1,1,1789158408.7215576,0.24874711937762056,0.9585922524296889,0.12329847938095673,-0.06342908769212251,167.97452458922996,-10.541376833476049,152.01951015930433,-0.0013906783479890818,-0.010786658376100555,0.0038604937724862577,0.5828092191123962,0.02353596038818359,-9.22835200170517
2026-09-11T16:26:48.758,3.876302368000097,-617.949462890625,-55615.45166015625,-222461.806640625,-423.2953820800782,-1.8020550537109377,-0.06399589776992798,-0.043837189972400666,-0.09806100119094627,0.0,0.0,0.045499831438064575,372.734619140625,16.379939317703247,0.0,0.0,0.0,1,1789158408.0447748,38.99079698166667,-76.93790023166666,-7.134,0,1,10.310521,12.208036000000002,64.49696100000001,1,1,1789158408.7495577,0.2487190005976968,0.9587930584290639,0.1218209769427687,-0.06335913057037589,168.1399949759309,-10.49180986493677,152.00787175945996,-0.002401747583669397,-0.020045979123780873,0.006603453224920546,0.20074212881088255,0.005295591087341308,-9.904814729862213
2026-09-11T16:26:48.791,3.9097073279999677,-617.9515991210938,-55615.64392089844,-222462.57568359375,-423.29684539794926,-1.8035183715820313,-0.06399589776992798,-0.043837189972400666,-0.09806100119094627,0.0,0.0,0.045499831438064575,372.734619140625,16.379939317703247,0.0,0.0,0.0,1,1789158408.0447748,38.99079698166667,-76.93790023166666,-7.134,0,1,10.310521,12.208036000000002,64.49696100000001,1,1,1789158408.7815578,0.24822394792674463,0.9586936912749939,0.12385434946589054,-0.06285998809710742,167.89088309214551,-10.48710208092982,152.08305201836626,0.00039863320115550487,-0.02661487482951193,0.00863082768403716,0.33656423355102544,0.44983104291915893,-9.863822932186126
2026-09-11T16:26:48.825,3.943114112000103,-617.9537353515625,-55615.836181640625,-222463.3447265625,-423.2983087158203,-1.8049816894531252,-0.06399589776992798,-0.043837189972400666,-0.09806100119094627,0.0,0.0,0.0440235435962677,360.640869140625,15.848475694656372,-0.0457763746380806,-16.479494869709015,-493.2978544011381,1,1789158408.0447748,38.99079698166667,-76.93790023166666,-7.134,0,1,10.310521,12.208036000000002,64.49696100000001,1,1,1789158408.8215578,0.2476611391870179,0.9586220963603213,0.12530358319915966,-0.06329809273416385,167.73170393078814,-10.569236199164754,152.1677085576295,0.0008197811496617366,-0.018568557911967674,0.006441661203260672,0.44855617839813233,0.3247962533569336,-9.776739878749847
2026-09-11T16:26:48.859,3.97653356800015,-617.9852905273438,-55618.67614746094,-222474.70458984375,-423.3199240112305,-1.8265969848632815,-0.746773898601532,-0.5115401205420494,-1.1442826604823928,-13.994929497625339,0.0,0.04227831959724426,346.343994140625,15.220195055007935,-0.0457763746380806,-16.479494869709015,0.0,1,1789158408.0447748,38.99079698166667,-76.93790023166666,-7.134,0,1,10.310521,12.208036000000002,64.49696100000001,1,1,1789158408.8495576,0.247039873165525,0.9587037134348565,0.1266963375970252,-0.06169707409657739,167.5252754448377,-10.421984047104685,152.24278328429276,0.0012103858362580674,-0.010008241529711083,0.0004951499087907913,0.15131661199569701,0.5418174214363098,-9.641898439025878
2026-09-11T16:26:48.892,4.009953792000033,-617.9893188476562,-55619.03869628906,-222476.15478515625,-423.3226834106446,-1.829356384277344,-0.1797579973936081,-0.12313422821462155,-0.2754434238873958,11.621881778194743,0.0,0.041471511125564575,339.734619140625,14.929744005203247,0.0,0.0,493.09947383257105,1,1789158408.0447748,38.99079698166667,-76.93790023166666,-7.134,0,1,10.310521,12.208036000000002,64.49696100000001,1,1,1789158408.8815577,0.24636295599824734,0.9588347130767664,0.12749163751124015,-0.0607220658039822,167.40251168596552,-10.326851041740122,152.32318652338387,0.00016929693744344997,-0.005335122457496267,0.008681093166494595,0.23545767038345336,0.3929524719810486,-9.690637490329742
2026-09-11T16:26:48.925,4.043361824000158,-617.9892578125,-55619.033203125,-222476.1328125,-423.3226416015625,-1.8293145751953126,-0.02511730045080185,-0.01720535080879927,-0.0384872736417306,3.1707607740984662,0.0,0.041471511125564575,339.734619140625,14.929744005203247,0.0,0.0,0.0,1,1789158408.0447748,38.99079698166667,-76.93790023166666,-7.134,0,1,10.310521,12.208036000000002,64.49696100000001,1,1,1789158408.9205577,0.24604061063476818,0.9591524093038439,0.1258328694297922,-0.06047117177768925,167.58092597934484,-10.248753218610279,152.3435861505056,-0.0011681488683598048,-0.0017105971998796425,0.013307611947681165,0.3216581253051758,0.15504313905715944,-9.825380863552095
2026-09-11T16:26:48.957,4.07677132799995,-617.9913940429688,-55619.22546386719,-222476.90185546875,-423.32410491943364,-1.8307778930664065,-0.05089074745774269,-0.03486016200855375,-0.07797996154382988,-0.5284367945080668,0.0,0.041471511125564575,339.734619140625,14.929744005203247,0.0,0.0,0.0,1,1789158408.0447748,38.99079698166667,-76.93790023166666,-7.134,0,1,10.310521,12.208036000000002,64.49696100000001,1,1,1789158408.9495578,0.24600274286885715,0.9592495617608692,0.12462646282728493,-0.06157250624863988,167.74594175777275,-10.337358743368238,152.34524220515635,0.002069262361164477,0.0037978364523396607,0.012916309129384036,0.34048689361572265,0.052661711368560786,-9.798314509105682
2026-09-11T16:26:48.991,4.1101746240001376,-617.9931030273438,-55619.37927246094,-222477.51708984375,-423.3252755737305,-1.8319485473632815,-0.05089074745774269,-0.03486016200855375,-0.07797996154382988,0.0,0.0,0.041471511125564575,339.734619140625,14.929744005203247,0.0,0.0,0.0,1,1789158408.0447748,38.99079698166667,-76.93790023166666,-7.134,0,1,10.310521,12.208036000000002,64.49696100000001,1,1,1789158408.9815578,0.24575098857422645,0.9593698881230514,0.12397940280734049,-0.062007878992023445,167.8279644214617,-10.364698487288825,152.37235287877488,0.0004745550236172582,0.004061904768166403,0.010647206568866209,0.21555017055511475,0.19093547864913943,-9.70564166507721
2026-09-11T16:26:49.026,4.143596352000031,-618.005859375,-55620.52734375,-222482.109375,-423.334013671875,-1.8406866455078126,-0.7537809014320374,-0.5163399174809457,-1.1550195004495014,-14.40618975398044,0.0,0.041471511125564575,339.734619140625,14.929744005203247,0.0,0.0,0.0,1,1789158408.0447748,38.99079698166667,-76.93790023166666,-7.134,0,1,10.310521,12.208036000000002,64.49696100000001,1,1,1789158409.0215578,0.2452117199924822,0.9593527583868474,0.1250466883457988,-0.062264139660195,167.70762834990862,-10.415916819070615,152.44891535315014,-0.0008311257897996998,-0.004435754293943588,0.014035763311613198,0.4283544790649414,0.19652526924133298,-9.766933228588105
2026-09-11T16:26:49.059,4.177016640000147,-618.0310668945312,-55622.79602050781,-222491.18408203125,-423.35128082275395,-1.857953796386719,-0.5430864095687866,-0.3720141905546189,-0.8321720440108681,4.318506379293526,0.0,0.041471511125564575,339.734619140625,14.929744005203247,0.0,0.0,0.0,1,1789158409.0445714,38.99079638333333,-76.93789984833333,-7.100000000000001,0,1,10.310521,12.208036000000002,64.49696100000001,1,1,1789158409.0495577,0.24511309521627622,0.9594151574406694,0.12430964659566773,-0.06316041473781184,167.81334734000964,-10.494081852692048,152.4604285507273,0.0006295402611943546,-0.006589490590904591,0.007240323868973276,0.38226322330474855,0.07305954370498657,-9.698482810459137
2026-09-11T16:26:49.092,4.210433920000014,-618.0308837890625,-55622.779541015625,-222491.1181640625,-423.3511553955078,-1.8578283691406252,-0.09593451023101807,-0.06571513950824738,-0.1470005805034165,9.165888158688908,0.0,0.041471511125564575,339.734619140625,14.929744005203247,0.0,0.0,0.0,1,1789158409.0445714,38.99079638333333,-76.93789984833333,-7.100000000000001,0,1,10.310521,12.208036000000002,64.49696100000001,1,1,1789158409.0815578,0.24481063302371434,0.9596316567782647,0.12359720373104055,-0.062438517738641355,167.87241089694254,-10.39025041634725,152.48393078845862,-0.002103121748653167,-0.0008787732783791449,0.008549669873819422,0.28713871673583985,0.09502644006729127,-9.724274300384522
2026-09-11T16:26:49.126,4.243842304000054,-618.0316162109375,-55622.845458984375,-222491.3818359375,-423.35165710449223,-1.858330078125,-0.04332840070128441,-0.02967995448037982,-0.0663921673236842,1.078627000570398,0.0,0.041471511125564575,339.734619140625,14.929744005203247,0.0,0.0,0.0,1,1789158409.0445714,38.99079638333333,-76.93789984833333,-7.100000000000001,0,1,10.310521,12.208036000000002,64.49696100000001,1,1,1789158409.1215577,0.24459027331031732,0.9597389825971414,0.12261638315620312,-0.06357598656001415,168.0106869043682,-10.487106475886463,152.50924828730896,0.0007536331710111515,0.0005660102764217611,0.0058056632238339375,0.3382313640785217,-0.06423355855941773,-9.79262665201187
2026-09-11T16:26:49.159,4.277251392000153,-618.0330810546875,-55622.977294921875,-222491.9091796875,-423.35266052246095,-1.8593334960937502,-0.04332840070128441,-0.02967995448037982,-0.0663921673236842,0.0,0.0,0.041471511125564575,339.734619140625,14.929744005203247,0.0,0.0,0.0,1,1789158409.0445714,38.99079638333333,-76.93789984833333,-7.100000000000001,0,1,10.310521,12.208036000000002,64.49696100000001,1,1,1789158409.1495578,0.24428195510569833,0.9598329631106922,0.12245274689053375,-0.06365794620351005,168.02804413411602,-10.487906421097062,152.5449749387576,0.0021725858528825414,0.013839588303689037,0.006793694113387928,0.3087133470916748,0.09875296712875367,-9.699757674980164
2026-09-11T16:26:49.192,4.310658719999992,-618.0344848632812,-55623.10363769531,-222492.41455078125,-423.35362213134766,-1.8602951049804688,-0.04332840070128441,-0.02967995448037982,-0.0663921673236842,0.0,0.0,0.041471511125564575,339.734619140625,14.929744005203247,0.0,0.0,0.0,1,1789158409.0445714,38.99079638333333,-76.93789984833333,-7.100000000000001,0,1,10.310521,12.208036000000002,64.49696100000001,1,1,1789158409.1815577,0.24389768195659317,0.9598884522021355,0.12264193470497185,-0.06392992974351479,168.00937866828477,-10.518638382714839,152.5946329393658,-0.001173035790265389,0.02105861915578798,0.009044121650909417,0.3137147386741638,0.03550007358551025,-9.657098746776581
2026-09-11T16:26:49.227,4.344076576000134,-618.0359497070312,-55623.23547363281,-222492.94189453125,-423.35462554931644,-1.861298522949219,-0.04332840070128441,-0.02967995448037982,-0.0663921673236842,0.0,0.0,0.041471511125564575,339.734619140625,14.929744005203247,0.0,0.0,0.0,1,1789158409.0445714,38.99079638333333,-76.93789984833333,-7.100000000000001,0,1,10.310521,12.208036000000002,64.49696100000001,1,1,1789158409.2215576,0.24345969699464337,0.9599686194811399,0.12266741922420085,-0.0643453946419251,168.0123667213345,-10.560185179125707,152.6501553018584,0.0019956094667303165,0.008107927040139658,0.00634374823222379,0.3456844182014465,0.08531785640716552,-9.708583660125733
2026-09-11T16:26:49.260,4.37749359999998,-618.0374145507812,-55623.36730957031,-222493.46923828125,-423.3556289672852,-1.8623019409179689,-0.04332840070128441,-0.02967995448037982,-0.0663921673236842,0.0,0.0,0.041471511125564575,339.734619140625,14.929744005203247,0.0,0.0,0.0,1,1789158409.0445714,38.99079638333333,-76.93789984833333,-7.100000000000001,0,1,10.310521,12.208036000000002,64.49696100000001,1,1,1789158409.2495577,0.24308858566399938,0.9599700933243581,0.12331900849536684,-0.06448086217180687,167.93774557273903,-10.588513181021627,152.70181386260697,0.0009836675664240042,-0.0008161159582325485,0.007690444283062614,0.38481295234680174,0.15769093460083008,-9.735257748565674
2026-09-11T16:26:49.292,4.410897824000131,-618.0388793945312,-55623.49914550781,-222493.99658203125,-423.35663238525393,-1.863305358886719,-0.04332840070128441,-0.02967995448037982,-0.0663921673236842,0.0,0.0,0.041471511125564575,339.734619140625,14.929744005203247,0.0,0.0,0.0,1,1789158409.0445714,38.99079638333333,-76.93789984833333,-7.100000000000001,0,1,10.310521,12.208036000000002,64.49696100000001,1,1,1789158409.2805576,0.24262889910269894,0.9599403161445115,0.12464530998033506,-0.06410423902125302,167.77239647349717,-10.577048689783869,152.76679719607614,-0.00025778513051956246,-0.015784932287961916,0.007751356273957216,0.3490186792564392,0.2286910817718506,-9.749869657306672
2026-09-11T16:26:49.326,4.444304736000049,-618.0618286132812,-55625.56457519531,-222502.25830078125,-423.3723526000977,-1.8790255737304689,-0.6374496817588806,-0.43665303200483324,-0.9767650143272029,-12.182301600502496,0.0,0.04158022999763489,340.625244140625,14.96888279914856,0.0457763709127903,16.479493528604507,493.29592416816917,1,1789158409.0445714,38.99079638333333,-76.93789984833333,-7.100000000000001,0,1,10.310521,12.208036000000002,64.49696100000001,1,1,1789158409.3215578,0.24202400428695678,0.9599138805639316,0.12609657884839423,-0.06394822946987927,167.5968409164712,-10.591549947520127,152.8519586833604,0.0032815680595997382,-0.017482788584301998,0.0054663712172462395,0.45463630149841305,0.2711538769721985,-9.728981492462157
2026-09-11T16:26:49.360,4.477725215999953,-618.0724487304688,-55626.52038574219,-222506.08154296875,-423.3796273803711,-1.8863003540039065,-0.2727709412574768,-0.18684809476137162,-0.4179672842729318,7.47460650607583,0.0,0.04165652394294739,341.250244140625,14.99634861946106,0.0,0.0,-493.0956565750016,1,1789158409.0445714,38.99079638333333,-76.93789984833333,-7.100000000000001,0,1,10.310521,12.208036000000002,64.49696100000001,1,1,1789158409.3495576,0.24153769480212553,0.9599185346366766,0.12705581670188443,-0.06381824420076096,167.479153568558,-10.596900037547941,152.9183105006971,0.0010110692356803152,-0.01225622560627978,0.0030693360225572276,0.40011132659912113,0.35470653635025023,-9.6915200888443
2026-09-11T16:26:49.393,4.511147328000106,-618.0722045898438,-55626.49841308594,-222505.99365234375,-423.379460144043,-1.8861331176757814,-0.03833460807800293,-0.02625920653343201,-0.058740172095186075,4.804869549452905,0.0,0.04165652394294739,341.250244140625,14.99634861946106,0.0,0.0,0.0,1,1789158409.0445714,38.99079638333333,-76.93789984833333,-7.100000000000001,0,1,10.310521,12.208036000000002,64.49696100000001,1,1,1789158409.3815577,0.24088216007539043,0.9598973845528948,0.12837164013018396,-0.06398060718852579,167.32636277210455,-10.642156273235203,153.01073159136482,-0.00038885935734433666,0.00039374627924992076,-0.002598620723294357,0.40295525514602665,0.36029632694244385,-9.728000827445983
2026-09-11T16:26:49.427,4.544569440000032,-618.0722045898438,-55626.49841308594,-222505.99365234375,-423.379460144043,-1.8861331176757814,0.0,0.0,0.0,0.785683637631591,0.0,0.04165652394294739,341.250244140625,14.99634861946106,0.0,0.0,0.0,1,1789158409.0445714,38.99079638333333,-76.93789984833333,-7.100000000000001,0,1,10.310521,12.208036000000002,64.49696100000001,1,1,1789158409.4215577,0.23987645197583957,0.9601367898044666,0.1289411120317948,-0.06301446087574303,167.22640930523562,-10.536675477618527,153.12794497486973,0.0011728612573401894,0.01702673405075588,-0.005854881508740178,0.2433029905128479,0.43884759473800655,-9.720449706821443
2026-09-11T16:26:49.460,4.577976479999961,-618.0722045898438,-55626.49841308594,-222505.99365234375,-423.379460144043,-1.8861331176757814,0.0,0.0,0.0,0.0,0.0,0.03547099232673645,290.578369140625,12.769557237625122,-0.2899170219898224,-104.37012791633606,-3124.1956161502944,1,1789158409.0445714,38.99079638333333,-76.93789984833333,-7.100000000000001,0,1,10.310521,12.208036000000002,64.49696100000001,1,1,1789158409.4485579,0.23915530910178326,0.9603284927982474,0.129361830379093,-0.061963222069611974,167.14454458173867,-10.421326324478988,153.20887578725564,-0.00047595128701885363,0.007648556381014751,-0.0022149973537060035,0.269682879447937,0.38981434392929076,-9.690931689834594
2026-09-11T16:26:49.493,4.611390560000018,-618.0729370117188,-55626.56433105469,-222506.25732421875,-423.3799618530274,-1.8866348266601565,-0.026048483327031136,-0.01784321107901633,-0.03991412642943878,-0.5340027640738865,0.0,0.015966445207595825,130.797119140625,5.747920274734497,-0.6866455674171448,-247.19240427017212,-4274.3141919093105,1,1789158409.0445714,38.99079638333333,-76.93789984833333,-7.100000000000001,0,1,10.310521,12.208036000000002,64.49696100000001,1,1,1789158409.4895577,0.23863105453587624,0.960102868254559,0.1299779397849357,-0.06605631952908363,167.1702408655038,-10.887153485209758,153.3119349671966,0.002675066144531709,0.0621459386757621,-0.025531025364023453,0.7898276040267944,0.29057104429244995,-9.720253573818207
2026-09-11T16:26:49.527,4.64481654400015,-618.0737915039062,-55626.64123535156,-222506.56494140625,-423.3805471801758,-1.887220153808594,-0.026048483327031136,-0.01784321107901633,-0.03991412642943878,0.0,0.0,0.005208998918533325,42.672119140625,1.875239610671997,-0.6561279892921448,-236.20607614517212,328.6762814508771,1,1789158409.0445714,38.99079638333333,-76.93789984833333,-7.100000000000001,0,1,10.310521,12.208036000000002,64.49696100000001,1,1,1789158409.5215578,0.23743343822656016,0.9605134472733847,0.12941641702740037,-0.06550321383491768,167.20724064252983,-10.794615737471217,153.44397702752534,0.0017243853009703976,0.05846207222357766,-0.03341467759528184,0.17495063888549806,0.36529771852493287,-9.699365408973694
2026-09-11T16:26:49.560,4.67823555200016,-618.07470703125,-55626.7236328125,-222506.89453125,-423.38117431640626,-1.8878472900390626,-0.026048483327031136,-0.01784321107901633,-0.03991412642943878,0.0,0.0,-0.013444900512695312,-110.140625,-4.8401641845703125,-0.7629395127296448,-274.6582245826721,-1150.607116689061,1,1789158409.0445714,38.99079638333333,-76.93789984833333,-7.100000000000001,0,1,10.310521,12.208036000000002,64.49696100000001,1,1,1789158409.5495577,0.23655446375130543,0.9606549654622538,0.12975736060558915,-0.06593216499341793,167.169146320136,-10.839909831588198,153.55552494829712,0.0005105088062083414,0.049663343865498644,-0.028191954341614006,0.23535960388183594,0.27821466508865356,-9.571486690864562
2026-09-11T16:26:49.593,4.711638559999983,-618.0755615234375,-55626.800537109375,-222507.2021484375,-423.38175964355474,-1.8884326171875,-0.026048483327031136,-0.01784321107901633,-0.03991412642943878,0.0,0.0,-0.03431892395019531,-281.140625,-12.354812622070312,-0.6866455674171448,-247.19240427017212,822.2558972127792,1,1789158409.0445714,38.99079638333333,-76.93789984833333,-7.100000000000001,0,1,10.310521,12.208036000000002,64.49696100000001,1,1,1789158409.5895576,0.23570355067963664,0.960805171753964,0.12866879951160798,-0.0688592634297626,167.35526116895204,-11.12651476585159,153.66955702311387,0.0022729422848722157,0.03801414377306249,-0.039100960298279364,0.46973854274749755,0.17465643938064573,-9.660629140834809
2026-09-11T16:26:49.627,4.74506201600002,-618.107177734375,-55629.64599609375,-222518.583984375,-423.4034167480469,-1.9100897216796877,-0.866390585899353,-0.5934775513410568,-1.3275714731143884,-17.222466170506316,0.0,-0.06252288818359375,-512.1875,-22.50823974609375,-0.3662109971046448,-131.83595895767212,3451.361981010369,1,1789158409.0445714,38.99079638333333,-76.93789984833333,-7.100000000000001,0,1,10.310521,12.208036000000002,64.49696100000001,1,1,1789158409.6215577,0.2344422910542698,0.9613039020318589,0.12773666345395968,-0.06793353305398545,167.42474415783343,-10.982157244795761,153.8022758462389,0.004350058627670667,0.0398594803911961,-0.04490191113313292,0.3800076937675476,0.27674366756439206,-9.78115287132263
2026-09-11T16:26:49.661,4.778478623999945,-618.1143798828125,-55630.294189453125,-222521.1767578125,-423.4083502197266,-1.915023193359375,-0.2478276938199997,-0.1697619702666998,-0.37974671230024076,12.679790273007615,0.0,-0.08094406127929688,-663.09375,-29.139862060546875,-0.8544922471046448,-307.6172089576721,-5260.296018087614,1,1789158409.0445714,38.99079638333333,-76.93789984833333,-7.100000000000001,0,1,10.310521,12.208036000000002,64.49696100000001,1,1,1789158409.6495578,0.2334077726395254,0.9616634305025108,0.12714375998586916,-0.06751831160695596,167.47068132835878,-10.906828189141844,153.91571060692615,0.005080304386705095,0.02434036174831292,-0.04620968634165227,0.08443525789260864,0.284000588684082,-9.91060065345764
2026-09-11T16:26:49.694,4.811897920000092,-618.1143188476562,-55630.28869628906,-222521.15478515625,-423.40830841064457,-1.914981384277344,-0.04164009168744087,-0.028523462805897,-0.06380516912557482,4.226256216174631,0.0,-0.10210800170898438,-836.46875,-36.758880615234375,-0.6866455674171448,-247.19240427017212,1808.0813158731273,1,1789158409.0445714,38.99079638333333,-76.93789984833333,-7.100000000000001,0,1,10.310521,12.208036000000002,64.49696100000001,1,1,1789158409.6895578,0.23198052637604724,0.9617344177867204,0.12801303538345168,-0.06974674041591415,167.40891521881238,-11.159957729107795,154.11245284979086,0.010099522249590386,0.022720521669536982,-0.05353064442206768,0.6160537631607056,0.40069972560882566,-10.009255554084778
2026-09-11T16:26:49.727,4.8453051840001535,-618.1145629882812,-55630.31066894531,-222521.24267578125,-423.4084756469727,-1.9151486206054689,-0.01586664468050003,-0.010868651606142522,-0.02431248122347555,0.528472226870242,0.0,-0.13419151306152344,-1099.296875,-48.30894470214844,-1.0070801973342896,-362.54887104034424,-3453.035446720819,1,1789158409.0445714,38.99079638333333,-76.93789984833333,-7.100000000000001,0,1,10.310521,12.208036000000002,64.49696100000001,1,1,1789158409.7215576,0.23054824280354042,0.9621953784240284,0.1281314584652623,-0.06789617685264192,167.33494795781166,-10.937596137580975,154.26863673253558,0.009564404300928926,0.007186218662161453,-0.046409526541005615,0.15053207998275758,0.21741343408584593,-9.23178432926178
2026-09-11T16:26:49.761,4.878713984000115,-618.1151733398438,-55630.36560058594,-222521.46240234375,-423.408893737793,-1.9155667114257815,-0.02577344700694084,-0.017654811199754476,-0.03949268790209927,-0.20312491300555144,0.0,-0.1490650177001953,-1221.140625,-53.66340637207031,-1.0528565645217896,-379.02836322784424,-493.2680068580498,1,1789158409.0445714,38.99079638333333,-76.93789984833333,-7.100000000000001,0,1,10.310521,12.208036000000002,64.49696100000001,1,1,1789158409.7495577,0.22968086075304056,0.962329542156662,0.1275617009642061,-0.06997547387056538,167.43956767431098,-11.14402368964021,154.38274577933464,0.006193475383627078,0.026496541506226715,-0.06163438267200255,0.9236883787345885,0.0520733123588562,-9.777818610267639
2026-09-11T16:26:49.794,4.9121339200000875,-618.1160278320312,-55630.44250488281,-222521.77001953125,-423.4094790649414,-1.916152038574219,-0.02577344700694084,-0.017654811199754476,-0.03949268790209927,0.0,0.0,-0.1802196502685547,-1476.359375,-64.87907409667969,-0.47302258014678955,-170.28812885284424,6245.979476895735,1,1789158409.0445714,38.99079638333333,-76.93789984833333,-7.100000000000001,0,1,10.310521,12.208036000000002,64.49696100000001,1,1,1789158409.7895577,0.22776080138554974,0.9623101900793039,0.13109897232732537,-0.06997981763669701,167.0132446048446,-11.209850469181095,154.64831017050187,-0.000498291501444381,0.02454247087569386,-0.076332847500598,1.2222028096580506,0.9412422825241088,-10.518907162990569
2026-09-11T16:26:49.828,4.94558156800008,-618.1309204101562,-55631.78283691406,-222527.13134765625,-423.4196804809571,-1.926353454589844,-0.8588284850120544,-0.5882975122332573,-1.3159840556398905,-17.060772136612936,0.0,-0.20828628540039062,-1706.28125,-74.98306274414062,-0.7934571504592896,-285.64457416534424,-3448.8656814532133,1,1789158409.0445714,38.99079638333333,-76.93789984833333,-7.100000000000001,0,1,10.310521,12.208036000000002,64.49696100000001,1,1,1789158409.8215578,0.22631439871690626,0.9625642090208714,0.13050038027260824,-0.07226055074613037,167.11795105734953,-11.430496160443113,154.8329493469685,-0.00855001893966982,0.009195790762907724,-0.0882126055872226,0.9977285874557494,0.3772618317222595,-9.712800519695282
2026-09-11T16:26:49.861,4.978999680000015,-618.1561889648438,-55634.05700683594,-222536.22802734375,-423.436989440918,-1.9436624145507815,-0.5431918501853943,-0.3720864173769951,-0.8323336108111012,6.469877617762431,0.0,-0.22392654418945312,-1834.40625,-80.61355590820312,-1.0375977754592896,-373.53519916534424,-2630.0296378254125,1,1789158409.0445714,38.99079638333333,-76.93789984833333,-7.100000000000001,0,1,10.310521,12.208036000000002,64.49696100000001,1,1,1789158409.8495576,0.22450584727809947,0.9631308532458759,0.13071325565281933,-0.06992945631459174,167.01890487084518,-11.150933306282827,155.02990114759874,0.011639426248624985,-0.031184495877083485,-0.10552784256333314,-0.35813886390686034,0.7016658190727234,-9.645526899585725
2026-09-11T16:26:49.895,5.012402176000023,-618.1595458984375,-55634.359130859375,-222537.4365234375,-423.4392889404297,-1.9459619140625002,-0.22755521535873413,-0.15587532252073288,-0.3486831659823119,6.472902350058247,0.0,-0.25224876403808594,-2066.421875,-90.80955505371094,-0.5645753145217896,-203.24711322784424,5098.064705627382,1,1789158409.0445714,38.99079638333333,-76.93789984833333,-7.100000000000001,0,1,10.310521,12.208036000000002,64.49696100000001,1,1,1789158409.8895578,0.22244816099864492,0.9634713034926381,0.13213780953911325,-0.06913365536931071,166.81424345596483,-11.06977085318635,155.28186293562894,0.008919156076466622,-0.05347182682627547,-0.10037650327607188,1.2137690905189515,0.6464543786621094,-9.628365261802674
2026-09-11T16:26:49.928,5.045810144000143,-618.1671142578125,-55635.040283203125,-222540.1611328125,-423.4444732666016,-1.951146240234375,-0.22755521535873413,-0.15587532252073288,-0.3486831659823119,0.0,0.0,-0.2738227844238281,-2243.15625,-98.57620239257812,-0.6713868379592896,-241.69926166534424,-1150.9873464127588,1,1789158409.0445714,38.99079638333333,-76.93789984833333,-7.100000000000001,0,1,10.310521,12.208036000000002,64.49696100000001,1,1,1789158409.9215577,0.22029374789842016,0.9636233639558989,0.13460803405466643,-0.06914733720919583,166.50711882103604,-11.102839395763187,155.5632934796082,0.009379224867292328,-0.04483279609475394,-0.13632854053790308,0.7441286142730713,1.5103221914100649,-9.735846147575378
2026-09-11T16:26:49.961,5.079232960000127,-618.1965942382812,-55637.69348144531,-222550.77392578125,-423.4646670532227,-1.9713400268554688,-0.6666883230209351,-0.45668150126934054,-1.0215674240992754,-9.00002497541658,0.0,-0.28516578674316406,-2336.078125,-102.65968322753906,-0.7171632051467896,-258.17875385284424,-493.0611528217118,1,1789158409.0445714,38.99079638333333,-76.93789984833333,-7.100000000000001,0,1,10.310521,12.208036000000002,64.49696100000001,1,1,1789158409.9495578,0.217992384549139,0.9641200840610091,0.13529766695109702,-0.06816395753155002,166.38027425259466,-10.977541230194728,155.83361417108273,0.009204168343317297,-0.01914102590662181,-0.1391510870042283,1.008319769630432,0.6244874822998047,-9.996703041877746
2026-09-11T16:26:49.995,5.112647680000009,-618.2111206054688,-55639.00085449219,-222556.00341796875,-423.47461761474614,-1.9812905883789065,-0.5103974342346191,-0.34962224245071416,-0.782082682647445,3.203954988071217,0.0,-0.3138694763183594,-2571.21875,-112.99301147460938,-0.5645753145217896,-203.24711322784424,1643.9353861170546,1,1789158409.0445714,38.99079638333333,-76.93789984833333,-7.100000000000001,0,1,10.310521,12.208036000000002,64.49696100000001,1,1,1789158409.9895577,0.21456676669538313,0.9647796803654289,0.13557853330710465,-0.06913560797565974,166.33080169758287,-11.045154696152723,156.2508742716264,0.0033126349202852374,0.016271355550492736,-0.15574864459191878,0.8561205591201783,0.6805815212249756,-10.30512218946457
2026-09-11T16:26:50.028,5.146055552000007,-618.2391967773438,-55641.52770996094,-222566.11083984375,-423.4938497924805,-2.0005227661132814,-0.7209700345993042,-0.4938644737005234,-1.1047433645770464,-4.317612066096819,0.0,-0.33407020568847656,-2736.703125,-120.26527404785156,-0.9460450410842896,-340.57621479034424,-4110.680906659018,1,1789158409.0445714,38.99079638333333,-76.93789984833333,-7.100000000000001,0,1,10.310521,12.208036000000002,64.49696100000001,1,1,1789158410.0215578,0.21171826756812434,0.9651265403064087,0.13671384963596828,-0.07081991027845527,166.20416344039333,-11.220772879276833,156.61594673533568,0.012064588454410803,0.05367498315120761,-0.17637704008709018,1.4725665882873533,0.42041109243392943,-9.633955052394867
2026-09-11T16:26:50.061,5.179462719999947,-618.2562866210938,-55643.06579589844,-222572.26318359375,-423.5055563354492,-2.0122293090820316,-0.5921027064323425,-0.40559035390615467,-0.9072797823598654,2.642370637179663,0.0,-0.3482322692871094,-2852.71875,-125.36361694335938,0.0915527492761612,32.95898973941803,11181.289133231421,1,1789158409.0445714,38.99079638333333,-76.93789984833333,-7.100000000000001,0,1,10.310521,12.208036000000002,64.49696100000001,1,1,1789158410.0495577,0.20859336845521312,0.9655700735989213,0.13795481802317822,-0.07163593924053144,166.04276490955226,-11.296834036475136,157.00653253481494,0.012595517612867478,0.09438321715764855,-0.1959800546467149,0.6048741819763184,0.9278071718025207,-9.147545204372406
2026-09-11T16:26:50.095,5.212878016000104,-618.287841796875,-55645.90576171875,-222583.623046875,-423.5271716308594,-2.0338446044921876,-0.9063889980316162,-0.6208764636516572,-1.3888610944247863,-6.442741364448424,0.0,-0.3608417510986328,-2956.015625,-129.9030303955078,-0.3662109971046448,-131.83595895767212,-4931.7219484248635,1,1789158409.0445714,38.99079638333333,-76.93789984833333,-7.100000000000001,0,1,10.310521,12.208036000000002,64.49696100000001,1,1,1789158410.0895576,0.20384446295573994,0.9661510587665233,0.13994730006184183,-0.07358206148249055,165.79803329978708,-11.492387554090412,157.6086320061869,0.009771051284365055,0.05729025816378867,-0.2089338883550168,1.228479065761566,0.6904862378883362,-9.492052824554444
2026-09-11T16:26:50.128,5.246300448000056,-618.3143310546875,-55648.289794921875,-222593.1591796875,-423.545316772461,-2.05198974609375,-0.8030636310577393,-0.5500985872745514,-1.2305354940822986,2.117675828533579,0.0,-0.37418365478515625,-3065.3125,-134.70611572265625,-0.4577637314796448,-164.79494333267212,-986.1336354891002,1,1789158409.0445714,38.99079638333333,-76.93789984833333,-7.100000000000001,0,1,10.310521,12.208036000000002,64.49696100000001,1,1,1789158410.1215577,0.1998290548344396,0.9671770197323902,0.13816433846695095,-0.07448205771550734,165.9745413490837,-11.495628446798042,158.0714510960239,0.012663236387844858,0.07716659128427568,-0.23723056245175045,0.7326548335838318,0.6538093662834167,-9.562170373210908
2026-09-11T16:26:50.161,5.279721152000093,-618.3472900390625,-55651.256103515625,-222605.0244140625,-423.5678936767578,-2.0745666503906253,-1.0127246379852295,-0.6937163770198822,-1.5517993401482673,-4.297270031929129,0.0,-0.3796672821044922,-3110.234375,-136.6802215576172,-0.0457763709127903,-16.479493528604507,4437.83140546368,1,1789158409.0445714,38.99079638333333,-76.93789984833333,-7.100000000000001,0,1,10.310521,12.208036000000002,64.49696100000001,1,1,1789158410.1495578,0.19559727241134822,0.9679416833586998,0.13940462504562645,-0.07346397183555921,165.7626259652174,-11.347089344948307,158.5732325767799,0.004309392456099199,0.07065598957556124,-0.25292875187588826,0.36284605598449704,0.9956691909217834,-9.479892578353882
2026-09-11T16:26:50.195,5.313125440000022,-618.3800048828125,-55654.200439453125,-222616.8017578125,-423.5903033447266,-2.096976318359375,-0.9869511723518372,-0.6760615530610085,-1.512306623704831,0.5285196906131148,0.0,-0.38437652587890625,-3148.8125,-138.37554931640625,-0.061035171151161194,-21.97266161441803,-164.44499837341942,1,1789158409.0445714,38.99079638333333,-76.93789984833333,-7.100000000000001,0,1,10.310521,12.208036000000002,64.49696100000001,1,1,1789158410.1895578,0.18943970324106832,0.9687632504857493,0.14026624518711295,-0.07704377849852745,165.6581335401566,-11.678413553096634,159.34542862132335,0.007098428600786138,0.06324427437404212,-0.28098491960169714,0.9193734526634216,0.629783073387146,-9.676613980598448
2026-09-11T16:26:50.228,5.346532160000152,-618.4176635742188,-55657.58972167969,-222630.35888671875,-423.6160995483399,-2.1227725219726565,-1.144769549369812,-0.7841671413183213,-1.7541319374515043,-3.236043175052569,0.0,-0.3865623474121094,-3166.71875,-139.16244506835938,-0.1220703274011612,-43.94531786441803,-657.7316255506224,1,1789158409.0445714,38.99079638333333,-76.93789984833333,-7.100000000000001,0,1,10.310521,12.208036000000002,64.49696100000001,1,1,1789158410.2215576,0.1839948005962664,0.9695248505786231,0.1412135593949563,-0.07890632488619509,165.51697056752803,-11.827649636803727,160.0167439077494,0.017288009839779434,0.05696213626441373,-0.3112080881267821,0.9441842775726319,0.8797545860099792,-9.478127381324768
2026-09-11T16:26:50.262,5.379954528000098,-618.455322265625,-55660.97900390625,-222643.916015625,-423.64189575195314,-2.1485687255859376,-1.1187210083007812,-0.7663238906860352,-1.7142177225439208,0.5338715267665801,0.0,-0.3882274627685547,-3180.359375,-139.7618865966797,-0.0762939527630806,-27.465822994709015,493.0678421629265,1,1789158409.0445714,38.99079638333333,-76.93789984833333,-7.100000000000001,0,1,10.310521,12.208036000000002,64.49696100000001,1,1,1789158410.2495577,0.17930039638656775,0.9705591706540987,0.14030432163521134,-0.07861909084523472,165.56142034170477,-11.707893594274742,160.55460751559175,0.0184976975443367,0.06476672508055678,-0.3241046750356186,0.5684915098762512,0.7887488725090027,-10.046030492191315
2026-09-11T16:26:50.295,5.41337254400014,-618.4966430664062,-55664.69787597656,-222658.79150390625,-423.6702005004883,-2.176873474121094,-1.1979905366897583,-0.8206235176324845,-1.8356825287054483,-1.6248608818184158,0.0,-0.3894367218017578,-3190.265625,-140.1972198486328,0.0,0.0,821.8867031087344,1,1789158409.0445714,38.99079638333333,-76.93789984833333,-7.100000000000001,0,1,10.310521,12.208036000000002,64.49696100000001,1,1,1789158410.2895577,0.1727248891970433,0.9717993359000915,0.13883796433962148,-0.08059890231287606,165.68615504849603,-11.806872510748887,161.33103404484848,0.013522287445676467,0.04732442813490104,-0.3266083498476045,0.8111080348777772,0.030106415996551512,-10.351801844234467
2026-09-11T16:26:50.328,5.4467781759999525,-618.5380249023438,-55668.42224121094,-222673.68896484375,-423.6985470581055,-2.2052200317382815,-1.2771698236465454,-0.8748613291978836,-1.9570090577976975,-1.6236127957616049,0.0,-0.39005470275878906,-3195.328125,-140.41969299316406,-0.015258791856467724,-5.493165068328381,-164.43829197301804,1,1789158409.0445714,38.99079638333333,-76.93789984833333,-7.100000000000001,0,1,10.310521,12.208036000000002,64.49696100000001,1,1,1789158410.3215578,0.16724407474482744,0.9731753835098889,0.13667330504078273,-0.07924329676607739,165.8509874911158,-11.534085026420394,161.93370169945157,0.029110870192789018,0.028841740422131494,-0.33639231656843427,-0.5653533818244935,0.32077552679061894,-10.664535917892456
2026-09-11T16:26:50.362,5.480184640000061,-618.5755615234375,-55671.800537109375,-222687.2021484375,-423.7242596435547,-2.2309326171875004,-1.1215301752090454,-0.7682481700181961,-1.7185222128180817,3.191393114199102,0.0,-0.3901691436767578,-3196.265625,-140.4608917236328,0.0,0.0,164.43419657676088,1,1789158409.0445714,38.99079638333333,-76.93789984833333,-7.100000000000001,0,1,10.310521,12.208036000000002,64.49696100000001,1,1,1789158410.3495576,0.16265964538768357,0.974223948312567,0.1351675400256146,-0.07848104497297397,165.96090589848072,-11.35508526021484,162.44497007464696,0.020596630502785082,-0.021347471146993043,-0.33839438375339703,0.8145403624343872,-0.12817291761398317,-9.217074354019166
2026-09-11T16:26:50.396,5.513599296000166,-618.6167602539062,-55675.50842285156,-222702.03369140625,-423.7524807739258,-2.259153747558594,-1.1755136251449585,-0.8052268332242967,-1.8012411265754649,-1.1066599999109639,0.0,-0.389495849609375,-3190.75,-140.218505859375,0.0,0.0,0.0,1,1789158409.0445714,38.99079638333333,-76.93789984833333,-7.100000000000001,0,1,10.310521,12.208036000000002,64.49696100000001,1,1,1789158410.3895578,0.15616395891722443,0.9757355901108749,0.1322855732097255,-0.07780361975420233,166.21145734829403,-11.136555132843682,163.16488276405585,0.02571236507330566,-0.05697976408985887,-0.3268978999705103,0.3974635310554504,-0.04050146516799927,-9.028296338405609
2026-09-11T16:26:50.429,5.547020384000007,-618.6570434570312,-55679.13391113281,-222716.53564453125,-423.7800747680664,-2.286747741699219,-1.2281197309494019,-0.8412620157003403,-1.8818495340469295,-1.0782169173012919,0.0,-0.389251708984375,-3188.75,-140.130615234375,0.0,0.0,0.0,1,1789158409.0445714,38.99079638333333,-76.93789984833333,-7.100000000000001,0,1,10.310521,12.208036000000002,64.49696100000001,1,1,1789158410.4215577,0.15048488615367878,0.9768757799003126,0.13170532297543824,-0.07564203582272161,166.18515606347458,-10.802552016357865,163.79768660836805,0.026406482516823808,-0.060756482058249406,-0.33679985094877496,0.04207052919387818,0.48140845643997193,-9.555403784599305
2026-09-11T16:26:50.462,5.580423999999994,-618.69775390625,-55682.7978515625,-222731.19140625,-423.8079614257813,-2.3146343994140626,-1.2018539905548096,-0.8232699835300447,-1.841602504317385,0.5386252844692841,0.0,-0.3892688751220703,-3188.890625,-140.1367950439453,-0.0457763709127903,-16.479493528604507,-493.3445986389912,1,1789158409.0445714,38.99079638333333,-76.93789984833333,-7.100000000000001,0,1,10.310521,12.208036000000002,64.49696100000001,1,1,1789158410.4495578,0.14534676712763855,0.9777613277031265,0.131511236372668,-0.07457813380271543,166.13780076274134,-10.606840216205411,164.38255215498532,0.01260459332497785,-0.05581039349102268,-0.34607051633659325,1.56739689535141,0.7617805845642089,-10.017983472728728
2026-09-11T16:26:50.496,5.61382966400015,-618.742919921875,-55686.86279296875,-222747.451171875,-423.83890014648443,-2.3455731201171877,-1.3584437370300293,-0.9305339598655702,-2.081545185812386,-3.2109517815608632,0.0,-0.39502716064453125,-3236.0625,-142.20977783203125,-0.3356933891773224,-120.84962010383606,-3124.3242635363617,1,1789158409.0445714,38.99079638333333,-76.93789984833333,-7.100000000000001,0,1,10.310521,12.208036000000002,64.49696100000001,1,1,1789158410.4895577,0.1380094688476611,0.9786051478061746,0.13191696148814835,-0.07670245411573252,166.03953835018095,-10.75060514802539,165.26546449224202,0.0064613834238082075,0.010138094026059462,-0.37463858913201203,0.8282696726608276,0.6255662138175965,-10.236965970840453
2026-09-11T16:26:50.529,5.647240160000138,-618.7893676757812,-55691.04309082031,-222764.17236328125,-423.87071685791017,-2.377389831542969,-1.4113199710845947,-0.9667541801929475,-2.162567511168903,-1.0840970552305063,0.0,-0.4110393524169922,-3367.234375,-147.9741668701172,-0.4882813096046448,-175.78127145767212,-1644.1435456048393,1,1789158410.5165823,38.99079584166667,-76.937898735,-7.102,0,1,10.310521,12.215025,64.49696100000001,1,1,1789158410.5215578,0.13149747417290025,0.9793891273419135,0.1323248152394821,-0.07743058053785522,165.93072693227228,-10.746854237355025,166.03583849910905,0.02362983820982603,0.05569799428719424,-0.40642312920593116,1.5176771790313721,0.6729323340988159,-8.808137042274474
