timestamp,time_s,drive_pos_turns,drive_encoder_count,drive_wheel_angle_deg,drive_distance_m,drive_distance_since_start_m,drive_velocity_turns_s,drive_velocity_mps,drive_velocity_mph,drive_acceleration_mps2,drive_iq_A,steer_pos_turns,steer_encoder_count,steer_angle_deg,steer_velocity_turns_s,steer_velocity_deg_s,steer_acceleration_deg_s2,gps_received,gps_ros_stamp_s,gps_latitude_deg,gps_longitude_deg,gps_altitude_m,gps_status,gps_service,gps_cov_x_m2,gps_cov_y_m2,gps_cov_z_m2,gps_covariance_type,imu_received,imu_ros_stamp_s,imu_qx,imu_qy,imu_qz,imu_qw,imu_roll_deg,imu_pitch_deg,imu_yaw_deg,imu_gyro_x_rad_s,imu_gyro_y_rad_s,imu_gyro_z_rad_s,imu_accel_x_mps2,imu_accel_y_mps2,imu_accel_z_mps2
2026-09-11T16:35:57.031,9.503999990556622e-06,-1780.6729736328125,-160260.56762695312,-641042.2705078125,-1219.7609869384767,-0.0086126708984375,-2.77384352684021,-1.900082815885544,-4.250364208763291,0.0,0.0,0.14852720499038696,1216.73486328125,53.46979379653931,0.0,0.0,0.0,0,nan,nan,nan,nan,-999,-999,nan,nan,nan,-999,1,1789158957.021727,0.8358014058553387,-0.5430079475374648,-0.04203891092324104,0.06936215718803095,170.7000495276924,-0.28969118913077646,-65.99882379446154,-0.027202352655733224,-0.00767316552346787,-0.14489252211158885,-0.9715448315238954,1.8251156616020203,-10.358470366344452
2026-09-11T16:35:57.065,0.03342508800005817,-1780.7669677734375,-160269.02709960938,-641076.1083984375,-1219.8253729248047,-0.0729986572265625,-2.774998188018799,-1.9008737587928775,-4.252133497657649,-0.023669881314412805,0.0,0.14871221780776978,1218.25048828125,53.53639841079712,0.0,0.0,0.0,1,1789158957.0382075,38.990756186666665,-76.937885705,-5.329000000000001,0,1,11.390625,11.048976,102.35368900000002,1,1,1789158957.060727,0.837129501977656,-0.5412743219452698,-0.040619725820701884,0.06772254569624953,170.9462984729928,-0.303956012212517,-65.74803810564028,-0.03947603155453295,-0.01057303007565645,-0.1483861476753059,-0.1453345553970337,1.0698074661445618,-8.90071181980133
2026-09-11T16:35:57.098,0.06684016000008342,-1780.8665771484375,-160277.99194335938,-641111.9677734375,-1219.8936053466798,-0.14123107910156252,-2.933001756668091,-2.0091062033176423,-4.49424258079286,-3.239030714184399,0.0,0.1488075852394104,1219.03173828125,53.570730686187744,0.015258789993822575,5.493164397776127,164.39181689544097,1,1789158957.0382075,38.990756186666665,-76.937885705,-5.329000000000001,0,1,11.390625,11.048976,102.35368900000002,1,1,1789158957.092727,0.8380020310348628,-0.5402312223297245,-0.03957464271570126,0.06585339820769243,171.19156845741406,-0.2764452830156522,-65.59568850754462,-0.020805022815473206,-0.008800648220256207,-0.14402422080872168,0.15043401348114013,1.3391961460876463,-9.784585198879242
2026-09-11T16:35:57.132,0.10025033600004463,-1780.9666748046875,-160287.00073242188,-641148.0029296875,-1219.962172241211,-0.20979797363281252,-3.0644428730010986,-2.0991433680057527,-4.695649982117373,-2.694902435958881,0.0,0.14895635843276978,1220.25048828125,53.62428903579712,0.0,0.0,-164.41590723085397,1,1789158957.0382075,38.990756186666665,-76.937885705,-5.329000000000001,0,1,11.390625,11.048976,102.35368900000002,1,1,1789158957.121727,0.8389199410197992,-0.539041251705406,-0.03730756330925574,0.06523808120362938,171.3913761112383,-0.44323977447372637,-65.41153077292215,-0.00561420060489016,-0.007416078524649106,-0.14440941497463683,0.9577174547958374,1.6057408974838256,-10.411720476722719
2026-09-11T16:35:57.166,0.13365987199995288,-1781.072265625,-160296.50390625,-641186.015625,-1220.034501953125,-0.282127685546875,-3.1170597076416016,-2.135185899734497,-4.776274829398924,-1.078809706571299,0.0,0.14998823404312134,1228.70361328125,53.99576425552368,0.0915527418255806,32.958987057209015,986.5143609686623,1,1789158957.0382075,38.990756186666665,-76.937885705,-5.329000000000001,0,1,11.390625,11.048976,102.35368900000002,1,1,1789158957.160727,0.8404199989660385,-0.5368339039593032,-0.03693670012041552,0.06433712055999931,171.50044299286967,-0.4006160562476267,-65.10855545064679,-0.027954415030417578,0.019039971342931342,-0.14947278966759756,1.0313653975105286,1.2994792129325865,-8.687122979278564
2026-09-11T16:35:57.200,0.1670683840000038,-1781.180419921875,-160306.23779296875,-641224.951171875,-1220.1085876464845,-0.35621337890625004,-3.196371078491211,-2.1895141887664797,-4.8978037508197865,-1.626181047270227,0.0,0.15397650003433228,1261.37548828125,55.43154001235962,0.0610351637005806,21.972658932209015,-328.848172734639,1,1789158957.0382075,38.990756186666665,-76.937885705,-5.329000000000001,0,1,11.390625,11.048976,102.35368900000002,1,1,1789158957.193727,0.8417476215203311,-0.5350297146666354,-0.03587066717020134,0.06258946656881283,171.73475533954405,-0.37737286222177113,-64.85425996173531,0.009191951038553336,0.05618337035217386,-0.142817674696818,-0.4764070648574829,0.07109821367263794,-7.256724986686706
2026-09-11T16:35:57.233,0.20047696000006,-1781.287109375,-160315.83984375,-641263.359375,-1220.181669921875,-0.42929565429687505,-3.222839117050171,-2.2076447951793674,-4.938360762301729,-0.5426931819200305,0.0,0.15396124124526978,1261.25048828125,55.42604684829712,0.0,0.0,-657.6951658212565,1,1789158957.0382075,38.990756186666665,-76.937885705,-5.329000000000001,0,1,11.390625,11.048976,102.35368900000002,1,1,1789158957.232727,0.843244856796412,-0.5328175971601262,-0.034046468233072856,0.062324615071113705,171.87132705905114,-0.5154561053014302,-64.53815835011338,-0.031383463411810836,0.13996441043565766,-0.1410301084769254,1.5520004545974733,1.1509084629821777,-10.398775698509217
2026-09-11T16:35:57.266,0.23389244800000597,-1781.3968505859375,-160325.71655273438,-641302.8662109375,-1220.2568426513674,-0.5044683837890626,-3.2742271423339844,-2.2428455924987794,-5.017102703334773,-1.0534275997845326,0.0,0.15396124124526978,1261.25048828125,55.42604684829712,0.0,0.0,0.0,1,1789158957.0382075,38.990756186666665,-76.937885705,-5.329000000000001,0,1,11.390625,11.048976,102.35368900000002,1,1,1789158957.260727,0.8444060099270247,-0.5310734897050109,-0.032773312104593486,0.06217193052622737,171.96287243591027,-0.612375474274174,-64.29113520954327,-0.02885867011587584,0.11720915671400599,-0.14600796203653846,-0.7019600185775757,1.5584728437042237,-10.624917051239013
2026-09-11T16:35:57.299,0.2673016640001151,-1781.5084228515625,-160335.75805664062,-641343.0322265625,-1220.3332696533205,-0.5808953857421876,-3.352611541748047,-2.296538906097412,-5.137211225164212,-1.6071407841015306,0.0,0.15396124124526978,1261.25048828125,55.42604684829712,0.0,0.0,0.0,1,1789158957.0382075,38.990756186666665,-76.937885705,-5.329000000000001,0,1,11.390625,11.048976,102.35368900000002,1,1,1789158957.292727,0.8456155493786119,-0.5291346291105343,-0.029933563017860015,0.06367785117465523,171.98737394642535,-0.9605365234914467,-64.00436685414961,-0.031206661558583815,0.1186202554142434,-0.14788785617386152,2.5599279582214356,0.44737938037872316,-9.084292310829163
2026-09-11T16:35:57.333,0.3007086719999279,-1781.6209716796875,-160345.88745117188,-641383.5498046875,-1220.410365600586,-0.6579913330078125,-3.3530406951904297,-2.2968328762054444,-5.137868817567649,-0.00879965389399356,0.0,0.15377432107925415,1259.71923828125,55.358755588531494,-0.0305175818502903,-10.986329466104507,-328.8630177885454,1,1789158957.0382075,38.990756186666665,-76.937885705,-5.329000000000001,0,1,11.390625,11.048976,102.35368900000002,1,1,1789158957.321727,0.8469500204352182,-0.5271956966421515,-0.028156885843454764,0.06282953211968646,172.1755262830778,-1.0630104412993637,-63.72883585618774,-0.025898766237418654,0.09320337458330039,-0.15822613946512473,-0.46728688020706177,1.0327383285331726,-10.101732265110016
2026-09-11T16:35:57.367,0.33412182400002166,-1781.7335205078125,-160356.01684570312,-641424.0673828125,-1220.4874615478516,-0.7350872802734375,-3.380038261413574,-2.3153262090682984,-5.17923722500961,-0.5534746576079427,0.0,0.15377622842788696,1259.73486328125,55.35944223403931,0.0,0.0,328.8025465563284,1,1789158957.0382075,38.990756186666665,-76.937885705,-5.329000000000001,0,1,11.390625,11.048976,102.35368900000002,1,1,1789158957.361727,0.8486892341263893,-0.5246261616171384,-0.02487503513676327,0.062251161047611456,172.42643089427258,-1.3233537339749482,-63.35784411721756,-0.006307445383782307,0.009282010027956243,-0.16407491232148294,-0.042462795200347896,-0.2829218571662903,-8.510309076862335
2026-09-11T16:35:57.400,0.3675318400000833,-1781.8436279296875,-160365.92651367188,-641463.7060546875,-1220.562885131836,-0.8105108642578126,-3.329127788543701,-2.2804525351524356,-5.101227038189945,1.0438089558472066,0.0,0.15384680032730103,1260.31298828125,55.38484811782837,-0.0915527418255806,-32.958987057209015,-986.5001877625017,1,1789158957.0382075,38.990756186666665,-76.937885705,-5.329000000000001,0,1,11.390625,11.048976,102.35368900000002,1,1,1789158957.392727,0.850189770686464,-0.5225603018744215,-0.023384017117675574,0.05967639791786744,172.76473581424435,-1.29541488355574,-63.07115719679205,0.013114927598260991,-0.0005599016240397809,-0.15704961301635534,0.9882161367988587,-0.6229184182739257,-9.298077284355163
2026-09-11T16:35:57.433,0.40094563200000266,-1781.9476318359375,-160375.28686523438,-641501.1474609375,-1220.6341278076172,-0.8817535400390626,-3.12202525138855,-2.138587297201157,-4.783883538835797,4.245709015954288,0.0,0.15377622842788696,1259.73486328125,55.35944223403931,0.0457763709127903,16.479493528604507,1479.5830591730764,1,1789158957.0382075,38.990756186666665,-76.937885705,-5.329000000000001,0,1,11.390625,11.048976,102.35368900000002,1,1,1789158957.421727,0.8514925841010937,-0.5207648119968862,-0.02122523657457233,0.05756630211367653,173.0977777744516,-1.3643841921283495,-62.81683842763723,0.01807951665555886,-0.003691720433818406,-0.15901799534675456,-0.05521144041061401,-1.7698061546897887,-8.981910883140564
2026-09-11T16:35:57.468,0.4343560960001014,-1782.0496826171875,-160384.47143554688,-641537.8857421875,-1220.7040325927735,-0.9516583251953126,-2.993338108062744,-2.05043660402298,-4.58669605409578,2.6384157124521326,0.0,0.15934187173843384,1305.32861328125,57.36307382583618,0.2899170219898224,104.37012791633606,2630.63195971992,1,1789158957.0382075,38.990756186666665,-76.937885705,-5.329000000000001,0,1,11.390625,11.048976,102.35368900000002,1,1,1789158957.460727,0.8531563264114504,-0.5184796229262492,-0.019072208051024702,0.05421636463681153,173.55100657901693,-1.356719566147683,-62.49928304498014,0.02279591989322314,0.023267856922962404,-0.1298901954602212,-0.6440027161216736,-1.5614148387527467,-9.57423255290985
2026-09-11T16:35:57.500,0.46776156800001445,-1782.1387939453125,-160392.49145507812,-641569.9658203125,-1220.7650738525392,-1.0126995849609375,-2.7341907024383545,-1.872920631170273,-4.189604132002216,5.3139788850511955,0.0,0.17052656412124634,1396.95361328125,61.38956308364868,0.4577637016773224,164.79493260383606,1808.8295440835939,1,1789158957.0382075,38.990756186666665,-76.937885705,-5.329000000000001,0,1,11.390625,11.048976,102.35368900000002,1,1,1789158957.492727,0.854119250301267,-0.5172079095980837,-0.01714991229282145,0.051789622728215814,173.9013595316009,-1.391041233636438,-62.31950426882743,-0.004569271981721155,0.0147738630522816,-0.09044296183834616,-0.7949270621109008,-2.0251713249015806,-10.195679973659516
2026-09-11T16:35:57.534,0.5011794879999343,-1782.2236328125,-160400.126953125,-641600.5078125,-1220.8231884765626,-1.070814208984375,-2.5527195930480957,-1.7486129212379458,-3.911535704272423,3.7197919539165074,0.0,0.19355016946792603,1585.56298828125,69.67806100845337,0.7171631455421448,258.1787323951721,2794.422866281327,1,1789158957.0382075,38.990756186666665,-76.937885705,-5.329000000000001,0,1,11.390625,11.048976,102.35368900000002,1,1,1789158957.533727,0.8549059967805169,-0.5163290705418709,-0.01653012568456634,0.04761073961755617,174.34737804311064,-1.1976956801528946,-62.20146769774725,0.0002483603525587931,-0.04091523005572747,-0.011655832343593731,-0.77472536277771,-1.7217535688972474,-10.585003985080718
2026-09-11T16:35:57.567,0.5345895360001123,-1782.3018798828125,-160407.16918945312,-641628.6767578125,-1220.8767877197267,-1.1244134521484377,-2.320277452468872,-1.5893900549411775,-3.555364296128256,4.7657179749014436,0.0,0.2243538498878479,1837.90673828125,80.76738595962524,0.7019044160842896,252.68558979034424,-164.41588484992945,1,1789158957.0382075,38.990756186666665,-76.937885705,-5.329000000000001,0,1,11.390625,11.048976,102.35368900000002,1,1,1789158957.560727,0.8548827040943205,-0.5166462914432313,-0.016406919036189495,0.04453071733172539,174.65772490895765,-1.0291607252080273,-62.245115220410476,0.021286210090248045,-0.06320238647199426,0.042252152262755124,0.719317789363861,-0.9882161367988587,-9.968950221920014
2026-09-11T16:35:57.601,0.5680038719999629,-1782.3768310546875,-160413.91479492188,-641655.6591796875,-1220.928129272461,-1.1757550048828125,-2.2691547870635986,-1.5543710291385653,-3.4770289663980036,1.0480239919407253,0.0,0.2274532914161682,1863.29736328125,81.88318490982056,0.0762939527630806,27.465822994709015,-6740.21374528112,1,1789158957.0382075,38.990756186666665,-76.937885705,-5.329000000000001,0,1,11.390625,11.048976,102.35368900000002,1,1,1789158957.592727,0.8546348708703326,-0.5172702957418773,-0.014350527250970066,0.04271698729053643,174.95845557194656,-1.1267101983213748,-62.31949097520978,0.017772862305983458,-0.018771190638124213,0.04892856025040903,0.9546773932456971,-0.08267006086349488,-9.889124089603424
2026-09-11T16:35:57.634,0.60141423999994,-1782.4532470703125,-160420.79223632812,-641683.1689453125,-1220.980474243164,-1.2280999755859376,-2.2959980964660645,-1.5727586960792543,-3.5181610059038397,-0.5503581086177098,0.0,0.22762876749038696,1864.73486328125,81.9463562965393,0.0,0.0,-822.0748419989819,1,1789158957.0382075,38.990756186666665,-76.937885705,-5.329000000000001,0,1,11.390625,11.048976,102.35368900000002,1,1,1789158957.631727,0.8542753640928125,-0.5177364955245047,-0.016658558032681556,0.04341677038160467,174.75344856285315,-0.9451311090967184,-62.392898366941125,0.0019743164498559856,0.06258890323991825,0.04017974830893706,0.8389589213371277,2.4684319122123717,-9.864901663703918
2026-09-11T16:35:57.668,0.634825888000023,-1782.5386962890625,-160428.48266601562,-641713.9306640625,-1221.0390069580078,-1.2866326904296876,-2.532285690307617,-1.734615697860718,-3.8802248073119094,-4.8443285940598155,0.0,0.22469907999038696,1840.73486328125,80.8916687965393,-0.0762939602136612,-27.46582567691803,-822.0434285926212,1,1789158957.0382075,38.990756186666665,-76.937885705,-5.329000000000001,0,1,11.390625,11.048976,102.35368900000002,1,1,1789158957.660727,0.853986450100958,-0.5179799741691887,-0.017901210798262013,0.04564467171101585,174.46128765737313,-0.9575297450825287,-62.43095280643531,-0.0004359832471481835,0.0360426198500097,0.04010714261205409,-0.28223539165496825,2.6265151128196718,-10.397206634483338
2026-09-11T16:35:57.701,0.668236927999942,-1782.629150390625,-160436.62353515625,-641746.494140625,-1221.1009680175782,-1.34859375,-2.7147645950317383,-1.859613747596741,-4.15983748120244,-3.7412199601187517,0.0,0.22408872842788696,1835.73486328125,80.6719422340393,-0.015258789993822575,-5.493164397776127,657.6467323134857,1,1789158957.0382075,38.990756186666665,-76.937885705,-5.329000000000001,0,1,11.390625,11.048976,102.35368900000002,1,1,1789158957.692727,0.8537509109584376,-0.5181095795456113,-0.019017593966110344,0.04806429798143247,174.15765401919083,-0.99313284439158,-62.45332408196823,-0.02884226402090709,0.008190132047908591,0.029325196624933925,1.3008521439552305,1.6989040740203858,-10.029947585926056
2026-09-11T16:35:57.735,0.7016510400001152,-1782.72412109375,-160445.1708984375,-641780.68359375,-1221.1660229492188,-1.413648681640625,-2.846205711364746,-1.9496509122848513,-4.361244882526953,-2.6945849911451702,0.0,0.22152334451675415,1814.71923828125,79.7484040260315,-0.01525880303233862,-5.493169091641903,-0.0001404755504511891,1,1789158957.0382075,38.990756186666665,-76.937885705,-5.329000000000001,0,1,11.390625,11.048976,102.35368900000002,1,1,1789158957.732727,0.8535339046485695,-0.5182056974590565,-0.019580865661065695,0.05058970682167187,173.87642693165142,-1.089022461555261,-62.4681006598079,-0.016443270481814178,-0.040169974465125886,0.009181828128891768,2.186784919567108,1.2608410112953186,-8.403024324092865
2026-09-11T16:35:57.768,0.735159552000141,-1782.8206787109375,-160453.86108398438,-641815.4443359375,-1221.2321649169924,-1.4797906494140627,-2.8467836380004883,-1.9500467920303346,-4.362130440296914,-0.011814303944113341,0.0,0.22005850076675415,1802.71923828125,79.2210602760315,-0.1068115383386612,-38.45215380191803,-983.6003672813268,1,1789158957.0382075,38.990756186666665,-76.937885705,-5.329000000000001,0,1,11.390625,11.048976,102.35368900000002,1,1,1789158957.761727,0.8534153765120203,-0.5183320544148761,-0.01769267610368863,0.05197158561358826,173.853092794466,-1.3568148835210092,-62.47295301249087,-0.0006644468462342413,-0.02809823016078191,0.015474263681106925,2.475394633827209,0.8381743893241883,-8.836478261241913
2026-09-11T16:35:57.802,0.7685687680000228,-1782.917724609375,-160462.59521484375,-641850.380859375,-1221.298641357422,-1.54626708984375,-2.9263651371002197,-2.0045601189136506,-4.484073279602828,-1.6316853075363666,0.0,0.21717649698257446,1779.10986328125,78.1835389137268,-0.1220703274011612,-43.94531786441803,-164.42062161888018,1,1789158957.0382075,38.990756186666665,-76.937885705,-5.329000000000001,0,1,11.390625,11.048976,102.35368900000002,1,1,1789158957.792727,0.8535564524952852,-0.5181807167340412,-0.01762362952112084,0.051181392040089,173.93453518929246,-1.3154487807354642,-62.45286355434177,-0.0009681341360812546,-0.044247936262410636,0.004365941123863815,1.0194012843132019,0.7377542916679383,-9.682988303203583
2026-09-11T16:35:57.834,0.8019814080000742,-1783.0157470703125,-160471.41723632812,-641885.6689453125,-1221.365786743164,-1.6134124755859376,-2.9265880584716797,-2.0047128200531006,-4.4844148623235025,-0.00457016085678203,0.0,0.2119331955909729,1736.15673828125,76.29595041275024,-0.2136230617761612,-76.90430223941803,-986.4226345164375,1,1789158957.0382075,38.990756186666665,-76.937885705,-5.329000000000001,0,1,11.390625,11.048976,102.35368900000002,1,1,1789158957.832727,0.8538762069204249,-0.517913220242549,-0.01820326989504859,0.048269664576302045,174.18560871512722,-1.083660536318199,-62.422248733134055,0.003947934768011174,-0.08674111849486618,-0.011260515268017015,-0.23869386493682862,-0.18485535554885862,-9.796941578083038
2026-09-11T16:35:57.870,0.8353951040000993,-1783.1136474609375,-160480.22827148438,-641920.9130859375,-1221.4328485107424,-1.6804742431640627,-2.9270548820495605,-2.005032594203949,-4.485130176726796,-0.00957015203730396,0.0,0.20370107889175415,1668.71923828125,73.3323884010315,-0.3356933891773224,-120.84962010383606,-1315.1887736210037,1,1789158957.0382075,38.990756186666665,-76.937885705,-5.329000000000001,0,1,11.390625,11.048976,102.35368900000002,1,1,1789158957.860727,0.8542616241142346,-0.5174035941759845,-0.018558777764972775,0.04675649759502477,174.31247464709395,-0.9555004881183622,-62.356889598506974,-0.005421865321320384,-0.06835093323245234,-0.032635388084266366,2.0189931352996826,0.3274440489006043,-8.425873818969727
2026-09-11T16:35:57.901,0.8688048960000287,-1783.21044921875,-160488.9404296875,-641955.76171875,-1221.499157714844,-1.7467834472656252,-2.9010751247406006,-1.9872364604473116,-4.445321359268319,0.5326622134215936,0.0,0.18783575296401978,1538.75048828125,67.62087106704712,-0.4425049424171448,-159.30177927017212,-1150.924829655248,1,1789158957.0382075,38.990756186666665,-76.937885705,-5.329000000000001,0,1,11.390625,11.048976,102.35368900000002,1,1,1789158957.892727,0.8550132731840021,-0.5163038799556758,-0.018857715483616654,0.04502213665113079,174.46398281616942,-0.8160921605505171,-62.21230401451979,-0.006995803240768871,-0.009558295648546945,-0.06641030163715983,-0.8750473939323425,-0.11022674781799316,-10.507041116294861
2026-09-11T16:35:57.934,0.9022171839999373,-1783.3056640625,-160497.509765625,-641990.0390625,-1221.5643798828125,-1.812005615234375,-2.874814510345459,-1.9692479395866396,-4.405082184114704,0.5383803964793209,0.0,0.17034155130386353,1395.43798828125,61.32295846939087,-0.7324219346046448,-263.6718964576721,-3123.7045840077026,1,1789158957.0382075,38.990756186666665,-76.937885705,-5.329000000000001,0,1,11.390625,11.048976,102.35368900000002,1,1,1789158957.932727,0.8562434653218498,-0.5142671994018189,-0.016466585789362012,0.04588275564393941,174.5183300264485,-1.0882944656323346,-61.92667843370032,-0.0016844172610997275,-0.009471727317648027,-0.11400159061469081,0.6854848463058472,0.660674021396637,-9.345737604141235
2026-09-11T16:35:57.968,0.9356293440000627,-1783.404541015625,-160506.40869140625,-642025.634765625,-1221.6321105957031,-1.8797363281250001,-2.9268958568573,-2.0049236619472506,-4.484886502208412,-1.067746663504459,0.0,0.1451016068458557,1188.67236328125,52.23657846450806,-0.22888195514678955,-82.39750385284424,5425.401787976225,1,1789158957.0382075,38.990756186666665,-76.937885705,-5.329000000000001,0,1,11.390625,11.048976,102.35368900000002,1,1,1789158957.960727,0.8574091309603307,-0.5122617135143152,-0.015216285809220131,0.04696790030861496,174.48224624827978,-1.2621303896354337,-61.65184809460214,0.05766253689323906,0.015276866942706366,-0.1732331785054728,0.33018991094589234,1.1608131796455383,-12.66322928735733
2026-09-11T16:35:58.001,0.9690427840000666,-1783.501708984375,-160515.15380859375,-642060.615234375,-1221.698670654297,-1.9462963867187502,-2.9273829460144043,-2.005257318019867,-4.485632869586312,-0.009985684581310873,0.0,0.14231306314468384,1165.82861328125,51.23270273208618,-0.4730224907398224,-170.28809666633606,-2630.3964157381447,1,1789158957.0382075,38.990756186666665,-76.937885705,-5.329000000000001,0,1,11.390625,11.048976,102.35368900000002,1,1,1789158957.992727,0.859083160538758,-0.5095543846722405,-0.015857048724334646,0.045596122047681105,174.57635006215642,-1.101427980210698,-61.29536140445083,0.10889423362457981,0.0159435827169682,-0.20826333285640058,-1.2304403957939147,-0.05295591087341309,-2.5897401747131346
2026-09-11T16:35:58.035,1.0024570880000283,-1783.603759765625,-160524.33837890625,-642097.353515625,-1221.7685754394531,-2.016201171875,-3.0586118698120117,-2.0951491308212282,-4.686715128000237,-2.690219518008338,0.0,0.13815122842788696,1131.73486328125,49.73444223403931,-0.015258789993822575,-5.493164397776127,4931.867869184071,1,1789158957.0382075,38.990756186666665,-76.937885705,-5.329000000000001,0,1,11.390625,11.048976,102.35368900000002,1,1,1789158958.032727,0.861313338007146,-0.5056476332399449,-0.016604772325048294,0.04673420916056075,174.415430779841,-1.0691016313591921,-60.77933365265782,0.05446125397923106,-0.08188212185731396,-0.22106130866249937,-0.30430035451889037,1.9896712513160704,-8.256905236682892
2026-09-11T16:35:58.068,1.0358665280000423,-1783.7105712890625,-160533.95141601562,-642135.8056640625,-1221.8417413330078,-2.0893670654296876,-3.163367986679077,-2.166907070875168,-4.847233068349959,-2.1478342664202033,0.0,0.13811689615249634,1131.45361328125,49.72208261489868,0.015258791856467724,5.493165068328381,328.83907859874046,1,1789158958.0386996,38.99074680333333,-76.93788653833333,-5.3679999999999986,0,1,11.689561,11.404129,74.839801,1,1,1789158958.061727,0.8628409176245025,-0.5029347200421067,-0.018615245157323344,0.047071125935193706,174.26279444086927,-0.8722712185335697,-60.43059727894165,0.014642439759606427,-0.08254447430844582,-0.21057921024087184,-1.193469324684143,1.8808174345207214,-12.354417873764039
2026-09-11T16:35:58.101,1.0692789760000778,-1783.821044921875,-160543.89404296875,-642175.576171875,-1221.9174157714845,-2.16504150390625,-3.346148729324341,-2.2921118795871736,-5.127308248897573,-3.7472503873967087,0.0,0.14128118753433228,1157.37548828125,50.86122751235962,0.1373291164636612,49.43848192691803,1315.2378675918312,1,1789158958.0386996,38.99074680333333,-76.93788653833333,-5.3679999999999986,0,1,11.689561,11.404129,74.839801,1,1,1789158958.0937269,0.8645739733372921,-0.4998249954149215,-0.02188133989638118,0.04698963237332498,174.0805607448687,-0.5235252174430728,-60.03881416028432,0.002654122193507777,-0.06957650343320275,-0.2189454460103067,-1.3014405429649352,2.00536189157486,-7.602703604393005
2026-09-11T16:35:58.135,1.1026904960001502,-1783.939697265625,-160554.57275390625,-642218.291015625,-1221.9986926269532,-2.246318359375,-3.529184103012085,-2.4174911105632786,-5.407773600937894,-3.7525748896139204,0.0,0.1454334855079651,1191.39111328125,52.35605478286743,0.12207034230232239,43.94532322883606,-164.40912290341967,1,1789158958.0386996,38.99074680333333,-76.93788653833333,-5.3679999999999986,0,1,11.689561,11.404129,74.839801,1,1,1789158958.132727,0.8664421348422588,-0.49621060036892584,-0.024359193112314312,0.04959533004644353,173.6777524461061,-0.40152033092022454,-59.57727806513768,0.016197179057282976,-0.08410287879755156,-0.20792264458641127,0.7503068038749694,2.1509906464767456,-11.780238506793975
2026-09-11T16:35:58.170,1.1361043199999585,-1784.0650634765625,-160565.85571289062,-642263.4228515625,-1222.0845684814453,-2.332194213867188,-3.6863927841186523,-2.525179057121277,-5.648664676810295,-3.222856101672659,0.0,0.14739996194839478,1207.50048828125,53.06398630142212,0.1068115308880806,38.452151119709015,-164.39818768299492,1,1789158958.0386996,38.99074680333333,-76.93788653833333,-5.3679999999999986,0,1,11.689561,11.404129,74.839801,1,1,1789158958.160727,0.8677510427094167,-0.4936846157189678,-0.026614284499346,0.05074749195500038,173.43378486806137,-0.22444910570402757,-59.26032007970644,0.004306774462221208,-0.07236920476931888,-0.2021562512707472,1.2545647551918029,2.002910229034424,-8.171979646282196
2026-09-11T16:35:58.204,1.1695144960001471,-1784.1944580078125,-160577.50122070312,-642310.0048828125,-1222.1732037353518,-2.4208294677734377,-3.843400001525879,-2.6327290010452273,-5.889247049582195,-3.2190774428528353,0.0,0.1530781388282776,1254.01611328125,55.10812997817993,0.1831054985523224,65.91797947883606,822.0797268165248,1,1789158958.0386996,38.99074680333333,-76.93788653833333,-5.3679999999999986,0,1,11.689561,11.404129,74.839801,1,1,1789158958.201727,0.8693878225442077,-0.49042271635054496,-0.029152388902330368,0.05291985941479329,173.07270055655997,-0.06971400298805921,-58.8505749651829,-0.03868225581072593,0.007780154206615123,-0.17440115284090738,-0.6532209672737121,2.6639765164375304,-10.145175725326538
2026-09-11T16:35:58.237,1.2029258560000926,-1784.3287353515625,-160589.58618164062,-642358.3447265625,-1222.2651837158205,-2.5128094482421877,-4.000889301300049,-2.740609171390534,-6.130568117820622,-3.2288470252477754,0.0,0.15789610147476196,1293.48486328125,56.84259653091431,0.04577639698982239,16.47950291633606,-1479.69063703425,1,1789158958.0386996,38.99074680333333,-76.93788653833333,-5.3679999999999986,0,1,11.689561,11.404129,74.839801,1,1,1789158958.232727,0.8704663249108529,-0.4881738135557371,-0.031607537800961004,0.054549688439099915,172.77145610300673,0.10124946847073829,-58.57544431495618,0.023977333263898098,0.07770345456218913,-0.15429722878596028,-1.1590479826164246,2.1886481830978393,-8.543945886917115
2026-09-11T16:35:58.271,1.2363362240000697,-1784.468017578125,-160602.12158203125,-642408.486328125,-1222.3605920410157,-2.6082177734375,-4.185065269470215,-2.866769709587097,-6.41278120433763,-3.77608945213204,0.0,0.16094595193862915,1318.46923828125,57.940542697906494,0.09155276417732239,32.95899510383606,493.2448570309461,1,1789158958.0386996,38.99074680333333,-76.93788653833333,-5.3679999999999986,0,1,11.689561,11.404129,74.839801,1,1,1789158958.260727,0.8713881807504766,-0.48649911657264105,-0.02962374553856997,0.055889907162927084,172.74832673743578,-0.1577479396300017,-58.3395603704012,-0.011965279219972324,0.11364833597408716,-0.14110201604210756,0.27350747301101686,1.3457666016960144,-10.212743544940947
2026-09-11T16:35:58.302,1.2697477440001421,-1784.6107177734375,-160614.96459960938,-642459.8583984375,-1222.4583416748048,-2.705967407226563,-4.290199279785156,-2.9387865066528325,-6.57387819133149,-2.155448092920621,0.0,0.16497427225112915,1351.46923828125,59.390738010406494,0.2288818657398224,82.39747166633606,1479.683551134245,1,1789158958.0386996,38.99074680333333,-76.93788653833333,-5.3679999999999986,0,1,11.689561,11.404129,74.839801,1,1,1789158958.292727,0.8724292665282878,-0.4845131105044748,-0.028644253100311705,0.05739100468294447,172.65184318615297,-0.32276137754525397,-58.07143704911464,-0.009014101987775113,0.15635078318385684,-0.13380636523584608,-0.09061344749450684,0.9481069376373291,-9.541282208366395
2026-09-11T16:35:58.335,1.303161184000146,-1784.7554931640625,-160627.99438476562,-642511.9775390625,-1222.557512817383,-2.805138549804688,-4.34329891204834,-2.975159754753113,-6.655242830066906,-1.088581364273666,0.0,0.1745014786720276,1429.51611328125,62.82053232192993,0.4272461235523224,153.80860447883606,2137.1978704524786,1,1789158958.0386996,38.99074680333333,-76.93788653833333,-5.3679999999999986,0,1,11.689561,11.404129,74.839801,1,1,1789158958.332727,0.8734311828118423,-0.4825274705341871,-0.026675860455364048,0.05977965825221158,172.5200919286051,-0.6355147770981595,-57.795410187859716,0.005927138139772743,0.09321140309785957,-0.10650993933343035,0.5696683078956605,1.2531918241691589,-8.386254952316284
2026-09-11T16:35:58.368,1.336573344000044,-1784.90234375,-160641.2109375,-642564.84375,-1222.6581054687501,-2.9057312011718754,-4.4487504959106445,-3.0473940896987917,-6.816826435439308,-2.161917545764751,0.0,0.18923193216323853,1550.18798828125,68.12349557876587,0.4882813096046448,175.78127145767212,657.6248581026531,1,1789158958.0386996,38.99074680333333,-76.93788653833333,-5.3679999999999986,0,1,11.689561,11.404129,74.839801,1,1,1789158958.361727,0.8739521245335904,-0.4815608287177642,-0.026918498401944217,0.0598518730840408,172.4987132692842,-0.6069843621561263,-57.67106591476353,-0.023566133692128236,0.0315482224931991,-0.061765282365902126,-1.5699466243934632,0.48484078399658204,-8.483242722415923
2026-09-11T16:35:58.402,1.3699836480000158,-1785.0518798828125,-160654.66918945312,-642618.6767578125,-1222.7605377197267,-3.008163452148438,-4.448703289031982,-3.0473617529869084,-6.816754100274931,0.00096786643675327,0.0,0.2116604447364807,1733.92236328125,76.19776010513306,0.9002686142921448,324.0967011451721,4439.212216914434,1,1789158958.0386996,38.99074680333333,-76.93788653833333,-5.3679999999999986,0,1,11.689561,11.404129,74.839801,1,1,1789158958.392727,0.8741780849546527,-0.4813576459175788,-0.027931236303047096,0.05768308712513887,172.6607957629104,-0.3838067128036178,-57.65328566006208,-0.03013921818806408,-0.0036302848441482054,0.0056604518300680095,-3.5229410041046143,-0.33646616704940796,-6.469349045200348
2026-09-11T16:35:58.436,1.403396063999935,-1785.200439453125,-160668.03955078125,-642672.158203125,-1222.8623010253907,-3.1099267578125,-4.396850109100342,-3.0118423247337343,-6.737299402142383,1.0630607572125295,0.0,0.22590261697769165,1850.59423828125,81.324942111969,-0.015258791856467724,-5.493165068328381,-9864.293148220642,1,1789158958.0386996,38.99074680333333,-76.93788653833333,-5.3679999999999986,0,1,11.689561,11.404129,74.839801,1,1,1789158958.432727,0.8735063134848546,-0.48297646886422135,-0.02863594402883423,0.05385567319349458,173.00701861873554,-0.1142873902727667,-57.87091839732127,-0.20481927464344016,-0.05134985552170077,0.11279766249666513,0.06854848463058472,-0.6841119152832031,-17.447795834770204
2026-09-11T16:35:58.469,1.43680518400015,-1785.3433837890625,-160680.90454101562,-642723.6181640625,-1222.9602178955079,-3.207843627929688,-4.3975443840026855,-3.01231790304184,-6.738363240519498,-0.014234984582131153,0.0,0.23196417093276978,1900.25048828125,83.50710153579712,0.0,0.0,164.4211241808538,1,1789158958.0386996,38.99074680333333,-76.93788653833333,-5.3679999999999986,0,1,11.689561,11.404129,74.839801,1,1,1789158958.460727,0.872773420240404,-0.4842278069241659,-0.026951495458124503,0.05534984025135612,172.9509093624088,-0.37579229195898783,-58.02119694822668,-0.09890745964466825,0.1889130419724646,0.10051054456262504,2.6582886593437194,1.290457094783783,-7.883664131526947
2026-09-11T16:35:58.503,1.470217600000069,-1785.486083984375,-160693.74755859375,-642774.990234375,-1223.057967529297,-3.3055932617187502,-4.295660972595215,-2.9425277662277223,-6.582247150652557,2.0887485901733784,0.0,0.2314777970314026,1896.26611328125,83.33200693130493,-0.0762939527630806,-27.465822994709015,-822.0244532683735,1,1789158958.0386996,38.99074680333333,-76.93788653833333,-5.3679999999999986,0,1,11.689561,11.404129,74.839801,1,1,1789158958.500727,0.8717263589057753,-0.4862900124027283,-0.023958676195409305,0.05514672121891893,173.13930151433647,-0.6797604904721473,-58.26892470280851,-0.004720766560794263,0.12085881471285133,0.12466153808709658,-6.477194365329742,-2.6493646076965334,-3.0654607740592956
2026-09-11T16:35:58.537,1.503641823999942,-1785.630126953125,-160706.71142578125,-642826.845703125,-1223.1566369628906,-3.4042626953125,-4.2959370613098145,-2.942716886997223,-6.582670201765435,-0.005658194772197483,0.0,0.23023992776870728,1886.12548828125,82.88637399673462,-0.0610351599752903,-21.972657591104507,164.34683430871516,1,1789158958.0386996,38.99074680333333,-76.93788653833333,-5.3679999999999986,0,1,11.689561,11.404129,74.839801,1,1,1789158958.532727,0.8713925302459986,-0.4870514256283712,-0.022848862965320082,0.054165454729368755,173.30029296301578,-0.7415465117457523,-58.36126428351454,-0.052320956717510414,0.09490419793936887,0.11348654395242729,-0.5285784437179566,-0.7616825180625916,-12.555258069076539
2026-09-11T16:35:58.570,1.5370531519999986,-1785.771728515625,-160719.45556640625,-642877.822265625,-1223.2536340332033,-3.5012597656250004,-4.244083404541016,-2.907197132110596,-6.503214772974661,1.0631051506413391,0.0,0.2227345108985901,1824.64111328125,80.18442392349243,-0.12207034230232239,-43.94532322883606,-657.641193959557,1,1789158958.0386996,38.99074680333333,-76.93788653833333,-5.3679999999999986,0,1,11.689561,11.404129,74.839801,1,1,1789158958.560727,0.8710375703380089,-0.4877491182297268,-0.02039135210298523,0.05457601565884386,173.39722322173355,-1.0150787421494176,-58.43590042923147,0.028265607236048165,0.09945078064081408,0.02038230407064018,1.1306086971473694,1.582401070098877,-7.912789882507325
2026-09-11T16:35:58.603,1.570465600000034,-1785.9149169921875,-160732.34252929688,-642929.3701171875,-1223.3517181396485,-3.5993438720703126,-4.244988441467285,-2.9078170824050904,-6.504601562287686,-0.018554470911377602,0.0,0.2199726700782776,1802.01611328125,79.19016122817993,-0.2746582329273224,-98.87696385383606,-1644.0471714296905,1,1789158958.0386996,38.99074680333333,-76.93788653833333,-5.3679999999999986,0,1,11.689561,11.404129,74.839801,1,1,1789158958.5937269,0.8708875522787471,-0.4883341576907991,-0.019514179086316825,0.05199825509512473,173.7052281783168,-0.9623700880349539,-58.508532782377365,0.0974797803165369,-0.03685454701803747,-0.030650250593048017,0.6352747974777222,-0.6966644274902344,-14.191889914569856
2026-09-11T16:35:58.637,1.6038732800000162,-1786.052978515625,-160744.76806640625,-642979.072265625,-1223.4462902832033,-3.693916015625,-4.116631984710693,-2.8198929095268253,-6.307920789027429,2.631855096741598,0.0,0.2054005265235901,1682.64111328125,73.94418954849243,-0.5798340439796448,-208.74025583267212,-3288.5639463409325,1,1789158958.0386996,38.99074680333333,-76.93788653833333,-5.3679999999999986,0,1,11.689561,11.404129,74.839801,1,1,1789158958.631727,0.8710115867262808,-0.488300169789368,-0.018195051693006593,0.05070207161576143,173.90885907727107,-1.021033814966841,-58.49676278607235,-0.0028244663285024235,-0.04430116880459647,-0.05697871689230768,3.5178415460205077,-0.24506818754196166,-10.859786322612763
2026-09-11T16:35:58.670,1.6372856959999353,-1786.1873779296875,-160756.86401367188,-643027.4560546875,-1223.538353881836,-3.785979614257813,-4.013920783996582,-2.7495357370376587,-6.150536276480081,2.1057193975238637,0.0,0.1820583939552307,1491.42236328125,65.54102182388306,-0.4882813096046448,-175.78127145767212,986.429247591067,1,1789158958.0386996,38.99074680333333,-76.93788653833333,-5.3679999999999986,0,1,11.689561,11.404129,74.839801,1,1,1789158958.660727,0.8717530557490818,-0.4872546855690585,-0.01564692770509455,0.04883292778983813,174.2372601760423,-1.163621575590389,-58.34627563800423,0.05145527340852123,3.996803987067015e-05,-0.11652306778504704,0.8675943398094177,-1.641731303577423,-8.104313760166168
2026-09-11T16:35:58.703,1.6706976640000448,-1786.3170166015625,-160768.53149414062,-643074.1259765625,-1223.6271563720704,-3.874782104492188,-3.911733388900757,-2.6795373713970188,-5.99395439199404,2.0950087597477234,0.0,0.15917783975601196,1303.98486328125,57.30402231216431,-1.0681153535842896,-384.52152729034424,-6247.469644170261,1,1789158958.0386996,38.99074680333333,-76.93788653833333,-5.3679999999999986,0,1,11.689561,11.404129,74.839801,1,1,1789158958.700727,0.8733922745940534,-0.4845943436378854,-0.011050241123966879,0.04724562376236319,174.64821991713126,-1.5178013999689743,-57.975727463717384,0.050679823621860146,0.07283730207470375,-0.18293825634411245,2.254941138191223,-1.1353158892250061,-9.564523969249725
2026-09-11T16:35:58.737,1.7041082240000378,-1786.4434814453125,-160779.91333007812,-643119.6533203125,-1223.7137847900392,-3.961410522460938,-3.783175468444824,-2.591475195884705,-5.796964915633281,2.635758739522246,0.0,0.1424904465675354,1167.28173828125,51.296560764312744,-0.0457763709127903,-16.479493528604507,11015.739747008642,1,1789158958.0386996,38.99074680333333,-76.93788653833333,-5.3679999999999986,0,1,11.689561,11.404129,74.839801,1,1,1789158958.732727,0.8752247433679042,-0.48142033577510257,-0.006461613344939281,0.046629995193590006,174.957506717385,-1.9247282922171307,-57.5415258861322,0.032618283857596825,0.11333190778070058,-0.2450960632587881,2.024975191898346,-0.8495501035118103,-7.858264907608032
2026-09-11T16:35:58.770,1.7375208640000892,-1786.570068359375,-160791.30615234375,-643165.224609375,-1223.8004968261719,-4.04812255859375,-3.7327897548675537,-2.5569609820842745,-5.719758818191374,1.032968774702547,0.0,0.12963110208511353,1061.93798828125,46.66719675064087,-0.2593994736671448,-93.38381052017212,-2301.6534159362836,1,1789158958.0386996,38.99074680333333,-76.93788653833333,-5.3679999999999986,0,1,11.689561,11.404129,74.839801,1,1,1789158958.760727,0.8772362093105929,-0.47779256845065543,-0.004390891569811617,0.04638550074031302,175.08743637879957,-2.098732237188406,-57.06039400924986,0.042043759950067,0.1159443166050857,-0.2840601897437111,1.060098882484436,0.6509654377365112,-9.357995916843414
2026-09-11T16:35:58.803,1.7709292160000132,-1786.6964111328125,-160802.67700195312,-643210.7080078125,-1223.8870416259767,-4.1346673583984375,-3.7344961166381836,-2.558129839897156,-5.722373478653259,-0.03498699405717803,0.0,0.11987310647964478,982.00048828125,43.15431833267212,-0.22888189554214478,-82.39748239517212,328.8497476626503,1,1789158958.0386996,38.99074680333333,-76.93788653833333,-5.3679999999999986,0,1,11.689561,11.404129,74.839801,1,1,1789158958.800727,0.880400089638523,-0.4719657786962575,-0.0004994695020297706,0.04630050144796041,175.29228594540552,-2.454444586262478,-56.288921718440804,0.04465494704397572,0.13836987763103564,-0.2996054883253742,-0.4344346021652222,0.5719238374328613,-8.825494813060761
2026-09-11T16:35:58.837,1.8043424640000012,-1786.822265625,-160814.00390625,-643256.015625,-1223.973251953125,-4.220877685546875,-3.787229537963867,-2.5942522335052494,-5.8031769718710775,-1.0810799838467184,0.0,0.1184120774269104,970.03173828125,42.628347873687744,0.015258789993822575,5.493164397776127,2630.413146096416,1,1789158958.0386996,38.99074680333333,-76.93788653833333,-5.3679999999999986,0,1,11.689561,11.404129,74.839801,1,1,1789158958.832727,0.8829607767205603,-0.46711322930811205,0.0009834618208870438,0.04673896213245091,175.31354969184775,-2.6022083558564453,-55.653916201102824,0.05349818129798059,0.09623553509279013,-0.28113606511491984,-0.013238977718353272,0.08600432191848754,-12.132885646610259
2026-09-11T16:35:58.871,1.8377553600000738,-1786.9498291015625,-160825.48461914062,-643301.9384765625,-1224.0606329345703,-4.308258666992188,-3.8130717277526855,-2.6119541335105896,-5.842774994431341,-0.5297924491580068,0.0,0.12070852518081665,988.84423828125,43.455069065093994,0.3204346001148224,115.35645604133606,3288.050567161891,1,1789158958.0386996,38.99074680333333,-76.93788653833333,-5.3679999999999986,0,1,11.689561,11.404129,74.839801,1,1,1789158958.860727,0.8850898648780513,-0.4632034084952929,-0.00018829344900164844,0.04537067328211819,175.37931664380625,-2.389834529742747,-55.15334009354266,0.06766973122539895,0.07178713746377877,-0.2762688654298832,-0.37990962726593014,0.6385109920310974,-8.794996131057738
2026-09-11T16:35:58.904,1.8711646720000772,-1787.072509765625,-160836.52587890625,-643346.103515625,-1224.1446691894532,-4.392294921875,-3.684803009033203,-2.5240900611877444,-5.646228662284676,2.629927617870019,0.0,0.1339436173439026,1097.26611328125,48.21970224380493,0.4730225205421448,170.28810739517212,1644.201812770956,1,1789158958.0386996,38.99074680333333,-76.93788653833333,-5.3679999999999986,0,1,11.689561,11.404129,74.839801,1,1,1789158958.900727,0.8872423252381807,-0.45901587651210746,-0.0011512428991084316,0.04587108081956841,175.2665309800423,-2.296356114377646,-54.614755941272456,-0.008051029306524642,0.04871667727921692,-0.2329351326296672,0.9411442160224914,0.6854848463058472,-7.216811920528412
2026-09-11T16:35:58.938,1.9045782719999806,-1787.1971435546875,-160847.74291992188,-643390.9716796875,-1224.230043334961,-4.477669067382813,-3.7377851009368896,-2.5603827941417694,-5.727413193767373,-1.0861664996926368,0.0,0.15398412942886353,1261.43798828125,55.43428659439087,0.19836437702178955,71.41117572784424,-2959.1822391964224,1,1789158958.0386996,38.99074680333333,-76.93788653833333,-5.3679999999999986,0,1,11.689561,11.404129,74.839801,1,1,1789158958.932727,0.8887759003822441,-0.45600194743619304,-0.002995583785667648,0.046158957006349303,175.133215901281,-2.107375185382194,-54.23219648935385,-0.025069211243945753,-0.045316950429257166,-0.12464059413607265,2.755570628948212,2.9873017722702024,-8.477947131328582
2026-09-11T16:35:58.972,1.9379889920001006,-1787.3240966796875,-160859.16870117188,-643436.6748046875,-1224.317006225586,-4.564631958007813,-3.739485502243042,-2.561547569036484,-5.730018721001435,-0.03486231050125832,0.0,0.16120535135269165,1320.59423828125,58.033926486968994,0.4119873642921448,148.31545114517212,2301.784439756218,1,1789158958.0386996,38.99074680333333,-76.93788653833333,-5.3679999999999986,0,1,11.689561,11.404129,74.839801,1,1,1789158958.960727,0.889781700942131,-0.45416241295396276,-0.001795763436822814,0.04496445887632938,175.31335725029302,-2.1575045287117205,-53.993055919510994,0.04664497145709965,0.017684199579982147,-0.13218355809734172,2.7845983134269714,0.8191494880104064,-10.12605275751114
2026-09-11T16:35:59.006,1.9714033600000676,-1787.450439453125,-160870.53955078125,-643482.158203125,-1224.4035510253907,-4.6511767578125,-3.7669904232025146,-2.580388439893723,-5.772164548795902,-0.5638553707571947,0.0,0.1744251847267151,1428.89111328125,62.79306650161743,0.3356934189796448,120.84963083267212,-821.976351985084,1,1789158958.0386996,38.99074680333333,-76.93788653833333,-5.3679999999999986,0,1,11.689561,11.404129,74.839801,1,1,1789158959.000727,0.8908193329754954,-0.45233322144522253,-0.002876735849400612,0.04274689655324082,175.48004111560064,-1.9224266215005483,-53.76450577046558,0.014988189484426503,-0.09098052324796041,-0.10162354102662184,0.11365907537460326,2.821569384536743,-9.149604600906372
2026-09-11T16:35:59.037,2.004812319999928,-1787.58154296875,-160882.3388671875,-643529.35546875,-1224.4933569335938,-4.740982666015626,-3.8722457885742188,-2.65248836517334,-5.933447488308288,-2.1581014578100577,0.0,0.18483740091323853,1514.18798828125,66.54146432876587,0.061035215854644775,21.97267770767212,-2959.593867196482,1,1789158958.0386996,38.99074680333333,-76.93788653833333,-5.3679999999999986,0,1,11.689561,11.404129,74.839801,1,1,1789158959.032727,0.8913053409282736,-0.45147950724547664,-0.0036153900576769314,0.04156889131124986,175.56068771387802,-1.7816227488810297,-53.65877959321284,0.1750509389214249,-0.031051850853931914,-0.07553680282876339,0.0523675118637085,-0.16318265869140625,-15.34436744157791
2026-09-11T16:35:59.071,2.038231104000033,-1787.7127685546875,-160894.14916992188,-643576.5966796875,-1224.583246459961,-4.830872192382813,-3.925349712371826,-2.6888645529747013,-6.01481870296774,-1.0884952546821278,0.0,0.19018560647964478,1558.00048828125,68.46681833267212,0.13732916116714478,49.43849802017212,821.867734996393,1,1789158959.0364904,38.99073351166667,-76.93788600833334,-5.3530000000000015,0,1,10.118761000000001,12.033961,70.27468899999998,1,1,1789158959.060727,0.891523961633439,-0.4511326943369292,-0.0054684614698739115,0.04042788471925653,175.58118838552292,-1.531478082786524,-53.62193924449537,0.0658978729687743,-0.07646322359572198,-0.015234455441882904,-1.3250745698547362,1.3214461092948915,-6.384031188793182
2026-09-11T16:35:59.105,2.0716532159999588,-1787.84765625,-160906.2890625,-643625.15625,-1224.67564453125,-4.923270263671875,-4.0049052238464355,-2.7433600783348084,-6.136721721400334,-1.6305230908276662,0.0,0.1931515336036682,1582.29736328125,69.53455209732056,0.030517637729644775,10.98634958267212,-1150.500256763713,1,1789158959.0364904,38.99073351166667,-76.93788600833334,-5.3530000000000015,0,1,10.118761000000001,12.033961,70.27468899999998,1,1,1789158959.100727,0.8916735118683821,-0.45068726490525285,-0.005479219182635,0.04206323384711744,175.41236237181369,-1.6127097429569082,-53.5630958064286,0.03326702274056312,-0.04701882098287684,-0.019644378862896977,0.7444228137779236,1.2898686957740784,-8.487459581985474
2026-09-11T16:35:59.138,2.105066463999947,-1787.9842529296875,-160918.58276367188,-643674.3310546875,-1224.769213256836,-5.0168389892578125,-4.109503746032715,-2.8150100660324098,-6.29699817920635,-2.144358659703691,0.0,0.19230657815933228,1575.37548828125,69.23036813735962,0.015258795581758022,5.493166409432888,-164.4013528179362,1,1789158959.0364904,38.99073351166667,-76.93788600833334,-5.3530000000000015,0,1,10.118761000000001,12.033961,70.27468899999998,1,1,1789158959.132727,0.8918964273954268,-0.45031820052395355,-0.006277706321740409,0.041168816833622154,175.46218318469067,-1.482980770043538,-53.51962906121064,0.023868250185648456,-0.021123545403962173,-0.04334612463790517,-0.6144846991348266,0.6878384423446655,-11.138883586215973
2026-09-11T16:35:59.171,2.138490719999936,-1788.122314453125,-160931.00830078125,-643724.033203125,-1224.8637854003907,-5.1114111328125,-4.16303825378418,-2.8516812038421633,-6.379029178243916,-1.0971414834114845,0.0,0.19242674112319946,1576.35986328125,69.2736268043518,0.0457763746380806,16.479494869709015,328.6932837122728,1,1789158959.0364904,38.99073351166667,-76.93788600833334,-5.3530000000000015,0,1,10.118761000000001,12.033961,70.27468899999998,1,1,1789158959.159727,0.8919847791122447,-0.45003923312152416,-0.004934214232829122,0.04246758779793094,175.39782291229457,-1.6859810069337648,-53.47750629964859,0.038534950021857604,-0.006721262949430163,-0.029414033883860435,0.2355557368850708,1.8894472866630554,-10.648158812122345
2026-09-11T16:35:59.205,2.1719124480000573,-1788.2657470703125,-160943.91723632812,-643775.6689453125,-1224.9620367431642,-5.2096624755859375,-4.216381549835205,-2.8882213616371155,-6.460767183332839,-1.0933054626864207,0.0,0.19224363565444946,1574.85986328125,69.2077088356018,-0.0610351599752903,-21.972657591104507,-1150.5135958462129,1,1789158959.0364904,38.99073351166667,-76.93788600833334,-5.3530000000000015,0,1,10.118761000000001,12.033961,70.27468899999998,1,1,1789158959.200727,0.8922726728607271,-0.4493330898797949,-0.005318082055874396,0.043828867294249986,175.2371966776078,-1.713236502122621,-53.38681593716141,-0.030306420730405136,0.03446623846960842,-0.028443630819751587,4.147232353401184,1.2152400880432128,-10.552249773540497
2026-09-11T16:35:59.237,2.2053252160001193,-1788.409912109375,-160956.89208984375,-643827.568359375,-1225.060789794922,-5.30841552734375,-4.348581790924072,-2.97877852678299,-6.663337792553209,-2.7102563051856796,0.0,0.19216924905776978,1574.25048828125,69.18092966079712,0.0,0.0,657.6126105764043,1,1789158959.0364904,38.99073351166667,-76.93788600833334,-5.3530000000000015,0,1,10.118761000000001,12.033961,70.27468899999998,1,1,1789158959.232727,0.8926184726728051,-0.44858059422111635,-0.005880368027490012,0.04441997302295506,175.14627038533098,-1.6821034002953157,-53.29184044284688,0.004233819699487844,-0.011893546187715359,-0.04368210051891408,-0.8703402018547057,0.3978557970619202,-10.885283613033295
2026-09-11T16:35:59.271,2.238750208000056,-1788.5584716796875,-160970.26245117188,-643881.0498046875,-1225.1625531005861,-5.410178833007813,-4.453290939331055,-3.0505042934417728,-6.823783763067666,-2.145872365771071,0.0,0.19149595499038696,1568.73486328125,68.9385437965393,0.0,0.0,0.0,1,1789158959.0364904,38.99073351166667,-76.93788600833334,-5.3530000000000015,0,1,10.118761000000001,12.033961,70.27468899999998,1,1,1789158959.260727,0.8928684459951791,-0.4479380714996575,-0.0070760409147883,0.04568754635887214,174.95371822449698,-1.6213681250140997,-53.21295122254412,0.002352878364613556,-0.02541496096876583,-0.038412951507143196,0.15729866859436034,1.5122835214424135,-10.883224216499329
2026-09-11T16:35:59.305,2.2721686720001344,-1788.7130126953125,-160984.17114257812,-643936.6845703125,-1225.2684136962891,-5.516039428710938,-4.557672023773193,-3.1220053362846376,-6.983727040722607,-2.139567002322334,0.0,0.19137388467788696,1567.73486328125,68.8945984840393,0.0,0.0,0.0,1,1789158959.0364904,38.99073351166667,-76.93788600833334,-5.3530000000000015,0,1,10.118761000000001,12.033961,70.27468899999998,1,1,1789158959.300727,0.8932275417440785,-0.4468909419293044,-0.009062970981649009,0.04848615522347994,174.56286327982943,-1.5555111710312464,-53.084679484788516,-0.058834001887177655,0.05208812979529437,-0.047796888763415916,1.2676075999069216,1.712633384246826,-8.355069804801941
2026-09-11T16:35:59.338,2.3055859840001176,-1788.8680419921875,-160998.12377929688,-643992.4951171875,-1225.3746087646484,-5.622234497070313,-4.6876301765441895,-3.21102667093277,-7.182862094964134,-2.6639286441763264,0.0,0.1961575150489807,1606.92236328125,70.61670541763306,0.2136230766773224,76.90430760383606,2301.3313459764418,1,1789158959.0364904,38.99073351166667,-76.93788600833334,-5.3530000000000015,0,1,10.118761000000001,12.033961,70.27468899999998,1,1,1789158959.331727,0.893329618119934,-0.44651823742072494,-0.00885631442796175,0.05005220010284343,174.41192037269994,-1.6546584794828272,-53.03430086073452,-0.04807073092305382,-0.05296463414564592,-0.01325019061529055,-1.0418585131835938,0.9816456811904907,-9.43223225856781
2026-09-11T16:35:59.371,2.3390122240000437,-1789.0279541015625,-161012.51586914062,-644050.0634765625,-1225.4841485595705,-5.731774291992188,-4.818091869354248,-3.3003929305076602,-7.38276872429236,-2.6735361074140442,0.0,0.2091541886329651,1713.39111328125,75.29550790786743,0.3967285752296448,142.82228708267212,1972.0429063807887,1,1789158959.0364904,38.99073351166667,-76.93788600833334,-5.3530000000000015,0,1,10.118761000000001,12.033961,70.27468899999998,1,1,1789158959.360727,0.8933493524766605,-0.4463747711213316,-0.011834207120425292,0.05036317779629193,174.22758281119133,-1.3647736543421725,-53.030512369809436,-0.02277305608002201,-0.030238876488352957,0.010972186875587552,-0.06158576301574707,2.2214023946380617,-10.298649800357818
2026-09-11T16:35:59.405,2.3724379519999275,-1789.1943359375,-161027.490234375,-644109.9609375,-1225.5981201171876,-5.845745849609376,-4.923235893249512,-3.3724165868759157,-7.543881055108965,-2.1547371045592776,0.0,0.2175503373146057,1782.17236328125,78.31812143325806,0.045776426792144775,16.47951364517212,-3779.806185161903,1,1789158959.0364904,38.99073351166667,-76.93788600833334,-5.3530000000000015,0,1,10.118761000000001,12.033961,70.27468899999998,1,1,1789158959.400727,0.892929864698602,-0.44696095571942523,-0.015061821750715371,0.051723324692674814,173.92360038141464,-1.1080727528000511,-53.122201330733475,-0.050291313330366204,-0.02442082142682986,0.0567870797404387,-0.8322903992271423,1.7020422020721435,-9.997389507389068
2026-09-11T16:35:59.438,2.4058583359999375,-1789.361328125,-161042.51953125,-644170.078125,-1225.712509765625,-5.960135498046875,-5.054577827453613,-3.4623858118057256,-7.745136479522463,-2.692046414840203,0.0,0.22076040506362915,1808.46923828125,79.4737458229065,0.0762939602136612,27.46582567691803,328.7308737009909,1,1789158959.0364904,38.99073351166667,-76.93788600833334,-5.3530000000000015,0,1,10.118761000000001,12.033961,70.27468899999998,1,1,1789158959.432727,0.8923564802976341,-0.44795867618560253,-0.016706835971863305,0.052476834247788616,173.7630708856753,-0.9854213800977726,-53.25917511970773,-0.05118247844643451,0.006947632153413827,0.0725158124264864,-0.8893651031684876,1.2030798418426514,-8.514133670425414
2026-09-11T16:35:59.472,2.439283904000149,-1789.5338134765625,-161058.04321289062,-644232.1728515625,-1225.8306622314453,-6.078287963867188,-5.1334452629089355,-3.516410005092621,-7.8659851581348805,-1.616253560344988,0.0,0.2213631272315979,1813.40673828125,79.69072580337524,-0.0457763709127903,-16.479493528604507,-1314.721688655953,1,1789158959.0364904,38.99073351166667,-76.93788600833334,-5.3530000000000015,0,1,10.118761000000001,12.033961,70.27468899999998,1,1,1789158959.460727,0.8918568157999606,-0.44882175010294356,-0.01707482558003854,0.05346874860231574,173.6433466761976,-1.0049779927716829,-53.37131349717787,-0.00802729282869752,0.009311506092314948,0.08243696202652298,0.3860878168678284,1.6333956509399414,-10.664143651885986
2026-09-11T16:35:59.506,2.472704128000032,-1789.708251953125,-161073.74267578125,-644294.970703125,-1225.9501525878907,-6.1977783203125005,-5.186062335968018,-3.552452700138092,-7.946610370745544,-1.0784695831361624,0.0,0.22104841470718384,1810.82861328125,79.57742929458618,0.015258789993822575,5.493164397776127,657.465908261342,1,1789158959.0364904,38.99073351166667,-76.93788600833334,-5.3530000000000015,0,1,10.118761000000001,12.033961,70.27468899999998,1,1,1789158959.5017269,0.8913327206236488,-0.4498401504703104,-0.016138620654099645,0.05393853069815844,173.6445868056297,-1.1321048952378037,-53.495715946404395,-0.010837621990258789,0.049723208658842055,0.06176458423420133,0.5058270153427125,0.4360036661911011,-6.625863181781768
2026-09-11T16:35:59.539,2.5061190080000415,-1789.8858642578125,-161089.72778320312,-644358.9111328125,-1226.0718170166017,-6.319442749023438,-5.290888786315918,-3.624258818626404,-8.107236083183608,-2.148926421052297,0.0,0.2194882035255432,1798.04736328125,79.01575326919556,-0.1525879055261612,-54.93164598941803,-1808.3204364994644,1,1789158959.0364904,38.99073351166667,-76.93788600833334,-5.3530000000000015,0,1,10.118761000000001,12.033961,70.27468899999998,1,1,1789158959.532727,0.8910117746297737,-0.45028069189763975,-0.016245421704462387,0.055510379650373434,173.47850533954932,-1.205636876984105,-53.55162195313559,-0.06320168834029347,0.016825323055075735,0.034812337260278894,0.49837396121978755,-0.5826130861091614,-10.17410534330368
2026-09-11T16:35:59.572,2.539543551999941,-1790.06396484375,-161105.7568359375,-644423.02734375,-1226.1938159179688,-6.441441650390625,-5.344624996185303,-3.661068122386933,-8.189576150650788,-1.1012656974658894,0.0,0.21027761697769165,1722.59423828125,75.699942111969,-0.3662109673023224,-131.83594822883606,-2300.8332511476997,1,1789158959.0364904,38.99073351166667,-76.93788600833334,-5.3530000000000015,0,1,10.118761000000001,12.033961,70.27468899999998,1,1,1789158959.560727,0.8909780471812493,-0.4503786687458482,-0.016478776405864707,0.05518717340080472,173.4997278902895,-1.1658086441547448,-53.565891125109125,-0.06769434036785206,0.006390523056177237,-0.007999367560665611,0.1471978189277649,1.2189666151046752,-10.845076347370147
2026-09-11T16:35:59.606,2.572960096000088,-1790.2442626953125,-161121.98364257812,-644487.9345703125,-1226.3173199462892,-6.564945678710938,-5.398266315460205,-3.6978124260902407,-8.271770817130987,-1.099584197071554,0.0,0.1969490647315979,1613.40673828125,70.90166330337524,-0.4119873344898224,-148.31544041633606,-493.15369618795665,1,1789158959.0364904,38.99073351166667,-76.93788600833334,-5.3530000000000015,0,1,10.118761000000001,12.033961,70.27468899999998,1,1,1789158959.600727,0.8913201376356247,-0.4498666917514066,-0.013048207697147941,0.05475505614779468,173.72010826696012,-1.4901270435107254,-53.48019185203999,-0.04813216651272402,0.09484380954724986,-0.08019700646451344,0.8073815078163147,-0.24222425899505615,-9.764383499546051
2026-09-11T16:35:59.639,2.6063762880000922,-1790.423828125,-161138.14453125,-644552.578125,-1226.4403222656251,-6.687947998046876,-5.42560338973999,-3.7165383219718935,-8.313659453229889,-0.5603838965747615,0.0,0.18614965677261353,1524.93798828125,67.01387643814087,-0.061035215854644775,-21.97267770767212,3780.8845097804065,1,1789158959.0364904,38.99073351166667,-76.93788600833334,-5.3530000000000015,0,1,10.118761000000001,12.033961,70.27468899999998,1,1,1789158959.632727,0.8921026050256037,-0.4484506132322234,-0.011390983248982611,0.05399291711693022,173.88103862975564,-1.610364473298964,-53.290314559048056,-0.05366363851106965,0.0650976395067349,-0.12718772764643319,2.6680953095054623,0.7451092792892456,-14.083918696289064
2026-09-11T16:35:59.672,2.639803744000119,-1790.603271484375,-161154.29443359375,-644617.177734375,-1226.563240966797,-6.81086669921875,-5.3483781814575195,-3.663639054298401,-8.195327161547954,1.5825095296946916,0.0,0.18099409341812134,1482.70361328125,65.15787363052368,-0.0152588477358222,-5.493185184895992,492.9927219936495,1,1789158959.0364904,38.99073351166667,-76.93788600833334,-5.3530000000000015,0,1,10.118761000000001,12.033961,70.27468899999998,1,1,1789158959.660727,0.8928942685313906,-0.44699279480822773,-0.010502434796751071,0.05316921549790416,174.00848219388857,-1.6490503544514588,-53.09980489045261,-0.11434978380046368,-0.0013655456067603634,-0.149524800479307,-0.28282379066467284,2.9274812062835696,-20.71370453813553
2026-09-11T16:35:59.706,2.673223488000076,-1790.778076171875,-161170.02685546875,-644680.107421875,-1226.6829821777344,-6.93060791015625,-5.244018077850342,-3.5921523833274844,-8.035416032854958,2.1390550140362716,0.0,0.1757069230079651,1439.39111328125,63.25449228286743,-0.10681155323982239,-38.45215916633606,-986.2126406917544,1,1789158959.0364904,38.99073351166667,-76.93788600833334,-5.3530000000000015,0,1,10.118761000000001,12.033961,70.27468899999998,1,1,1789158959.700727,0.8944056584051421,-0.44410709876554766,-0.008915813441959162,0.05222941038898152,174.18051049717243,-1.744478854941265,-52.723686645840935,-0.09090634675475065,-0.020925101468010417,-0.18628248172385878,-2.840986551856995,-0.7929657320785523,-18.346673388595583
2026-09-11T16:35:59.740,2.7066439679999803,-1790.9476318359375,-161185.28686523438,-644741.1474609375,-1226.7991278076172,-7.046753540039063,-5.088860511779785,-3.485869450569153,-7.7976678833418696,3.1801737365422538,0.0,0.1700764298439026,1393.26611328125,61.22751474380493,-0.5187988877296448,-186.76759958267212,-4437.860869046791,1,1789158959.0364904,38.99073351166667,-76.93788600833334,-5.3530000000000015,0,1,10.118761000000001,12.033961,70.27468899999998,1,1,1789158959.732727,0.895822524058099,-0.4415419515644699,-0.007898639770381362,0.04980283012634818,174.47690443766436,-1.7093017718541605,-52.393997335469415,-0.04598907672420019,-0.029878291464890926,-0.1986465686779118,2.821765517539978,-1.2519169596481323,-10.506060451278687
2026-09-11T16:35:59.772,2.740069855999991,-1791.114013671875,-161200.26123046875,-644801.044921875,-1226.9130993652345,-7.16072509765625,-5.011477470397949,-3.4328620672225956,-7.6790937437871145,1.5858182539994363,0.0,0.15006452798843384,1229.32861328125,54.02323007583618,-0.5340576767921448,-192.26076364517212,-164.33861270935407,1,1789158959.0364904,38.99073351166667,-76.93788600833334,-5.3530000000000015,0,1,10.118761000000001,12.033961,70.27468899999998,1,1,1789158959.760727,0.8971755535455838,-0.43896006947772276,-0.007445687602822914,0.04831816698105798,174.64790639529966,-1.6652104710075608,-52.064291282842554,0.05127637716019181,0.024455029880168948,-0.2173708099591574,-2.478728894882202,-0.6084045760345459,-12.386289486789703
2026-09-11T16:35:59.806,2.7734952319999593,-1791.2781982421875,-161215.03784179688,-644860.1513671875,-1227.0255657958985,-7.2731915283203135,-4.960392475128174,-3.397868845462799,-7.600816136056719,1.0469058526022126,0.0,0.14784246683120728,1211.12548828125,53.22328805923462,-0.0915527418255806,-32.958987057209015,4765.893331704455,1,1789158959.0364904,38.99073351166667,-76.93788600833334,-5.3530000000000015,0,1,10.118761000000001,12.033961,70.27468899999998,1,1,1789158959.800727,0.8997275082376471,-0.43407341425178786,-0.007381696577275015,0.04490203242517384,174.99536130943764,-1.4725792013688235,-51.445600671762435,0.04054801278110787,0.06946008997209473,-0.2835095383647069,1.2727070579910278,-0.5839860171318054,-9.055068493347168
2026-09-11T16:35:59.839,2.8069129279999743,-1791.4443359375,-161229.990234375,-644919.9609375,-1227.1393701171876,-7.3869958496093755,-4.909052848815918,-3.362701201438904,-7.522148356833617,1.0523659088848998,0.0,0.14083296060562134,1153.70361328125,50.69986581802368,-0.015258817933499813,-5.493174456059933,821.8942622835748,1,1789158959.0364904,38.99073351166667,-76.93788600833334,-5.3530000000000015,0,1,10.118761000000001,12.033961,70.27468899999998,1,1,1789158959.832727,0.901920942888336,-0.42952691511979185,-0.0035509337470248903,0.0450847295280127,175.15731025243872,-1.8524022640025828,-50.85257385174884,-0.010242290182403524,0.06713705673769027,-0.3442784122606455,2.4536238704681392,-0.05736890344619751,-9.547754597473144
2026-09-11T16:35:59.872,2.840345088000049,-1791.6065673828125,-161244.59106445312,-644978.3642578125,-1227.2504986572267,-7.498124389648438,-4.910224437713623,-3.363503739833832,-7.523943584094999,-0.024004981877513917,0.0,0.13888365030288696,1137.73486328125,49.99811410903931,0.0,0.0,164.30809304716269,1,1789158959.0364904,38.99073351166667,-76.93788600833334,-5.3530000000000015,0,1,10.118761000000001,12.033961,70.27468899999998,1,1,1789158959.860727,0.9039420213209167,-0.42537386171873454,-0.0014680907523990936,0.0440879185978312,175.35371998003362,-1.9973663345679507,-50.32010649948568,0.011657054074070129,0.08942787834538626,-0.32357845826614234,1.4590334110641479,-0.5150452664947509,-8.028018021907807
2026-09-11T16:35:59.906,2.873762144000011,-1791.7691650390625,-161259.22485351562,-645036.8994140625,-1227.361878051758,-7.609503784179688,-4.833281517028809,-3.310797839164734,-7.406043842082879,1.5772155592987562,0.0,0.1396847367286682,1144.29736328125,50.28650522232056,0.061035171151161194,21.97266161441803,657.5283476331067,1,1789158959.0364904,38.99073351166667,-76.93788600833334,-5.3530000000000015,0,1,10.118761000000001,12.033961,70.27468899999998,1,1,1789158959.901727,0.9068716758284069,-0.41919719691774143,0.00015854238068717982,0.043098126882715374,175.52133754141917,-2.087218774772438,-49.535412911084016,-0.0017685421310458542,0.04131787751416256,-0.3204422761332337,3.2469818685531617,0.5347566333198548,-9.41389382276535
2026-09-11T16:35:59.940,2.907178432000137,-1791.932373046875,-161273.91357421875,-645095.654296875,-1227.4736755371096,-7.72130126953125,-4.887673854827881,-3.3480565905570985,-7.489389295269092,-1.1149877386807299,0.0,0.14310652017593384,1172.32861328125,51.51834726333618,0.1220703274011612,43.94531786441803,657.5432989420382,1,1789158959.0364904,38.99073351166667,-76.93788600833334,-5.3530000000000015,0,1,10.118761000000001,12.033961,70.27468899999998,1,1,1789158959.932727,0.9087942311828873,-0.41497147942065316,0.0015419130463111387,0.04346652896536611,175.53883511734008,-2.2280668892606044,-48.997755315321434,0.024030914871934327,0.007346788953344931,-0.2980453385070165,-1.8515936170387268,0.3894220779228211,-8.245823722000122
2026-09-11T16:35:59.973,2.94059481599993,-1792.0933837890625,-161288.40454101562,-645153.6181640625,-1227.5839678955078,-7.8315936279296885,-4.889286041259766,-3.3491609382629397,-7.491859650731335,-0.03304809119526738,0.0,0.1449642777442932,1187.54736328125,52.18713998794556,0.061035171151161194,21.97266161441803,-657.5414099304186,1,1789158959.0364904,38.99073351166667,-76.93788600833334,-5.3530000000000015,0,1,10.118761000000001,12.033961,70.27468899999998,1,1,1789158959.960727,0.9103986031837449,-0.4114357466009559,0.0027432049056536015,0.04344519037644723,175.5889427140909,-2.335141659813011,-48.54925826442988,-0.03241320767048749,0.03387963330801313,-0.2572707819889997,1.492964420623779,0.2848831871986389,-9.782231602840424
2026-09-11T16:36:00.007,2.974016096000014,-1792.2584228515625,-161303.25805664062,-645213.0322265625,-1227.6970196533205,-7.944645385742188,-4.838518142700195,-3.314384927749634,-7.414067930721256,1.0405349679371387,0.0,0.1469479203224182,1203.79736328125,52.90125131607056,0.0915527492761612,32.95898973941803,328.72254219384587,1,1789158959.0364904,38.99073351166667,-76.93788600833334,-5.3530000000000015,0,1,10.118761000000001,12.033961,70.27468899999998,1,1,1789158960.000727,0.9123323726082458,-0.4068179905075674,0.007183993613945756,0.045794701944095045,175.53709808829365,-2.887129686098705,-47.95260272005226,0.010574426339058045,0.062158505046376454,-0.23907240841138006,0.7287321735191346,0.7565830599784851,-9.430368995037078
2026-09-11T16:36:00.041,3.0074376320001193,-1792.4219970703125,-161317.97973632812,-645271.9189453125,-1227.8090679931643,-8.056693725585939,-4.917194366455078,-3.3682781410217286,-7.534623615385033,-1.6125295160558977,0.0,0.14997297525405884,1228.57861328125,53.99027109146118,0.1983642727136612,71.41113817691803,1150.5200849350194,1,1789158960.0376182,38.99071771,-76.93788373166667,-5.372,0,1,8.590761,17.564480999999997,67.15802500000001,1,1,1789158960.033727,0.9137857883060247,-0.403290218918308,0.008806835547946958,0.04769666720423525,175.40079371939666,-3.1279734590791746,-47.501930164035166,0.14236074749864588,0.009507332034388713,-0.2389755426378944,-0.08188552885055542,3.9212871336746216,-6.092087213478088
2026-09-11T16:36:00.073,3.0408694400000513,-1792.584716796875,-161332.62451171875,-645330.498046875,-1227.9205310058594,-8.168156738281251,-4.865314483642578,-3.332740421295166,-7.455128000391827,1.062991260497629,0.0,0.15619665384292603,1279.56298828125,56.23079538345337,0.21362310647964478,76.90431833267212,164.30999351770782,1,1789158960.0376182,38.99071771,-76.93788373166667,-5.372,0,1,8.590761,17.564480999999997,67.15802500000001,1,1,1789158960.072727,0.9156348845012567,-0.3993460693468426,0.011049274391889003,0.044870800271554934,175.7871914403231,-3.214383865102023,-47.009738693790226,0.05078000552092462,0.08970660742692975,-0.2389785096976228,1.4645251351547242,-1.159146049118042,-5.903995663375855
2026-09-11T16:36:00.107,3.074315360000128,-1792.7467041015625,-161347.20336914062,-645388.8134765625,-1228.0314923095705,-8.279118041992188,-4.839816093444824,-3.315274024009705,-7.4160567824125385,0.5222280411309128,0.0,0.1627522110939026,1333.26611328125,58.59079599380493,0.09155279397964478,32.95900583267212,-1313.9214738269861,1,1789158960.0376182,38.99071771,-76.93788373166667,-5.372,0,1,8.590761,17.564480999999997,67.15802500000001,1,1,1789158960.100727,0.9165695832371811,-0.3972055765810493,0.008846921666258004,0.04527318184497053,175.63743408528617,-2.9912333953960974,-46.746102779286055,-0.04016177141764152,0.03844157490687591,-0.15191799594964162,0.09522257307052612,1.2847692376899718,-11.493982388572693
2026-09-11T16:36:00.140,3.107734751999942,-1792.9085693359375,-161361.77124023438,-645447.0849609375,-1228.1423699951172,-8.389995727539063,-4.84124755859375,-3.316254577636719,-7.418250218407112,-0.029340857757665473,0.0,0.17319685220718384,1418.82861328125,62.35086679458618,0.24414068460464478,87.89064645767212,1643.70556547843,1,1789158960.0376182,38.99071771,-76.93788373166667,-5.372,0,1,8.590761,17.564480999999997,67.15802500000001,1,1,1789158960.132727,0.9175066430418132,-0.39498633864209887,0.00897454089746944,0.045681614200157185,175.592880273904,-3.012603659115506,-46.46778053333901,-0.010922270458980515,-0.0034280011838420626,-0.13309409636810718,-0.25006957912445066,1.3387058135795593,-8.601118657360077
2026-09-11T16:36:00.174,3.1411944640001366,-1793.068359375,-161376.15234375,-645504.609375,-1228.251826171875,-8.499451904296876,-4.7897114753723145,-3.2809523606300357,-7.339281407994882,1.0550663737475763,0.0,0.1837635636329651,1505.39111328125,66.15488290786743,0.15258795022964478,54.93166208267212,-985.0349092905649,1,1789158960.0376182,38.99071771,-76.93788373166667,-5.372,0,1,8.590761,17.564480999999997,67.15802500000001,1,1,1789158960.173727,0.9183439465845683,-0.39288187779472267,0.008403068946267297,0.047091552366177764,175.4114505600427,-3.005777262549367,-46.20353911806871,-0.17032319104362265,-0.10982606491221959,-0.09890641244711706,0.8379782563209534,2.957195356273651,-5.488880162029266
2026-09-11T16:36:00.208,3.1746147840001413,-1793.2357177734375,-161391.21459960938,-645564.8583984375,-1228.3664666748048,-8.614092407226563,-4.946656703948975,-3.388459842205048,-7.579768795197396,-3.216829808182481,0.0,0.1863575577735901,1526.64111328125,67.08872079849243,0.0610351599752903,21.972657591104507,-986.1965562137931,1,1789158960.0376182,38.99071771,-76.93788373166667,-5.372,0,1,8.590761,17.564480999999997,67.15802500000001,1,1,1789158960.200727,0.9186192543249407,-0.3921889671556108,0.008997177776383147,0.04738702793978095,175.40455471422374,-3.078223897921379,-46.11493898099411,-0.05607585807025101,-0.09126815350868908,-0.09694675676297783,1.2800620456123353,0.5432884189605712,-14.152565247421265
2026-09-11T16:36:00.241,3.2080390400001306,-1793.39794921875,-161405.8154296875,-645623.26171875,-1228.4775952148439,-8.725220947265626,-4.843537330627441,-3.317823071479798,-7.421758839208559,2.1133386102976464,0.0,0.18826299905776978,1542.25048828125,67.77467966079712,0.0,0.0,-657.3865874863908,1,1789158960.0376182,38.99071771,-76.93788373166667,-5.372,0,1,8.590761,17.564480999999997,67.15802500000001,1,1,1789158960.232727,0.9193181100263533,-0.39103531542354636,0.005573252141698274,0.043755382865957315,175.63172773030416,-2.5486108322218577,-45.9880880617197,0.14748555778127684,-0.08503662994736852,-0.09635090135634697,-4.1778291019058225,-1.2012165783119202,-12.62164909067154
2026-09-11T16:36:00.274,3.2414577920001193,-1793.5599365234375,-161420.39428710938,-645681.5771484375,-1228.5885565185547,-8.836182250976563,-4.818645000457764,-3.3007718253135683,-7.383616287834567,0.5102298902794254,0.0,0.18839460611343384,1543.32861328125,67.82205820083618,-0.0610351599752903,-21.972657591104507,-657.4948577107833,1,1789158960.0376182,38.99071771,-76.93788373166667,-5.372,0,1,8.590761,17.564480999999997,67.15802500000001,1,1,1789158960.273727,0.9200955398377133,-0.3896683741572393,0.003359558589536513,0.03964175978036257,175.96426837657188,-2.1248145457709118,-45.83127885547762,0.049236436330460834,-0.04813495903952721,-0.09366972655943327,-1.530131624736786,-0.06227222852706909,-11.080632084255218
2026-09-11T16:36:00.308,3.274872352000102,-1793.7249755859375,-161435.24780273438,-645740.9912109375,-1228.7016082763673,-8.949234008789062,-4.924430847167969,-3.373235130310059,-7.545712084623424,-2.1686146696687847,0.0,0.1871681809425354,1533.28173828125,67.38054513931274,-0.1068115308880806,-38.452151119709015,-493.1830174813898,1,1789158960.0376182,38.99071771,-76.93788373166667,-5.372,0,1,8.590761,17.564480999999997,67.15802500000001,1,1,1789158960.300727,0.920521344956071,-0.3884991720894408,0.004833471842073393,0.04105465035823596,175.87758708331143,-2.3382035049763013,-45.67946350082029,0.012144000935376544,-0.0318260789101166,-0.10908325278257079,1.5897560577201844,1.3253687693595886,-6.455325535469055
2026-09-11T16:36:00.341,3.3082995839999967,-1793.8907470703125,-161450.16723632812,-645800.6689453125,-1228.8151617431643,-9.062787475585939,-4.978219509124756,-3.410080363750458,-7.628132524495468,-1.102252003411928,0.0,0.17899900674819946,1466.35986328125,64.4396424293518,-0.2593994438648224,-93.38379979133606,-1643.3202926225065,1,1789158960.0376182,38.99071771,-76.93788373166667,-5.372,0,1,8.590761,17.564480999999997,67.15802500000001,1,1,1789158960.332727,0.9212598362248624,-0.3865894143063219,0.005849869597425321,0.04236411135534516,175.7790135128563,-2.495076276405933,-45.43692466068186,0.021753783796857322,-0.05202267994834458,-0.1429969200109978,3.08017074930191,0.7213771858978272,-10.580198726501466
2026-09-11T16:36:00.375,3.3417300159999286,-1794.063232421875,-161465.69091796875,-645862.763671875,-1228.9333142089845,-9.180939941406251,-5.083888530731201,-3.482463643550873,-7.790049310018945,-2.165191278430461,0.0,0.17098432779312134,1400.70361328125,61.55435800552368,-0.3356933891773224,-120.84962010383606,-821.5813756925412,1,1789158960.0376182,38.99071771,-76.93788373166667,-5.372,0,1,8.590761,17.564480999999997,67.15802500000001,1,1,1789158960.373727,0.922551682533686,-0.3837364031840297,0.00562836740367414,0.04016325940480581,175.99491102154568,-2.361777952443482,-45.08725401638431,0.00606030676169991,0.013002004795656956,-0.17222490179659566,-0.2941014383506775,-0.2682118819236755,-8.734587166061402
2026-09-11T16:36:00.408,3.375149792000002,-1794.2330322265625,-161480.97290039062,-645923.8916015625,-1229.0496270751953,-9.297252807617188,-5.162931442260742,-3.5366080379486085,-7.911166870858546,-1.6201303802160856,0.0,0.1583119034767151,1296.89111328125,56.99228525161743,-0.3509521782398224,-126.34278416633606,-164.36866789555788,1,1789158960.0376182,38.99071771,-76.93788373166667,-5.372,0,1,8.590761,17.564480999999997,67.15802500000001,1,1,1789158960.400727,0.9234568367334863,-0.38156616571384777,0.004046988368873338,0.040228767788211495,175.91348900687936,-2.1877585168406446,-44.82210946866826,-0.03841783842904878,-0.09982934255557166,-0.17794975627606224,2.255725670204163,0.6519461027526855,-10.976681592540741
2026-09-11T16:36:00.441,3.408573952000097,-1794.4034423828125,-161496.30981445312,-645985.2392578125,-1229.1663580322268,-9.413983764648439,-5.1368513107299805,-3.518743147850037,-7.871204249843488,0.5344903237215476,0.0,0.15585142374038696,1276.73486328125,56.10651254653931,0.0,0.0,3779.983825052797,1,1789158960.0376182,38.99071771,-76.93788373166667,-5.372,0,1,8.590761,17.564480999999997,67.15802500000001,1,1,1789158960.432727,0.924432509556732,-0.37908809733040777,0.005706008646337634,0.041038898649719824,175.89345364002148,-2.38788294507234,-44.50914596084166,-0.03364750451749788,0.08341661533566738,-0.18574526938009492,3.043886143703461,0.26860414793014525,-9.023589146327973
2026-09-11T16:36:00.475,3.441989471999932,-1794.5767822265625,-161511.91040039062,-646047.6416015625,-1229.2850958251954,-9.532721557617188,-5.188498497009277,-3.554121470451355,-7.950343303622385,-1.058739250548637,0.0,0.15763860940933228,1291.37548828125,56.74989938735962,0.0762939527630806,27.465822994709015,821.9480946232375,1,1789158960.0376182,38.99071771,-76.93788373166667,-5.372,0,1,8.590761,17.564480999999997,67.15802500000001,1,1,1789158960.472727,0.9257844803489513,-0.3759131980177153,0.004067517280827127,0.039947700863582396,175.9309900761017,-2.15282389547858,-44.12256928204321,-0.06263026754319052,-0.02835060477062029,-0.17396831118641282,1.3439033381652832,1.253486023674011,-10.504001054744721
2026-09-11T16:36:00.508,3.4754056960000526,-1794.7509765625,-161527.587890625,-646110.3515625,-1229.4044189453125,-9.652044677734375,-5.241009712219238,-3.5900916528701785,-8.030806310106868,-1.0764286957944038,0.0,0.16137129068374634,1321.95361328125,58.09366464614868,0.061035171151161194,21.97266161441803,-164.38605930673575,1,1789158960.0376182,38.99071771,-76.93788373166667,-5.372,0,1,8.590761,17.564480999999997,67.15802500000001,1,1,1789158960.500727,0.9265655466870844,-0.3738723217772608,0.00484151765702108,0.04089418550505367,175.858575269341,-2.266660762582053,-43.86651858742224,0.01738086135598553,-0.007654315967546331,-0.17645941962778428,0.5306378402519226,0.7836494144248962,-9.673377786045075
2026-09-11T16:36:00.541,3.5088256000001365,-1794.9295654296875,-161543.66088867188,-646174.6435546875,-1229.526752319336,-9.774378051757813,-5.319670677185059,-3.6439744138717653,-8.151338613707411,-1.6122955051412304,0.0,0.16471678018569946,1349.35986328125,59.29804086685181,0.045776382088661194,16.47949755191803,-164.3680383548138,1,1789158960.0376182,38.99071771,-76.93788373166667,-5.372,0,1,8.590761,17.564480999999997,67.15802500000001,1,1,1789158960.532727,0.9274341099903216,-0.37166224168930834,0.0024552435425340847,0.04155865142284253,175.6810746555417,-2.0313154554165282,-43.599542284583784,-0.0012747884856566581,-0.06843610529994966,-0.1596527715957049,0.4274718805503845,2.219244931602478,-7.774516115226746
2026-09-11T16:36:00.575,3.5422418240000297,-1795.1107177734375,-161559.96459960938,-646239.8583984375,-1229.6508416748047,-9.898467407226564,-5.424067497253418,-3.7154862356185916,-8.311306003083812,-2.140032989575807,0.0,0.16722112894058228,1369.87548828125,60.19960641860962,0.030517593026161194,10.98633348941803,-164.38613957452398,1,1789158960.0376182,38.99071771,-76.93788373166667,-5.372,0,1,8.590761,17.564480999999997,67.15802500000001,1,1,1789158960.572727,0.9283578987309258,-0.3690145360296793,0.0033486114405949655,0.04436970660394672,175.41308450253334,-2.2330124048888504,-43.26537491778626,-0.052803714788612045,-0.037602071536666636,-0.15553362002807308,3.5376509793472293,2.1729575428390504,-8.53002044368744
2026-09-11T16:36:00.608,3.575655968000092,-1795.294677734375,-161576.52099609375,-646306.083984375,-1229.776854248047,-10.024479980468751,-5.503262996673584,-3.769735152721405,-8.432657374555747,-1.6235315530666485,0.0,0.16824346780776978,1378.25048828125,60.56764841079712,0.0,0.0,-328.7929054653501,1,1789158960.0376182,38.99071771,-76.93788373166667,-5.372,0,1,8.590761,17.564480999999997,67.15802500000001,1,1,1789158960.600727,0.9290936612525428,-0.36734770670962286,0.0041644932813682195,0.04269997647816499,175.6215892383897,-2.2414030257928506,-43.06029179423716,0.06639092848246271,-0.005787686332538396,-0.15305333262806395,2.1032322601890563,0.4415934567832947,-10.152334579944611
2026-09-11T16:36:00.641,3.60907887999997,-1795.479248046875,-161593.13232421875,-646372.529296875,-1229.9032849121095,-10.150910644531251,-5.530908107757568,-3.7886720538139347,-8.47501801586867,-0.566584416480485,0.0,0.16663938760757446,1365.10986328125,59.99017953872681,-0.0610351637005806,-21.972658932209015,-657.4130624012994,1,1789158960.0376182,38.99071771,-76.93788373166667,-5.372,0,1,8.590761,17.564480999999997,67.15802500000001,1,1,1789158960.632727,0.9298718712449188,-0.36530413324926414,0.006351282138727871,0.04302155870806389,175.67353358087658,-2.4784522840867234,-42.80155288069274,0.03636096790557347,0.0018552849948699724,-0.15837903030759945,0.89309163022995,-0.7965941926383971,-6.216925870037079
2026-09-11T16:36:00.675,3.642496127999948,-1795.6661376953125,-161609.95239257812,-646439.8095703125,-1230.031304321289,-10.278930053710939,-5.584395408630371,-3.8253108549118044,-8.556976679741858,-1.0964039018980252,0.0,0.16561704874038696,1356.73486328125,59.62213754653931,-0.015258789993822575,-5.493164397776127,493.14337716989075,1,1789158960.0376182,38.99071771,-76.93788373166667,-5.372,0,1,8.590761,17.564480999999997,67.15802500000001,1,1,1789158960.6727269,0.9309607238220723,-0.36255052591761044,0.008638265432088387,0.0423630408241886,175.83133855608085,-2.6824943887529873,-42.457910228997264,0.029434454236108767,0.03785113002092622,-0.181598018011506,-0.19730980125427244,0.21888443161010743,-9.648566961135865
2026-09-11T16:36:00.708,3.6759128000001056,-1795.8529052734375,-161626.76147460938,-646507.0458984375,-1230.1592401123048,-10.406865844726564,-5.611403942108154,-3.843811700344086,-8.598361892323018,-0.5536411714546022,0.0,0.16143804788589478,1322.50048828125,58.11769723892212,-0.1220703274011612,-43.94531786441803,-1150.687700632203,1,1789158960.0376182,38.99071771,-76.93788373166667,-5.372,0,1,8.590761,17.564480999999997,67.15802500000001,1,1,1789158960.700727,0.9317660718937683,-0.3603802852716527,0.009436297641551726,0.042999924906904005,175.7897216070161,-2.7843812250966145,-42.18770143593026,-0.02041232373377448,0.05011590774054078,-0.1776263467656677,1.6454578306388854,0.9717409645271301,-9.24669043750763
2026-09-11T16:36:00.742,3.7093367360000684,-1796.04248046875,-161643.8232421875,-646575.29296875,-1230.2890991210938,-10.536724853515626,-5.665177345275879,-3.880646481513977,-8.680758951131828,-1.1020479805230656,0.0,0.1578999161720276,1293.51611328125,56.84396982192993,-0.0457763709127903,-16.479493528604507,821.7411718309911,1,1789158960.0376182,38.99071771,-76.93788373166667,-5.372,0,1,8.590761,17.564480999999997,67.15802500000001,1,1,1789158960.732727,0.932856491187879,-0.35738774064336754,0.013709160409911785,0.04318366134689189,175.9353320237012,-3.235721563253253,-41.809936000810424,-0.010464470596182402,0.1167782349216886,-0.2077945374193149,3.2414901444625857,0.8502365690231323,-10.155178508491515
2026-09-11T16:36:00.775,3.742756831999941,-1796.2294921875,-161660.654296875,-646642.6171875,-1230.4172021484376,-10.664827880859375,-5.61356258392334,-3.845290369987488,-8.601669582112303,1.0579296817885857,0.0,0.1561928391456604,1279.53173828125,56.229422092437744,0.0,0.0,493.10132229025845,1,1789158960.0376182,38.99071771,-76.93788373166667,-5.372,0,1,8.590761,17.564480999999997,67.15802500000001,1,1,1789158960.772727,0.9343050858602557,-0.35354926320717867,0.016000548807927156,0.042672092275474395,176.06944478378315,-3.4439548067722314,-41.335955331794835,-0.04995865357493609,0.05678289095023392,-0.22571086578981228,1.9649584929084778,0.6221338862609863,-11.427689433479308
2026-09-11T16:36:00.809,3.7761743999999453,-1796.4150390625,-161677.353515625,-646709.4140625,-1230.5443017578125,-10.791927490234375,-5.534976005554199,-3.791458563804627,-8.481251261195021,1.6108834186513519,0.0,0.1547718644142151,1267.89111328125,55.71787118911743,-0.0762939527630806,-27.465822994709015,-821.8977214232168,1,1789158960.0376182,38.99071771,-76.93788373166667,-5.372,0,1,8.590761,17.564480999999997,67.15802500000001,1,1,1789158960.800727,0.9353956385964115,-0.35062878790055946,0.01736298693644797,0.042343583632480516,176.1485401648598,-3.564737954843546,-40.97666598431362,-0.03353126558931506,0.03753103663611047,-0.2429048023829092,-0.5494666085624695,-0.10865768379211425,-6.991062833805085
2026-09-11T16:36:00.842,3.8096016960000725,-1796.5994873046875,-161693.95385742188,-646775.8154296875,-1230.670648803711,-10.918274536132813,-5.509032249450684,-3.7736870908737186,-8.441497608432611,0.5316455429371495,0.0,0.1530190110206604,1253.53173828125,55.086843967437744,-0.030517593026161194,-10.98633348941803,492.99499143539134,1,1789158960.0376182,38.99071771,-76.93788373166667,-5.372,0,1,8.590761,17.564480999999997,67.15802500000001,1,1,1789158960.832727,0.9367749734198756,-0.34710165240997964,0.01733666143767517,0.04089660424348818,176.28998974630022,-3.489846604987046,-40.54912720847129,-0.03631506574624602,-0.052615393762321855,-0.2444794384340585,2.842163349876404,1.7993241716766357,-19.549557097435
2026-09-11T16:36:00.875,3.843019808000008,-1796.7789306640625,-161710.10375976562,-646840.4150390625,-1230.793567504883,-11.041193237304688,-5.432433128356934,-3.7212166929244996,-8.324124671001467,1.5701185617344229,0.0,0.15254026651382446,1249.60986328125,54.91449594497681,-0.030517593026161194,-10.98633348941803,0.0,1,1789158960.0376182,38.99071771,-76.93788373166667,-5.372,0,1,8.590761,17.564480999999997,67.15802500000001,1,1,1789158960.872727,0.938510674564888,-0.34254211410074437,0.019002594738203777,0.038749389522509496,176.56988998419067,-3.566953190953891,-39.99578819774666,-0.03016103480371401,0.018589676395916802,-0.2443303873159382,2.005852224082947,0.03540200708389282,-12.446110052776337
2026-09-11T16:36:00.909,3.8764373120000073,-1796.9588623046875,-161726.29760742188,-646905.1904296875,-1230.916820678711,-11.164446411132813,-5.355691909790039,-3.668648958206177,-8.206533997418962,1.5730598765941302,0.0,0.15194517374038696,1244.73486328125,54.70026254653931,0.0,0.0,328.75984661865607,1,1789158960.0376182,38.99071771,-76.93788373166667,-5.372,0,1,8.590761,17.564480999999997,67.15802500000001,1,1,1789158960.900727,0.9396788581502883,-0.3391571368156322,0.02179703408416966,0.03874234630900227,176.66596107829548,-3.8557017612035573,-39.57968799284562,0.022605329938905357,0.058186135668837353,-0.2649125315859317,5.606069631462097,0.3182257977485657,-7.147969236392975
2026-09-11T16:36:00.942,3.909851807999985,-1797.1357421875,-161742.216796875,-646968.8671875,-1231.0379833984375,-11.285609130859376,-5.3048553466796875,-3.633825912475586,-8.128637062624334,1.0421538523464335,0.0,0.1492481827735901,1222.64111328125,53.72934579849243,-0.0915527492761612,-32.95898973941803,-986.368004456513,1,1789158960.0376182,38.99071771,-76.93788373166667,-5.372,0,1,8.590761,17.564480999999997,67.15802500000001,1,1,1789158960.932727,0.9412484156219367,-0.3347889443932422,0.024376111565801207,0.037061947954526796,176.928541647238,-4.054412935837125,-39.05078389957687,0.045606500552163025,-0.021017429385440916,-0.2972742520434854,0.0007845320129394532,-1.550431390571594,-10.905583378868103
2026-09-11T16:36:00.976,3.943271072000016,-1797.31201171875,-161758.0810546875,-647032.32421875,-1231.1587280273438,-11.406353759765626,-5.253993034362793,-3.5989852285385133,-8.0507006722855,1.0425329515647137,0.0,0.14602667093276978,1196.25048828125,52.56960153579712,-0.1373291164636612,-49.43848192691803,-493.1135583202759,1,1789158960.0376182,38.99071771,-76.93788373166667,-5.372,0,1,8.590761,17.564480999999997,67.15802500000001,1,1,1789158960.972727,0.943199444608854,-0.3290680113844965,0.028268095487978616,0.035916101549096295,177.17451396155138,-4.4139961138338215,-38.357301358676075,0.017205455766160102,0.16822111649252067,-0.3318602200997806,4.144976823863983,0.20584158689498902,-13.207498371334076
2026-09-11T16:36:01.009,3.976683456000046,-1797.4857177734375,-161773.71459960938,-647094.8583984375,-1231.2777166748049,-11.525342407226564,-5.228882789611816,-3.5817847108840946,-8.012224210102207,0.5147946837437045,0.0,0.14254194498062134,1167.70361328125,51.31510019302368,-0.01525880303233862,-5.493169091641903,1315.2402664603756,1,1789158960.0376182,38.99071771,-76.93788373166667,-5.372,0,1,8.590761,17.564480999999997,67.15802500000001,1,1,1789158961.000727,0.9445947567015505,-0.32480301070426276,0.032292706632367205,0.034654450619522804,177.44104884679362,-4.790854473174732,-37.844443665884135,0.0637101027513994,0.13438057855975222,-0.33399632857129646,1.30546126953125,0.05815343545913697,-9.221291213588714
2026-09-11T16:36:01.043,4.010114943999952,-1797.6563720703125,-161789.07348632812,-647156.2939453125,-1231.3946148681641,-11.642240600585938,-5.126563549041748,-3.5116960310935976,-7.8554402986166645,2.096486994258074,0.0,0.14246565103530884,1167.07861328125,51.28763437271118,0.0457763709127903,16.479493528604507,657.2445300762104,1,1789158961.0377972,38.990701181666665,-76.93787722166667,-5.407,0,1,8.037225,17.372224000000003,67.14163600000002,1,1,1789158961.040727,0.9467783278765359,-0.31828150036517017,0.034087694119846655,0.03384838989078796,177.56116341741813,-4.938914810949249,-37.05733474999286,0.031802516965214675,0.16225610470797963,-0.3137848922344265,-0.021280430850982666,0.2525212416648865,-13.07098980108261
2026-09-11T16:36:01.076,4.043536672000073,-1797.826416015625,-161804.37744140625,-647217.509765625,-1231.5110949707032,-11.758720703125,-5.075156211853027,-3.476482005119324,-7.776668765925465,1.0536267297174455,0.0,0.14603430032730103,1196.31298828125,52.57234811782837,0.015258817933499813,5.493174456059933,-328.7178649920413,1,1789158961.0377972,38.990701181666665,-76.93787722166667,-5.407,0,1,8.037225,17.372224000000003,67.14163600000002,1,1,1789158961.072727,0.9481743482571019,-0.31351270566282957,0.03857533254561185,0.0344547879718808,177.6309138490128,-5.437294085946786,-36.48030012541614,-0.00027611108766550295,0.16883704318554946,-0.28920192972008635,3.5696206588745114,1.120998179988861,-11.295789988803865
2026-09-11T16:36:01.110,4.076953856000046,-1797.99853515625,-161819.8681640625,-647279.47265625,-1231.6289965820313,-11.876622314453126,-5.128902435302734,-3.513298168182373,-7.859024177215393,-1.1017135095249022,0.0,0.15110021829605103,1237.81298828125,54.39607858657837,0.3356933891773224,120.84962010383606,3452.0097698199415,1,1789158961.0377972,38.990701181666665,-76.93787722166667,-5.407,0,1,8.037225,17.372224000000003,67.14163600000002,1,1,1789158961.100727,0.9492583884461577,-0.3098897696224008,0.040253671494681585,0.03544692623031083,177.56106070352902,-5.6465563069227125,-36.038724260602564,0.06691871604826578,0.05793236479559738,-0.2637403684602923,-0.32342332233428955,-0.5796710910606384,-5.66549793144226
2026-09-11T16:36:01.143,4.110375168000019,-1798.17138671875,-161835.4248046875,-647341.69921875,-1231.747399902344,-11.995025634765627,-5.154898643493652,-3.531105570793152,-7.898858202382669,-0.5328157856517772,0.0,0.1685505509376526,1380.76611328125,60.67819833755493,0.4272461533546448,153.80861520767212,986.1670033738524,1,1789158961.0377972,38.990701181666665,-76.93787722166667,-5.407,0,1,8.037225,17.372224000000003,67.14163600000002,1,1,1789158961.140727,0.9502819072038463,-0.3069097728089597,0.03954117005196173,0.03474455448404735,177.5952301259047,-5.53635944233015,-35.68120600542907,-0.1908983539966082,-0.06948277925237065,-0.13464377421095294,0.42756994705200196,-3.1446985073661806,-8.101273698616028
2026-09-11T16:36:01.176,4.143803167999977,-1798.3394775390625,-161850.55297851562,-647402.2119140625,-1231.8625421142578,-12.110167846679689,-5.07652473449707,-3.4774194431304934,-7.778765755034202,1.6060227253418076,0.0,0.18588262796401978,1522.75048828125,66.91774606704712,0.7476807236671448,269.1650605201721,3450.892823759865,1,1789158961.0377972,38.990701181666665,-76.93787722166667,-5.407,0,1,8.037225,17.372224000000003,67.14163600000002,1,1,1789158961.1727269,0.9508763146033067,-0.3051816010383937,0.03842457266520987,0.034956786602490214,177.52294723601523,-5.417383874155773,-35.470621175228835,0.03155747273823467,-0.09490088181379008,-0.06343259540033232,0.7233385159301758,2.2463112860488894,-9.739180408630371
2026-09-11T16:36:01.210,4.177220832000103,-1798.5098876953125,-161865.88989257812,-647463.5595703125,-1231.979273071289,-12.226898803710938,-5.051398277282715,-3.46020781993866,-7.740264450471225,0.5150456714080442,0.0,0.1911373734474182,1565.79736328125,68.80945444107056,0.2593994438648224,93.38379979133606,-5260.130113468528,1,1789158961.0377972,38.990701181666665,-76.93787722166667,-5.407,0,1,8.037225,17.372224000000003,67.14163600000002,1,1,1789158961.200727,0.9511353304756878,-0.30428469977373557,0.03889385166365632,0.03520898901242906,177.50650819371467,-5.475133899683276,-35.36150492695073,0.04703993946682598,-0.03449678173151832,-0.04740785487314638,1.7113585197257994,0.9959633904266357,-7.2348561568260195
2026-09-11T16:36:01.243,4.210637376000022,-1798.6834716796875,-161881.51245117188,-647526.0498046875,-1232.098178100586,-12.345803833007814,-5.157114505767822,-3.5326234364509586,-7.902253571159079,-2.1670588230929124,0.0,0.19463545083999634,1594.45361328125,70.06876230239868,0.015258802101016045,5.493168756365776,-2630.1532269519425,1,1789158961.0377972,38.990701181666665,-76.93787722166667,-5.407,0,1,8.037225,17.372224000000003,67.14163600000002,1,1,1789158961.240727,0.951272051537483,-0.3039183148557203,0.03857643102333651,0.03502857160132943,177.51314538536178,-5.433190508395885,-35.317912055273965,0.060718259347630726,0.04212683762246193,-0.025751984047325933,3.7841901644134524,0.15494507255554202,-8.17070478176117
2026-09-11T16:36:01.277,4.244057632000022,-1798.85595703125,-161897.0361328125,-647588.14453125,-1232.2163305664064,-12.463956298828126,-5.157809257507324,-3.5330993413925174,-7.90331814019442,-0.014240014844853688,0.0,0.1926327347755432,1578.04736328125,69.34778451919556,0.0915527418255806,32.958987057209015,821.831475523219,1,1789158961.0377972,38.990701181666665,-76.93787722166667,-5.407,0,1,8.037225,17.372224000000003,67.14163600000002,1,1,1789158961.272727,0.9516512599448889,-0.3031668090004099,0.03741785202230193,0.03239860669614821,177.75695367484303,-5.213190988709225,-35.23842888547702,0.049211478122157315,-0.018777822889281794,-0.03920934524482821,-0.2751746035385132,-1.0322479960250854,-7.59299502073288
2026-09-11T16:36:01.310,4.277479584000048,-1799.0274658203125,-161912.47192382812,-647649.8876953125,-1232.3338140869141,-12.58143981933594,-5.18492317199707,-3.5516723728179933,-7.944864828243534,-0.5557135449617504,0.0,0.19076353311538696,1562.73486328125,68.6748719215393,0.0,0.0,-986.1478784118686,1,1789158961.0377972,38.990701181666665,-76.93787722166667,-5.407,0,1,8.037225,17.372224000000003,67.14163600000002,1,1,1789158961.300727,0.9519463218561136,-0.302395527814702,0.03571520855761445,0.032856794426271346,177.64364265848636,-5.041048078276402,-35.142228754358584,0.0219141795551156,-0.052763397682890976,-0.08826915425498723,-1.3346850870132445,-2.670154706039429,-11.31952208219528
2026-09-11T16:36:01.343,4.310898208000026,-1799.202880859375,-161928.25927734375,-647713.037109375,-1232.453973388672,-12.701599121093752,-5.2123823165893555,-3.5704818868637087,-7.986940512848301,-0.5628452579534017,0.0,0.18914037942886353,1549.43798828125,68.09053659439087,-0.0762939527630806,-27.465822994709015,-821.8717501572486,1,1789158961.0377972,38.990701181666665,-76.93787722166667,-5.407,0,1,8.037225,17.372224000000003,67.14163600000002,1,1,1789158961.340727,0.9524842282960482,-0.30056352414866605,0.03637608375106454,0.033348813015624805,177.60267175087085,-5.1257635030106155,-34.91964001793283,-0.01461399089279892,0.03936188702145251,-0.100832557809618,3.9040274293899535,2.8246094460868836,-7.719402741317749
2026-09-11T16:36:01.377,4.34432611200009,-1799.38232421875,-161944.4091796875,-647777.63671875,-1232.5768920898438,-12.824517822265626,-5.266102313995361,-3.6072800850868227,-8.069255737935798,-1.100822780364686,0.0,0.18728262186050415,1534.21923828125,67.4217438697815,-0.0915527418255806,-32.958987057209015,-164.32870162872064,1,1789158961.0377972,38.990701181666665,-76.93787722166667,-5.407,0,1,8.037225,17.372224000000003,67.14163600000002,1,1,1789158961.373727,0.9530438966439821,-0.29880743248841046,0.03583399299384025,0.033724980436704625,177.53342544344812,-5.074862106796909,-34.70617582851049,-0.03938562349927964,0.047612407461480113,-0.12461127260463915,5.273918390483856,0.11856240045547485,-12.715302599716185
2026-09-11T16:36:01.410,4.377744320000147,-1799.55859375,-161960.2734375,-647841.09375,-1232.6976367187501,-12.945262451171876,-5.319674015045166,-3.643976700305939,-8.151343728314993,-1.0981024242548607,0.0,0.18673521280288696,1529.73486328125,67.2246766090393,-0.015258795581758022,-5.493166409432888,821.8819108352247,1,1789158961.0377972,38.990701181666665,-76.93787722166667,-5.407,0,1,8.037225,17.372224000000003,67.14163600000002,1,1,1789158961.400727,0.9535997458790532,-0.2975083280831206,0.03261617466085304,0.03274911496642931,177.5242636498616,-4.685818273947264,-34.55291492328256,-0.005877396256090905,-0.030632797300528078,-0.12154787070153869,-1.3640069709968565,0.9687989694786072,-7.6458528651046755
2026-09-11T16:36:01.444,4.411165023999956,-1799.7381591796875,-161976.43432617188,-647905.7373046875,-1232.820639038086,-13.068264770507813,-5.373420238494873,-3.680792863368988,-8.233699139604921,-1.1015974727300633,0.0,0.1868324875831604,1530.53173828125,67.25969552993774,0.0,0.0,164.36417406001567,1,1789158961.0377972,38.990701181666665,-76.93787722166667,-5.407,0,1,8.037225,17.372224000000003,67.14163600000002,1,1,1789158961.440727,0.9541898040255287,-0.29572236947297215,0.03125740905850471,0.03306164644967509,177.43528787484078,-4.542878568322381,-34.33674790987517,-0.020229936826941075,-0.06550918814435516,-0.09345365479803637,0.779726754360199,2.2402311629486085,-9.046046375198365
2026-09-11T16:36:01.477,4.4446102080000855,-1799.9200439453125,-161992.80395507812,-647971.2158203125,-1232.9452301025392,-13.19285583496094,-5.452096939086914,-3.7346864032745364,-8.354255554926924,-1.6113991152011566,0.0,0.18787771463394165,1539.09423828125,67.635977268219,0.0915527418255806,32.958987057209015,985.4628713384143,1,1789158961.0377972,38.990701181666665,-76.93787722166667,-5.407,0,1,8.037225,17.372224000000003,67.14163600000002,1,1,1789158961.473727,0.9547499638525152,-0.2943912464173539,0.027216985857014542,0.03233475277957992,177.37298357752863,-4.071941099055134,-34.1802407814921,0.01146838398192954,-0.1391941966367526,-0.08094575271361902,-3.51813574552536,1.1156045223999023,-8.288972982711792
2026-09-11T16:36:01.511,4.47802640000009,-1800.108642578125,-162009.77783203125,-648039.111328125,-1233.0744201660157,-13.322045898437501,-5.607875347137451,-3.8413946127891543,-8.592955021450317,-3.1933084869336517,0.0,0.19219404458999634,1574.45361328125,69.18985605239868,0.0762939602136612,27.46582567691803,-164.38621672661833,1,1789158961.0377972,38.990701181666665,-76.93787722166667,-5.407,0,1,8.037225,17.372224000000003,67.14163600000002,1,1,1789158961.500727,0.9550765219772779,-0.29378562387876817,0.022909312862344183,0.0315278885135737,177.31452571073368,-3.5709890756680918,-34.112513467572406,0.033473146125223646,-0.18638702694605325,-0.060526971261612154,-3.959336936302185,0.49082284059524534,-12.672937871017457
2026-09-11T16:36:01.544,4.51144432000001,-1800.30126953125,-162027.1142578125,-648108.45703125,-1233.2063696289063,-13.453995361328126,-5.764655590057373,-3.948789079189301,-8.833189600906623,-3.2136789602825178,0.0,0.20017248392105103,1639.81298828125,72.06209421157837,0.1678467094898224,60.42481541633606,986.2669411949366,1,1789158961.0377972,38.990701181666665,-76.93787722166667,-5.407,0,1,8.037225,17.372224000000003,67.14163600000002,1,1,1789158961.540727,0.9551695925201035,-0.2938049068363881,0.017384439859622895,0.03205475775307348,177.07151615211674,-2.983356422056757,-34.11894234291803,-0.004226838382479867,-0.15400890039353082,-0.007674561786869466,-3.3253370033454894,2.6947693979454037,-8.230721480751038
2026-09-11T16:36:01.578,4.544873984000105,-1800.5029296875,-162045.263671875,-648181.0546875,-1233.3445068359376,-13.592132568359377,-5.947739124298096,-4.074201300144196,-9.113728749427773,-3.7515250214461027,0.0,0.20855718851089478,1708.50048828125,75.08058786392212,0.2593994438648224,93.38379979133606,985.920300452485,1,1789158961.0377972,38.990701181666665,-76.93787722166667,-5.407,0,1,8.037225,17.372224000000003,67.14163600000002,1,1,1789158961.572727,0.9550204336487822,-0.2944179243702755,0.014248932891101749,0.03241951625573009,176.92805885799322,-2.6540769783156244,-34.19625133275543,0.1823666610140843,-0.19247613164041105,-0.008265879337445145,2.2834784901618956,2.351732775287628,-16.881854053936006
2026-09-11T16:36:01.611,4.578313760000128,-1800.701904296875,-162063.17138671875,-648252.685546875,-1233.4808044433594,-13.72843017578125,-6.001200199127197,-4.11082213640213,-9.195647227098528,-1.0951280372783905,0.0,0.2112293839454651,1730.39111328125,76.04257822036743,0.030517593026161194,10.98633348941803,-2464.0555696862803,1,1789158961.0377972,38.990701181666665,-76.93787722166667,-5.407,0,1,8.037225,17.372224000000003,67.14163600000002,1,1,1789158961.600727,0.9549715841817837,-0.2947307157549615,0.010804493495674522,0.03234720260245958,176.82096215323077,-2.275435158804652,-34.24020305767575,0.03520974873095801,-0.14987334273093025,0.03920131673026904,0.7130415332603455,0.8158152269554139,-1.1195271824645996
2026-09-11T16:36:01.645,4.611755264000067,-1800.907958984375,-162081.71630859375,-648326.865234375,-1233.621951904297,-13.86957763671875,-6.106556415557861,-4.1829911446571355,-9.357084700825721,-2.1580670610729107,0.0,0.21133428812026978,1731.25048828125,76.08034372329712,0.0,0.0,-328.52390518794346,1,1789158961.0377972,38.990701181666665,-76.93787722166667,-5.407,0,1,8.037225,17.372224000000003,67.14163600000002,1,1,1789158961.6406796,0.9547488101987915,-0.2953794039224833,0.009045803049759922,0.03352447776737869,176.63414933994315,-2.1248896551607492,-34.31951886319488,0.02008088570882076,-0.1051740643239539,-0.012706171487443919,2.827257241630554,2.865405110759735,-5.4419063077545164
2026-09-11T16:36:01.678,4.64517366400014,-1801.1148681640625,-162100.33813476562,-648401.3525390625,-1233.7636846923829,-14.01131042480469,-6.159607887268066,-4.219331402778626,-9.438375543080308,-1.0874326156072944,0.0,0.21048933267593384,1724.32861328125,75.77615976333618,-0.1373291313648224,-49.43848729133606,-1479.379242908928,1,1789158961.0377972,38.990701181666665,-76.93787722166667,-5.407,0,1,8.037225,17.372224000000003,67.14163600000002,1,1,1789158961.6726797,0.9546516387995924,-0.295708756763669,0.008793634986793204,0.033455219237914405,176.63395745824243,-2.0961018451742444,-34.35973102590127,-0.005823989180979878,-0.005514367771676084,-0.054582728895169866,-4.102612095165252,2.6503452727127077,-8.940722952461241
2026-09-11T16:36:01.711,4.678590239999949,-1801.3197021484375,-162118.77319335938,-648475.0927734375,-1233.9039959716797,-14.151621704101563,-6.10914945602417,-4.184767377376557,-9.36105802025893,1.0343377311388013,0.0,0.2077370285987854,1701.78173828125,74.78533029556274,-0.3509521782398224,-126.34278416633606,-2301.381711742113,1,1789158961.0377972,38.990701181666665,-76.93787722166667,-5.407,0,1,8.037225,17.372224000000003,67.14163600000002,1,1,1789158961.7006795,0.954707552587063,-0.29557704619666486,0.009046112417158076,0.032952490725450416,176.6972892467072,-2.106253734404894,-34.344275369720236,-0.016121606300671623,-0.03541988637289812,-0.004433136300065597,-0.9582077873039246,-0.14935528196334838,-6.979490986614227
2026-09-11T16:36:01.745,4.712008672000138,-1801.5264892578125,-162137.38403320312,-648549.5361328125,-1234.0456451416017,-14.293270874023438,-6.214199066162109,-4.2567263603210455,-9.522025680746781,-2.153272270347115,0.0,0.20072561502456665,1644.34423828125,72.261221408844,-0.3356933891773224,-120.84962010383606,164.37527836341454,1,1789158961.0377972,38.990701181666665,-76.93787722166667,-5.407,0,1,8.037225,17.372224000000003,67.14163600000002,1,1,1789158961.7406795,0.9548642847092513,-0.2953362130883679,0.006195478610040578,0.03118228776252058,176.79458902409212,-1.7334732381943636,-34.3248080687799,0.007039785537919128,0.09578122588849602,-0.06760672483940196,-0.6842099817848205,0.9504605336761475,-7.906121360397339
2026-09-11T16:36:01.778,4.745429375999947,-1801.734619140625,-162156.11572265625,-648624.462890625,-1234.1882141113283,-14.435839843750001,-6.215493679046631,-4.257613170146943,-9.52400941783048,-0.026534744028805,0.0,0.18622785806655884,1525.57861328125,67.04202890396118,-0.18310552835464478,-65.91799020767212,1643.6407173373032,1,1789158961.0377972,38.990701181666665,-76.93787722166667,-5.407,0,1,8.037225,17.372224000000003,67.14163600000002,1,1,1789158961.7726796,0.9552295409587295,-0.2941123214740765,0.01047042184442309,0.03041112795185902,177.0205612360494,-2.1715650902828876,-34.17040406881087,0.0074996797958196346,0.1485427037092098,-0.08465946429601254,8.173940976314544,-2.159718565120697,-8.257199436187744
2026-09-11T16:36:01.811,4.778848383999957,-1801.9376220703125,-162174.38598632812,-648697.5439453125,-1234.3272711181642,-14.574896850585938,-6.111849308013916,-4.186616775989533,-9.365195007134771,2.124431525836702,0.0,0.1742439866065979,1427.40673828125,62.727835178375244,-0.5950928330421448,-214.23341989517212,-4438.05602151495,1,1789158961.0377972,38.990701181666665,-76.93787722166667,-5.407,0,1,8.037225,17.372224000000003,67.14163600000002,1,1,1789158961.8006797,0.9557605289885033,-0.29233433770225425,0.013104172232475259,0.02984504813034409,177.16657166461178,-2.4357105733811624,-33.95389856738319,0.04240469403937943,0.17732388120629708,-0.16092127689605437,3.3856479018402097,-0.6587126913642882,-8.418911097354888
2026-09-11T16:36:01.845,4.812275072000148,-1802.1390380859375,-162192.51342773438,-648770.0537109375,-1234.4652410888673,-14.712866821289063,-6.034131050109863,-4.1333797693252565,-9.24610721484711,1.5926497612917248,0.0,0.15601927042007446,1278.10986328125,56.16693735122681,-0.4577637314796448,-164.79494333267212,1479.0121163729464,1,1789158961.0377972,38.990701181666665,-76.93787722166667,-5.407,0,1,8.037225,17.372224000000003,67.14163600000002,1,1,1789158961.8406796,0.9567951230730762,-0.2889036219329586,0.01531211926696389,0.02904012226470767,177.31911909029088,-2.641165777048706,-33.54149593797212,-0.02006168708704882,0.06692098497629338,-0.2316764011731289,3.519508676548004,-0.026281822433471682,-11.461130110530853
2026-09-11T16:36:01.878,4.845693120000078,-1802.3377685546875,-162210.39916992188,-648841.5966796875,-1234.601371459961,-14.848997192382814,-6.008984565734863,-4.1161544275283815,-9.207575222638638,0.5154502679782773,0.0,0.15233808755874634,1247.95361328125,54.84171152114868,0.0610351637005806,21.972658932209015,5588.824406059563,1,1789158961.0377972,38.990701181666665,-76.93787722166667,-5.407,0,1,8.037225,17.372224000000003,67.14163600000002,1,1,1789158961.8736796,0.9577261495380718,-0.2856330561958329,0.016448211669019806,0.030063865887446188,177.2345886518304,-2.790274666422866,-33.14609588527208,-0.043206672830670825,0.040464411509937334,-0.2629799285051984,1.3593978454208373,0.7993400546836853,-12.725599582386016
2026-09-11T16:36:01.911,4.879107168000019,-1802.5404052734375,-162228.63647460938,-648914.5458984375,-1234.7401776123047,-14.987803344726563,-6.06148624420166,-4.152118077278137,-9.2880236159586,-1.0763032886593082,0.0,0.1537190079689026,1259.26611328125,55.33884286880493,0.015258817933499813,5.493174456059933,-493.19030355670816,1,1789158961.0377972,38.990701181666665,-76.93787722166667,-5.407,0,1,8.037225,17.372224000000003,67.14163600000002,1,1,1789158961.9006796,0.958586704559261,-0.282684696794083,0.018424064179042174,0.029350398630678846,177.36832067337704,-2.975902253643929,-32.792927835623544,0.036574770738942775,0.012735318485952224,-0.2537218294879945,3.4738096867942807,0.7845320129394532,-14.41430474023819
2026-09-11T16:36:01.945,4.912525504000087,-1802.73779296875,-162246.4013671875,-648985.60546875,-1234.875388183594,-15.123013916015626,-5.958670139312744,-4.08168904542923,-9.130478358601524,2.1074966703537896,0.0,0.15641599893569946,1281.35986328125,56.30975961685181,-0.0915527418255806,-32.958987057209015,-1150.6306452000117,1,1789158961.0377972,38.990701181666665,-76.93787722166667,-5.407,0,1,8.037225,17.372224000000003,67.14163600000002,1,1,1789158961.9406796,0.9599441828141917,-0.2781214181780969,0.014999013166049185,0.030506921113783038,177.11798328423257,-2.623096945796632,-32.24942570762466,-0.01409091571597622,-0.016194561063404986,-0.238842199483042,-0.6809737872314453,0.9411442160224914,-12.047960056209565
2026-09-11T16:36:01.978,4.9459454400000595,-1802.9306640625,-162263.759765625,-649055.0390625,-1235.0075048828126,-15.255130615234377,-5.778004169464111,-3.9579328560829166,-8.8536436472864,3.703064821740343,0.0,0.1573811173439026,1289.26611328125,56.65720224380493,-0.0915527418255806,-32.958987057209015,0.0,1,1789158961.0377972,38.990701181666665,-76.93787722166667,-5.407,0,1,8.037225,17.372224000000003,67.14163600000002,1,1,1789158961.9726796,0.9610137983536766,-0.27465335747363806,0.014695135251120331,0.028320762741285237,177.34019469246195,-2.510429392844946,-31.841099114472215,0.04819325303654383,0.025708699881876476,-0.2151804217479045,1.665561463470459,-0.4945493676567078,-10.645412950077057
2026-09-11T16:36:02.012,4.979360000000042,-1803.1207275390625,-162280.86547851562,-649123.4619140625,-1235.1376983642579,-15.385324096679689,-5.675976753234863,-3.888044075965882,-8.697306898635196,2.0915666738412986,0.0,0.15462881326675415,1266.71923828125,55.666372776031494,-0.1220703274011612,-43.94531786441803,-328.78873183470444,1,1789158961.0377972,38.990701181666665,-76.93787722166667,-5.407,0,1,8.037225,17.372224000000003,67.14163600000002,1,1,1789158962.0006795,0.9618676018656158,-0.2716253420670834,0.01681971350893325,0.027340213344203272,177.50647303346332,-2.7058973629626766,-31.479788897028154,0.05878146747669262,-0.003920882164605261,-0.28054457303141894,3.1711764628028867,-0.21035264596939088,-9.156861522026063
2026-09-11T16:36:02.046,5.012785919999942,-1803.3092041015625,-162297.82836914062,-649191.3134765625,-1235.2668048095704,-15.514430541992189,-5.6262969970703125,-3.8540134429931645,-8.62118254069694,1.0180911392362435,0.0,0.1520596146583557,1245.67236328125,54.74146127700806,-0.04577639698982239,-16.47950291633606,821.6921164223585,1,1789158962.0366108,38.99068450833333,-76.93786703166667,-5.477,0,1,8.179599999999999,9.253763999999999,59.582961000000005,1,1,1789158962.0406797,0.9631827059175188,-0.2669869748336305,0.018030637929884543,0.025921542902273272,177.68725186261395,-2.7842396246687295,-30.929732061940047,0.03835832270155577,0.07914823811699005,-0.30823579241063576,-0.314205071182251,-0.3129302066612244,-12.165247592144013
2026-09-11T16:36:02.078,5.046204991999957,-1803.4954833984375,-162314.59350585938,-649258.3740234375,-1235.3944061279299,-15.642031860351564,-5.6017165184021,-3.8371758151054385,-8.583517839802779,0.5038328978051333,0.0,0.15124517679214478,1239.00048828125,54.44826364517212,-0.015258789993822575,-5.493164397776127,328.7445719185426,1,1789158962.0366108,38.99068450833333,-76.93786703166667,-5.477,0,1,8.179599999999999,9.253763999999999,59.582961000000005,1,1,1789158962.0736797,0.9643409476453838,-0.26261261465905317,0.020753545307197516,0.02550375802740875,177.8025632900298,-3.062324626687339,-30.408412523168902,0.010096380656936797,0.09528642504555562,-0.2765596372832655,0.19348520769119262,-0.4682675452232361,-9.13479655916214
2026-09-11T16:36:02.112,5.0796457280000595,-1803.682373046875,-162331.41357421875,-649325.654296875,-1235.5224255371095,-15.770051269531251,-5.550917625427246,-3.802378573417664,-8.505678627008008,1.0405644686668363,0.0,0.15048032999038696,1232.73486328125,54.17291879653931,-0.0457763709127903,-16.479493528604507,-328.53131972916987,1,1789158962.0366108,38.99068450833333,-76.93786703166667,-5.477,0,1,8.179599999999999,9.253763999999999,59.582961000000005,1,1,1789158962.1006796,0.9654531012403524,-0.25832169657009335,0.022971451796421766,0.025348033235322757,177.87166180323476,-3.293548457778953,-29.897750491445958,-0.06588338673598275,0.06377782152637679,-0.3192779669892283,0.8659272092819215,0.5554486651611329,-3.7063253621292116
2026-09-11T16:36:02.145,5.113062528,-1803.8642578125,-162347.783203125,-649391.1328125,-1235.6470166015627,-15.894642333984375,-5.498088836669922,-3.766190853118897,-8.424729002144982,1.0829199773416762,0.0,0.15035825967788696,1231.73486328125,54.12897348403931,0.0457763709127903,16.479493528604507,986.2999167265374,1,1789158962.0366108,38.99068450833333,-76.93786703166667,-5.477,0,1,8.179599999999999,9.253763999999999,59.582961000000005,1,1,1789158962.1406796,0.9668194159297598,-0.2529029736928006,0.02664144793412325,0.024300949169738875,178.07551483476718,-3.6583285303573567,-29.256752461486215,0.0012590805223887092,0.05978276286856177,-0.2821797720076124,-0.8190514215087891,-0.6993122230339051,-8.798918791122437
2026-09-11T16:36:02.179,5.146477087999983,-1804.046630859375,-162364.19677734375,-649456.787109375,-1235.7719421386719,-16.019567871093752,-5.472230911254883,-3.748478174209595,-8.385106867863259,0.5300886472636686,0.0,0.15702062845230103,1286.31298828125,56.52742624282837,0.1831054985523224,65.91797947883606,1479.5492129855031,1,1789158962.0366108,38.99068450833333,-76.93786703166667,-5.477,0,1,8.179599999999999,9.253763999999999,59.582961000000005,1,1,1789158962.1726797,0.9676406123013378,-0.24938537562402097,0.028134792616004833,0.0262109384496765,177.8923774517816,-3.8716705606512045,-28.832886090607705,-0.06652811136166946,0.00343184090819645,-0.21679589850355044,3.1957911547088624,-0.13641050374984742,-9.365645103969575
2026-09-11T16:36:02.212,5.17989350400012,-1804.2288818359375,-162380.59936523438,-649522.3974609375,-1235.8967840576172,-16.144409790039063,-5.4465155601501465,-3.7308631587028507,-8.345703200391121,0.5271365877978226,0.0,0.16791921854019165,1375.59423828125,60.450918674468994,0.2441406548023224,87.89063572883606,657.5407802533425,1,1789158962.0366108,38.99068450833333,-76.93786703166667,-5.477,0,1,8.179599999999999,9.253763999999999,59.582961000000005,1,1,1789158962.2006795,0.9681654250407341,-0.24720755556185958,0.0293414958517371,0.026138302355114572,177.92580407139147,-3.9989398254166253,-28.574839182569242,-0.02867453787979044,0.019838284942793546,-0.18084560657097123,-0.24065519496917723,0.11012868131637574,-9.330733429393769
2026-09-11T16:36:02.246,5.213316608000014,-1804.4100341796875,-162396.90307617188,-649587.6123046875,-1236.020873413086,-16.268499145507814,-5.421749591827393,-3.713898470401764,-8.30775427344703,0.5075736921723473,0.0,0.17673498392105103,1447.81298828125,63.62459421157837,0.2746582627296448,98.87697458267212,328.7049238117112,1,1789158962.0366108,38.99068450833333,-76.93786703166667,-5.477,0,1,8.179599999999999,9.253763999999999,59.582961000000005,1,1,1789158962.2406795,0.9687365937663477,-0.24477273797536453,0.029069532325275992,0.028119049279941497,177.6875868663799,-4.01898381128289,-28.279350948975715,-0.052435973915216844,-0.05779151672496144,-0.15292086213783757,-1.6463404291534425,4.291586243782043,-9.388298465843201
2026-09-11T16:36:02.279,5.246734112000013,-1804.5899658203125,-162413.09692382812,-649652.3876953125,-1236.1441265869141,-16.39175231933594,-5.3700971603393555,-3.6785165548324588,-8.228607182427645,1.0587839106507273,0.0,0.1782589554786682,1460.29736328125,64.17322397232056,0.01525880303233862,5.493169091641903,-2794.4578233919783,1,1789158962.0366108,38.99068450833333,-76.93786703166667,-5.477,0,1,8.179599999999999,9.253763999999999,59.582961000000005,1,1,1789158962.2726796,0.9691896097572112,-0.24272117834634982,0.029792094679660368,0.02950188155732072,177.54499114132147,-4.132880689317215,-28.03104486932969,0.23948081545634675,0.010974106737764746,-0.1374322867568643,-2.640146356544495,-3.079680416793823,11.01531979417801
2026-09-11T16:36:02.312,5.280149471999948,-1804.7711181640625,-162429.40063476562,-649717.6025390625,-1236.268215942383,-16.51584167480469,-5.39714241027832,-3.6970425510406497,-8.27004865569221,-0.5544155803865879,0.0,0.17801862955093384,1458.32861328125,64.08670663833618,0.0915527492761612,32.95898973941803,821.9519600515821,1,1789158962.0366108,38.99068450833333,-76.93786703166667,-5.477,0,1,8.179599999999999,9.253763999999999,59.582961000000005,1,1,1789158962.3006797,0.969650428051661,-0.2409595710322062,0.028367748917764384,0.030196081344182755,177.42097168818393,-3.989041092747686,-27.82098398994066,-0.06973288493418145,-0.1003122751595985,-0.12569075874699764,6.550057776031494,-3.058694185447693,-13.076481525173186
2026-09-11T16:36:02.346,5.313563264000095,-1804.949951171875,-162445.49560546875,-649781.982421875,-1236.3907165527344,-16.638342285156252,-5.373023509979248,-3.680521104335785,-8.233091231960856,0.49444991771039093,0.0,0.17562299966812134,1438.70361328125,63.22427988052368,-0.1068115383386612,-38.45215380191803,-2137.1756770683946,1,1789158962.0366108,38.99068450833333,-76.93786703166667,-5.477,0,1,8.179599999999999,9.253763999999999,59.582961000000005,1,1,1789158962.3406796,0.9703634469158078,-0.23800637664846422,0.028174139030499364,0.03088629881083021,177.3265819225411,-3.9784106514037547,-27.46951107867474,-0.04882261876481298,-0.025639410310572302,-0.1849912871432334,1.712633384246826,-0.47964325941085817,-7.136985788211823
2026-09-11T16:36:02.379,5.34697820800011,-1805.1287841796875,-162461.59057617188,-649846.3623046875,-1236.513217163086,-16.760842895507814,-5.348930358886719,-3.6640172958374024,-8.196173263773709,0.49390501741901416,0.0,0.16311651468276978,1336.25048828125,58.72194528579712,-0.5187988877296448,-186.76759958267212,-4438.596269402367,1,1789158962.0366108,38.99068450833333,-76.93786703166667,-5.477,0,1,8.179599999999999,9.253763999999999,59.582961000000005,1,1,1789158962.3736796,0.9711407393770277,-0.2350023541981382,0.02952203883208135,0.028071463566575333,177.66462626264922,-4.044649172959874,-27.124065950697496,-0.017466557022258453,-0.029841639550599045,-0.19623330192117924,0.1837766240310669,-0.019319100818634034,-8.261220162754059
2026-09-11T16:36:02.412,5.38038979199996,-1805.3087158203125,-162477.78442382812,-649911.1376953125,-1236.6364703369143,-16.88409606933594,-5.428291320800781,-3.7183795547485357,-8.31777817365008,-1.6270482390591459,0.0,0.14672094583511353,1201.93798828125,52.81954050064087,-0.2746582627296448,-98.87697458267212,2630.5434965428067,1,1789158962.0366108,38.99068450833333,-76.93786703166667,-5.477,0,1,8.179599999999999,9.253763999999999,59.582961000000005,1,1,1789158962.4006796,0.9718261381638003,-0.23208955469081136,0.028952999769404516,0.02915681034352131,177.51619217274003,-4.002990820937336,-26.776544689622085,0.042537339062530995,0.013559462958743947,-0.24037250417119066,3.793996814575195,2.5410011234092713,-9.050557434272767
2026-09-11T16:36:02.446,5.413817055999971,-1805.4935302734375,-162494.41772460938,-649977.6708984375,-1236.7630682373049,-17.010693969726564,-5.507594108581543,-3.7727019643783573,-8.439293943222873,-1.6250929070893745,0.0,0.1440334916114807,1179.92236328125,51.85205698013306,-0.3509521782398224,-126.34278416633606,-821.6589184102844,1,1789158962.0366108,38.99068450833333,-76.93786703166667,-5.477,0,1,8.179599999999999,9.253763999999999,59.582961000000005,1,1,1789158962.4406796,0.9729684172157969,-0.22637727490489234,0.03365563357029878,0.03087210449910776,177.42198435517298,-4.558057308468668,-26.092963214414556,0.02039155431567575,0.08586286881526263,-0.32741015410597063,2.9393472529792786,0.33372030500411987,-7.810898787326813
2026-09-11T16:36:02.479,5.447233728000128,-1805.675048828125,-162510.75439453125,-650043.017578125,-1236.8874084472657,-17.1350341796875,-5.48108434677124,-3.7545427775383,-8.398672999146152,0.5434169758129057,0.0,0.1386929154396057,1136.17236328125,49.92944955825806,-0.12207034230232239,-43.94532322883606,2465.759036001889,1,1789158962.0366108,38.99068450833333,-76.93786703166667,-5.477,0,1,8.179599999999999,9.253763999999999,59.582961000000005,1,1,1789158962.4726796,0.9741748331560681,-0.2208817417937509,0.03585553069566851,0.030150149353485242,177.53250733736647,-4.7712808055912275,-25.44736519570121,-0.0004783947479716457,0.008530645784972684,-0.35619552039326274,0.8437641799163819,-0.6155634306526184,-9.653176086711882
