timestamp,time_s,drive_pos_turns,drive_encoder_count,drive_wheel_angle_deg,drive_distance_m,drive_distance_since_start_m,drive_velocity_turns_s,drive_velocity_mps,drive_velocity_mph,drive_acceleration_mps2,drive_iq_A,steer_pos_turns,steer_encoder_count,steer_angle_deg,steer_velocity_turns_s,steer_velocity_deg_s,steer_acceleration_deg_s2,gps_received,gps_ros_stamp_s,gps_latitude_deg,gps_longitude_deg,gps_altitude_m,gps_status,gps_service,gps_cov_x_m2,gps_cov_y_m2,gps_cov_z_m2,gps_covariance_type,imu_received,imu_ros_stamp_s,imu_qx,imu_qy,imu_qz,imu_qw,imu_roll_deg,imu_pitch_deg,imu_yaw_deg,imu_gyro_x_rad_s,imu_gyro_y_rad_s,imu_gyro_z_rad_s,imu_accel_x_mps2,imu_accel_y_mps2,imu_accel_z_mps2
2026-09-11T16:30:12.097,8.096000101431855e-06,-1110.6982421875,-99962.841796875,-399851.3671875,-760.8282958984375,0.0,0.0,0.0,0.0,0.0,0.0,-0.05838203430175781,-478.265625,-21.017532348632812,0.0,0.0,0.0,1,1789158612.0410695,38.990734425,-76.93789444666666,-5.175000000000001,0,1,7.317025,8.678916000000001,51.609856,1,1,1789158612.0891497,-0.8805220432608856,0.47328442837096096,-0.007770130453634502,-0.024948071388011434,177.9022100893907,-2.1375487343447404,-56.477305643971285,0.0030497883349348918,0.001341634596008041,-0.0017175785168876197,0.3632383219909668,0.37294690565109256,-9.709662391643525
2026-09-11T16:30:12.131,0.03343587199992726,-1110.6982421875,-99962.841796875,-399851.3671875,-760.8282958984375,0.0,0.0,0.0,0.0,0.0,0.0,-0.05838203430175781,-478.265625,-21.017532348632812,0.0,0.0,0.0,1,1789158612.0410695,38.990734425,-76.93789444666666,-5.175000000000001,0,1,7.317025,8.678916000000001,51.609856,1,1,1789158612.1211495,-0.8805137428908598,0.4733007969829788,-0.007822972122283278,-0.024913957188297118,177.90856029121417,-2.141072062433224,-56.4794630169968,0.002841919621022367,0.00042167154728183,-0.0006572909963010645,0.3609827924537659,0.37530050168991086,-9.705837798080445
2026-09-11T16:30:12.165,0.06685430400011683,-1110.6982421875,-99962.841796875,-399851.3671875,-760.8282958984375,0.0,0.0,0.0,0.0,0.0,0.0,-0.05838203430175781,-478.265625,-21.017532348632812,0.0,0.0,0.0,1,1789158612.0410695,38.990734425,-76.93789444666666,-5.175000000000001,0,1,7.317025,8.678916000000001,51.609856,1,1,1789158612.1611497,-0.880518257562745,0.4732909154019043,-0.007794580066250046,-0.02495099233067757,177.9032558128441,-2.140191132590205,-56.478137234435394,0.0012725195576290657,-0.0021395991300198485,-0.0024836035255879313,0.3629441224861145,0.3790270287513733,-9.707799128112793
2026-09-11T16:30:12.198,0.10027382399994167,-1110.6982421875,-99962.841796875,-399851.3671875,-760.8282958984375,0.0,0.0,0.0,0.0,0.0,0.0,-0.05838203430175781,-478.265625,-21.017532348632812,0.0,0.0,0.0,1,1789158612.0410695,38.990734425,-76.93789444666666,-5.175000000000001,0,1,7.317025,8.678916000000001,51.609856,1,1,1789158612.1891496,-0.8805102964984243,0.4733058593232709,-0.007823143037816548,-0.024939521317115965,177.9059991133831,-2.142488178033569,-56.48008743533886,0.002397384260539411,0.00172979582165158,-0.0008573057285796147,0.36117892545700075,0.3767714992141724,-9.705347465572357
2026-09-11T16:30:12.233,0.13369590399997833,-1110.6982421875,-99962.841796875,-399851.3671875,-760.8282958984375,0.0,0.0,0.0,0.0,0.0,0.0,-0.05838203430175781,-478.265625,-21.017532348632812,0.0,0.0,0.0,1,1789158612.0410695,38.990734425,-76.93789444666666,-5.175000000000001,0,1,7.317025,8.678916000000001,51.609856,1,1,1789158612.2211497,-0.8805115041418708,0.47330196959012066,-0.007816396273800407,-0.02497279730474313,177.90226209829817,-2.1436029511604313,-56.47953883454074,0.002604554842751138,0.002063677307558095,-6.527531402458792e-05,0.36519965202331545,0.37392757066726684,-9.710348857154846
2026-09-11T16:30:12.266,0.16711148800004594,-1110.6982421875,-99962.841796875,-399851.3671875,-760.8282958984375,0.0,0.0,0.0,0.0,0.0,0.0,-0.05838203430175781,-478.265625,-21.017532348632812,0.0,0.0,0.0,1,1789158612.0410695,38.990734425,-76.93789444666666,-5.175000000000001,0,1,7.317025,8.678916000000001,51.609856,1,1,1789158612.2611496,-0.880505046336146,0.47331581335612816,-0.007835007855527508,-0.024932245296240167,177.9074014908276,-2.143315001748135,-56.48138854704781,0.0024314181809533004,-0.001598023463126008,-0.0017345082106319646,0.36568998453140256,0.3721623736381531,-9.705837798080445
2026-09-11T16:30:12.299,0.20053600000005645,-1110.6982421875,-99962.841796875,-399851.3671875,-760.8282958984375,0.0,0.0,0.0,0.0,0.0,0.0,-0.05838203430175781,-478.265625,-21.017532348632812,0.0,0.0,0.0,1,1789158612.0410695,38.990734425,-76.93789444666666,-5.175000000000001,0,1,7.317025,8.678916000000001,51.609856,1,1,1789158612.2891495,-0.8805036066303914,0.4733178755078511,-0.007846647484763158,-0.024940279847211092,177.90722564813106,-2.144930930539811,-56.481642081774666,0.002124414765527498,0.002705783939366809,-0.001062207382763749,0.36314025548934936,0.37490823568344117,-9.709073992633819
2026-09-11T16:30:12.333,0.23395715200013,-1110.6982421875,-99962.841796875,-399851.3671875,-760.8282958984375,0.0,0.0,0.0,0.0,0.0,0.0,-0.05838203430175781,-478.265625,-21.017532348632812,0.0,0.0,0.0,1,1789158612.0410695,38.990734425,-76.93789444666666,-5.175000000000001,0,1,7.317025,8.678916000000001,51.609856,1,1,1789158612.3291497,-0.8805001786077179,0.47332251996244484,-0.007840661687239098,-0.02497501936904677,177.90340281479283,-2.146222301590255,-56.482201850987025,0.002411172361630166,-0.0027748989777457845,-0.0022977259602505345,0.3706913761138916,0.37373143766403194,-9.716134780750275
2026-09-11T16:30:12.367,0.26737686399997074,-1110.6982421875,-99962.841796875,-399851.3671875,-760.8282958984375,0.0,0.0,0.0,0.0,0.0,0.0,-0.05838203430175781,-478.265625,-21.017532348632812,0.0,0.0,0.0,1,1789158612.0410695,38.990734425,-76.93789444666666,-5.175000000000001,0,1,7.317025,8.678916000000001,51.609856,1,1,1789158612.3601496,-0.8804990958015181,0.4733259000946875,-0.007826270878605247,-0.024953638540253474,177.90479114951404,-2.1436174989175285,-56.482675566028824,0.0029164451800825246,-0.0031490975693733688,-0.0015159929882822747,0.36215959047317503,0.3755947011947632,-9.703582268543244
2026-09-11T16:30:12.400,0.3007950720000281,-1110.6982421875,-99962.841796875,-399851.3671875,-760.8282958984375,0.0,0.0,0.0,0.0,0.0,0.0,-0.05838203430175781,-478.265625,-21.017532348632812,0.0,0.0,0.0,1,1789158612.0410695,38.990734425,-76.93789444666666,-5.175000000000001,0,1,7.317025,8.678916000000001,51.609856,1,1,1789158612.3891497,-0.8805115038841376,0.4733028735425873,-0.007726165645546928,-0.02498375048789737,177.8962673919666,-2.1350894693233013,-56.47967429557418,0.0012095131716320705,0.0003714060648243933,-0.00032620203719774016,0.3642189870071411,0.37343723815917973,-9.715350248737336
2026-09-11T16:30:12.433,0.33421481599998515,-1110.6982421875,-99962.841796875,-399851.3671875,-760.8282958984375,0.0,0.0,0.0,0.0,0.0,0.0,-0.05838203430175781,-478.265625,-21.017532348632812,0.0,0.0,0.0,1,1789158612.0410695,38.990734425,-76.93789444666666,-5.175000000000001,0,1,7.317025,8.678916000000001,51.609856,1,1,1789158612.4201496,-0.8805229825593465,0.4732824351689619,-0.007648905108942242,-0.024990157981987945,177.89138333081314,-2.127587807054289,-56.47703474144939,0.001171464993938594,-0.0018530160668423796,-0.0013194689145077131,0.3616692579650879,0.37657536621093746,-9.709858524646759
2026-09-11T16:30:12.467,0.3676323520001006,-1110.6982421875,-99962.841796875,-399851.3671875,-760.8282958984375,0.0,0.0,0.0,0.0,0.0,0.0,-0.05838203430175781,-478.265625,-21.017532348632812,0.0,0.0,0.0,1,1789158612.0410695,38.990734425,-76.93789444666666,-5.175000000000001,0,1,7.317025,8.678916000000001,51.609856,1,1,1789158612.4611497,-0.8805331304176611,0.473265054552646,-0.007545452329812591,-0.024993209583676325,177.8854266105278,-2.117266786385152,-56.47480898989762,0.0025167647813758233,-0.0007703883318302971,-0.00023509585024363618,0.35598140087127683,0.3736333711624146,-9.713879251213074
2026-09-11T16:30:12.500,0.40105142400011573,-1110.6982421875,-99962.841796875,-399851.3671875,-760.8282958984375,0.0,0.0,0.0,0.0,0.0,0.0,-0.05838203430175781,-478.265625,-21.017532348632812,0.0,0.0,0.0,1,1789158612.0410695,38.990734425,-76.93789444666666,-5.175000000000001,0,1,7.317025,8.678916000000001,51.609856,1,1,1789158612.4881496,-0.8805270071174379,0.4732809775833658,-0.007583507055204908,-0.024895710780863972,177.8973776531332,-2.1158581424553073,-56.47699582198475,0.0008278096642209105,0.00019669860669976094,-0.0012470377505499485,0.361473124961853,0.371475908126831,-9.720645839824677
2026-09-11T16:30:12.533,0.434471424000094,-1110.6982421875,-99962.841796875,-399851.3671875,-760.8282958984375,0.0,0.0,0.0,0.0,0.0,0.0,-0.05838203430175781,-478.265625,-21.017532348632812,0.0,0.0,0.0,1,1789158612.0410695,38.990734425,-76.93789444666666,-5.175000000000001,0,1,7.317025,8.678916000000001,51.609856,1,1,1789158612.5281496,-0.8805188588922577,0.47329601398193055,-0.007684041479657671,-0.024867203108339342,177.90574257675985,-2.124497664350844,-56.478952803885235,0.0035456363754264803,0.0003520329101272563,-0.0009660397409788614,0.35764853139877323,0.3767714992141724,-9.70936819213867
2026-09-11T16:30:12.567,0.4678894080000191,-1110.6982421875,-99962.841796875,-399851.3671875,-760.8282958984375,0.0,0.0,0.0,0.0,0.0,0.0,-0.05838203430175781,-478.265625,-21.017532348632812,0.0,0.0,0.0,1,1789158612.0410695,38.990734425,-76.93789444666666,-5.175000000000001,0,1,7.317025,8.678916000000001,51.609856,1,1,1789158612.5611496,-0.8805021983918822,0.4733265176544119,-0.007760582869420612,-0.02485275972074307,177.91142395938593,-2.1315142398064335,-56.482914353825024,0.0027771679057733774,0.0005330235535590682,-0.0006775368156241988,0.36716098205566405,0.37735989822387694,-9.715840581245422
2026-09-11T16:30:12.600,0.5013051519999863,-1110.6982421875,-99962.841796875,-399851.3671875,-760.8282958984375,0.0,0.0,0.0,0.0,0.0,0.0,-0.05838203430175781,-478.265625,-21.017532348632812,0.0,0.0,0.0,1,1789158612.0410695,38.990734425,-76.93789444666666,-5.175000000000001,0,1,7.317025,8.678916000000001,51.609856,1,1,1789158612.5891497,-0.8805083026961247,0.47331403187616283,-0.0077172270371360235,-0.02488775842010744,177.90550799476117,-2.1290060764303806,-56.48125816238055,0.0016643459747017926,-0.0025918139392115793,-0.0021404717946458458,0.36372865449905395,0.37608503370285035,-9.703876468048096
2026-09-11T16:30:12.634,0.5347278080000706,-1110.6982421875,-99962.841796875,-399851.3671875,-760.8282958984375,0.0,0.0,0.0,0.0,0.0,0.0,-0.05838203430175781,-478.265625,-21.017532348632812,0.0,0.0,0.0,1,1789158612.0410695,38.990734425,-76.93789444666666,-5.175000000000001,0,1,7.317025,8.678916000000001,51.609856,1,1,1789158612.6291497,-0.8805047615582582,0.47332297615697244,-0.007670825319245045,-0.02485726360769258,177.90609546780442,-2.122688242870251,-56.48247985215124,0.003181386160535264,0.0010131636307827083,-0.0007593927575427328,0.35715819889068606,0.3772618317222595,-9.71132952217102
2026-09-11T16:30:12.667,0.5681461440001385,-1110.6982421875,-99962.841796875,-399851.3671875,-760.8282958984375,0.0,0.0,0.0,0.0,0.0,0.0,-0.05838203430175781,-478.265625,-21.017532348632812,0.0,0.0,0.0,1,1789158612.0410695,38.990734425,-76.93789444666666,-5.175000000000001,0,1,7.317025,8.678916000000001,51.609856,1,1,1789158612.6611497,-0.8805074799492637,0.4733187739636391,-0.007650295230223421,-0.02484731272884327,177.90597793208235,-2.1200656864246383,-56.4819537960638,0.002161415745669778,0.0009337511498169663,-0.0016118115642167633,0.358727262916565,0.3738295041656494,-9.706818463096619
2026-09-11T16:30:12.700,0.6015593920001265,-1110.6982421875,-99962.841796875,-399851.3671875,-760.8282958984375,0.0,0.0,0.0,0.0,0.0,0.0,-0.05838203430175781,-478.265625,-21.017532348632812,0.0,0.0,0.0,1,1789158612.0410695,38.990734425,-76.93789444666666,-5.175000000000001,0,1,7.317025,8.678916000000001,51.609856,1,1,1789158612.6891496,-0.8805015865087265,0.47333194488733926,-0.007633862997486996,-0.024810284974581934,177.90885980302517,-2.116429176525893,-56.48372322215689,0.0006914994496401534,-0.0026869343834452705,-0.002227214658469964,0.3589233959197998,0.375104368686676,-9.709564325141907
2026-09-11T16:30:12.734,0.6349809600001208,-1110.6982421875,-99962.841796875,-399851.3671875,-760.8282958984375,0.0,0.0,0.0,0.0,0.0,0.0,-0.05838203430175781,-478.265625,-21.017532348632812,0.0,0.0,0.0,1,1789158612.0410695,38.990734425,-76.93789444666666,-5.175000000000001,0,1,7.317025,8.678916000000001,51.609856,1,1,1789158612.7291496,-0.8804933278217026,0.4733481132811028,-0.007652901079682756,-0.024789038298177128,177.91207705807747,-2.117236902298611,-56.48584865588828,0.001557706357404939,0.0016296139225871055,-0.0007693411342791005,0.35823693040847776,0.37530050168991086,-9.708093327617645
2026-09-11T16:30:12.767,0.66840384000011,-1110.6982421875,-99962.841796875,-399851.3671875,-760.8282958984375,0.0,0.0,0.0,0.0,0.0,0.0,-0.05838203430175781,-478.265625,-21.017532348632812,0.0,0.0,0.0,1,1789158612.0410695,38.990734425,-76.93789444666666,-5.175000000000001,0,1,7.317025,8.678916000000001,51.609856,1,1,1789158612.7611496,-0.8804852789456207,0.47336469927591546,-0.007678435559341043,-0.024750286197051694,177.91741597485654,-2.117751587687445,-56.488049468604096,0.0015432201246133861,0.001227490062927612,-0.002700897017461225,0.35264713981628415,0.37941929475784303,-9.708779793128967
2026-09-11T16:30:12.801,0.7018185280001035,-1110.6982421875,-99962.841796875,-399851.3671875,-760.8282958984375,0.0,0.0,0.0,0.0,0.0,0.0,-0.05838203430175781,-478.265625,-21.017532348632812,0.0,0.0,0.0,1,1789158612.0410695,38.990734425,-76.93789444666666,-5.175000000000001,0,1,7.317025,8.678916000000001,51.609856,1,1,1789158612.7891495,-0.8805012067926619,0.4733320829128007,-0.007544197997583519,-0.02484852508035526,177.9001368823257,-2.109451611001789,-56.483724509016795,0.0012060225131280816,-0.0008981464330762819,-0.0017879152857429913,0.359413728427887,0.37539856819152834,-9.715056049232484
2026-09-11T16:30:12.834,0.7352342399999543,-1110.6982421875,-99962.841796875,-399851.3671875,-760.8282958984375,0.0,0.0,0.0,0.0,0.0,0.0,-0.05838203430175781,-478.265625,-21.017532348632812,0.0,0.0,0.0,1,1789158612.0410695,38.990734425,-76.93789444666666,-5.175000000000001,0,1,7.317025,8.678916000000001,51.609856,1,1,1789158612.8291497,-0.8805059464166396,0.4733228720677799,-0.0074710024367402005,-0.024878127442314976,177.89315696455293,-2.103645828480065,-56.482515519861096,0.001405339113705834,0.0005234242426730994,-0.0014845770617463766,0.35715819889068606,0.3748101691818237,-9.706328130588531
2026-09-11T16:30:12.867,0.7686478400000851,-1110.6982421875,-99962.841796875,-399851.3671875,-760.8282958984375,0.0,0.0,0.0,0.0,0.0,0.0,-0.05838203430175781,-478.265625,-21.017532348632812,0.0,0.0,0.0,1,1789158612.0410695,38.990734425,-76.93789444666666,-5.175000000000001,0,1,7.317025,8.678916000000001,51.609856,1,1,1789158612.8601496,-0.8805084841122753,0.473317711938221,-0.00746287458025907,-0.024888922734210905,177.89161348979727,-2.1033985498545174,-56.481832988317656,0.0010058332479243321,0.0003752457891787808,-0.0015076154078727019,0.35970792793273926,0.3731430386543274,-9.7128985861969
2026-09-11T16:30:12.901,0.8020635840000523,-1110.6982421875,-99962.841796875,-399851.3671875,-760.8282958984375,0.0,0.0,0.0,0.0,0.0,0.0,-0.05838203430175781,-478.265625,-21.017532348632812,0.0,0.0,0.0,1,1789158612.0410695,38.990734425,-76.93789444666666,-5.175000000000001,0,1,7.317025,8.678916000000001,51.609856,1,1,1789158612.8891497,-0.8804979942876846,0.47333786921039095,-0.007543273952677393,-0.02485241728295964,177.89970744036043,-2.1095832802662566,-56.48447276906617,0.0016482889455834448,-0.0021956241990088664,-0.002134886741039464,0.36314025548934936,0.37275077264785766,-9.718390310287475
2026-09-11T16:30:12.934,0.8354773119999663,-1110.6982421875,-99962.841796875,-399851.3671875,-760.8282958984375,0.0,0.0,0.0,0.0,0.0,0.0,-0.05838203430175781,-478.265625,-21.017532348632812,0.0,0.0,0.0,1,1789158612.0410695,38.990734425,-76.93789444666666,-5.175000000000001,0,1,7.317025,8.678916000000001,51.609856,1,1,1789158612.9281497,-0.8804803078902759,0.4733738730046682,-0.007693187623589563,-0.02474709353022457,177.91856023241095,-2.1190893797681993,-56.48924235960378,0.002152165500634208,-0.0009218829109034048,-0.0023593360828459346,0.36049245994567874,0.3723585066413879,-9.70936819213867
2026-09-11T16:30:12.968,0.8689063360000091,-1110.6982421875,-99962.841796875,-399851.3671875,-760.8282958984375,0.0,0.0,0.0,0.0,0.0,0.0,-0.05838203430175781,-478.265625,-21.017532348632812,0.0,0.0,0.0,1,1789158612.0410695,38.990734425,-76.93789444666666,-5.175000000000001,0,1,7.317025,8.678916000000001,51.609856,1,1,1789158612.9611497,-0.8804643731228332,0.47340450073285706,-0.007812430319840071,-0.024690732670140998,177.93079184894123,-2.1281417776264666,-56.493262353062626,0.0007122688677388859,-0.0026099653634323204,-0.0027951447970689185,0.3653957850265503,0.37422177017211916,-9.717605778274537
2026-09-11T16:30:13.001,0.9023229120000451,-1110.6982421875,-99962.841796875,-399851.3671875,-760.8282958984375,0.0,0.0,0.0,0.0,0.0,0.0,-0.05838203430175781,-478.265625,-21.017532348632812,0.0,0.0,0.0,1,1789158612.0410695,38.990734425,-76.93789444666666,-5.175000000000001,0,1,7.317025,8.678916000000001,51.609856,1,1,1789158612.9891496,-0.8804766265897759,0.47338057411130074,-0.007704089961212817,-0.024746496338132643,177.91922767560067,-2.120173477725764,-56.49011140543172,0.0038706166821478247,-0.0013587388226775855,-0.0014716616252816188,0.35823693040847776,0.3755947011947632,-9.705053266067505
2026-09-11T16:30:13.034,0.9357407679999596,-1110.6982421875,-99962.841796875,-399851.3671875,-760.8282958984375,0.0,0.0,0.0,0.0,0.0,0.0,-0.05838203430175781,-478.265625,-21.017532348632812,0.0,0.0,0.0,1,1789158612.0410695,38.990734425,-76.93789444666666,-5.175000000000001,0,1,7.317025,8.678916000000001,51.609856,1,1,1789158613.0281496,-0.8804857781003597,0.4733638624928609,-0.007573114341112638,-0.02478096422701098,177.90860574748422,-2.1087811217505767,-56.487938788872306,0.000786096295098246,-0.005032133299350051,-0.002762856205907024,0.35598140087127683,0.37530050168991086,-9.709564325141907
2026-09-11T16:30:13.068,0.9692707839999457,-1110.6982421875,-99962.841796875,-399851.3671875,-760.8282958984375,0.0,0.0,0.0,0.0,0.0,0.0,-0.05838203430175781,-478.265625,-21.017532348632812,0.0,0.0,0.0,1,1789158613.0449164,38.990734635,-76.93789437166667,-5.2059999999999995,0,1,7.317025,8.684809,51.609856,1,1,1789158613.0611496,-0.8804824162889728,0.4733738862009194,-0.007552280842728717,-0.024715208335022422,177.91414336347228,-2.1031339352632266,-56.4893380906429,0.0019579103548872387,-0.0050357984907792395,-0.002261946710584651,0.35794273090362544,0.37294690565109256,-9.718586443290711
2026-09-11T16:30:13.101,1.0026861440001085,-1110.6982421875,-99962.841796875,-399851.3671875,-760.8282958984375,0.0,0.0,0.0,0.0,0.0,0.0,-0.05838203430175781,-478.265625,-21.017532348632812,0.0,0.0,0.0,1,1789158613.0449164,38.990734635,-76.93789437166667,-5.2059999999999995,0,1,7.317025,8.684809,51.609856,1,1,1789158613.0891497,-0.8804887206201778,0.4733619240107419,-0.007440724345637215,-0.024753532650982256,177.90419619053625,-2.0939225027764046,-56.4877740451717,0.002633178242483845,-0.0004000294645571003,-0.0001207767842380076,0.35470653635025023,0.3767714992141724,-9.706818463096619
2026-09-11T16:30:13.135,1.0361029759999383,-1110.6982421875,-99962.841796875,-399851.3671875,-760.8282958984375,0.0,0.0,0.0,0.0,0.0,0.0,-0.05838203430175781,-478.265625,-21.017532348632812,0.0,0.0,0.0,1,1789158613.0449164,38.990734635,-76.93789437166667,-5.2059999999999995,0,1,7.317025,8.684809,51.609856,1,1,1789158613.1291497,-0.8804719075896383,0.47339635092658783,-0.007478533947044336,-0.024681701822549418,177.91358416176107,-2.0939239850306994,-56.49233411728657,0.0012700760966762737,-0.0022931881041953497,-0.002507514536340253,0.35098000928878786,0.3723585066413879,-9.714663783226012
2026-09-11T16:30:13.168,1.0695155519999844,-1110.6982421875,-99962.841796875,-399851.3671875,-760.8282958984375,0.0,0.0,0.0,0.0,0.0,0.0,-0.05838203430175781,-478.265625,-21.017532348632812,0.0,0.0,0.0,1,1789158613.0449164,38.990734635,-76.93789437166667,-5.2059999999999995,0,1,7.317025,8.684809,51.609856,1,1,1789158613.1611497,-0.8804836750481261,0.4733741512593619,-0.007346176456315715,-0.024727405539143876,177.9017396329591,-2.0829888608031277,-56.489437810620636,0.0021064378742319564,0.00011274826967883368,-0.0012288863263292074,0.3516664748001099,0.3743198366737366,-9.708877859630585
2026-09-11T16:30:13.202,1.102929599999925,-1110.6982421875,-99962.841796875,-399851.3671875,-760.8282958984375,0.0,0.0,0.0,0.0,0.0,0.0,-0.05838203430175781,-478.265625,-21.017532348632812,0.0,0.0,0.0,1,1789158613.0449164,38.990734635,-76.93789437166667,-5.2059999999999995,0,1,7.317025,8.684809,51.609856,1,1,1789158613.1891496,-0.8804898567001186,0.47335996646190615,-0.00732103842477362,-0.024786221893842757,177.89440162578856,-2.0836083149475906,-56.48752528745862,0.0024705135561979737,0.0035250414902529476,-0.00043895030687657387,0.3574523983955384,0.3738295041656494,-9.708877859630585
2026-09-11T16:30:13.235,1.1363507200001095,-1110.6982421875,-99962.841796875,-399851.3671875,-760.8282958984375,0.0,0.0,0.0,0.0,0.0,0.0,-0.05838203430175781,-478.265625,-21.017532348632812,0.0,0.0,0.0,1,1789158613.0449164,38.990734635,-76.93789437166667,-5.2059999999999995,0,1,7.317025,8.684809,51.609856,1,1,1789158613.2291496,-0.8804741382640078,0.47338681374094155,-0.0074308778452214395,-0.024799162866944963,177.899111918593,-2.0954635008456015,-56.490957328974304,0.0022174408146587955,-0.000989252620030386,-0.002338566664747202,0.3561775338745117,0.38020382677078246,-9.708779793128967
2026-09-11T16:30:13.268,1.1697704959999555,-1110.6982421875,-99962.841796875,-399851.3671875,-760.8282958984375,0.0,0.0,0.0,0.0,0.0,0.0,-0.05838203430175781,-478.265625,-21.017532348632812,0.0,0.0,0.0,1,1789158613.0449164,38.990734635,-76.93789437166667,-5.2059999999999995,0,1,7.317025,8.684809,51.609856,1,1,1789158613.2601497,-0.8804686449666062,0.4733955740688656,-0.0074935319240756896,-0.024808116856801687,177.9016245912765,-2.102295467751351,-56.492060791790074,0.002586927017305995,0.002608918165881124,-0.0009332275510413679,0.35794273090362544,0.3748101691818237,-9.713388918704986
2026-09-11T16:30:13.302,1.2031927040000028,-1110.6982421875,-99962.841796875,-399851.3671875,-760.8282958984375,0.0,0.0,0.0,0.0,0.0,0.0,-0.05838203430175781,-478.265625,-21.017532348632812,0.0,0.0,0.0,1,1789158613.0449164,38.990734635,-76.93789437166667,-5.2059999999999995,0,1,7.317025,8.684809,51.609856,1,1,1789158613.2891495,-0.8804598052026983,0.4734129167840257,-0.007534813867766613,-0.02477838219993403,177.9069077567276,-2.1048909189175227,-56.49434114086128,0.002014284489726656,0.0023287928209360337,0.0002897246558310587,0.3553930018615723,0.37530050168991086,-9.708387527122497
2026-09-11T16:30:13.336,1.2366139519999706,-1110.6982421875,-99962.841796875,-399851.3671875,-760.8282958984375,0.0,0.0,0.0,0.0,0.0,0.0,-0.05838203430175781,-478.265625,-21.017532348632812,0.0,0.0,0.0,1,1789158613.0449164,38.990734635,-76.93789437166667,-5.2059999999999995,0,1,7.317025,8.684809,51.609856,1,1,1789158613.3291497,-0.8804645167023297,0.4734025849106966,-0.00749326733796571,-0.0248209261028994,177.90033296422973,-2.1029804945992825,-56.492956454082965,0.0023012166187545233,-8.360127117052839e-05,-0.0014508922071828861,0.35598140087127683,0.3738295041656494,-9.710348857154846
2026-09-11T16:30:13.369,1.270029440000144,-1110.6982421875,-99962.841796875,-399851.3671875,-760.8282958984375,0.0,0.0,0.0,0.0,0.0,0.0,-0.05838203430175781,-478.265625,-21.017532348632812,0.0,0.0,0.0,1,1789158613.0449164,38.990734635,-76.93789437166667,-5.2059999999999995,0,1,7.317025,8.684809,51.609856,1,1,1789158613.3611495,-0.8804632389288213,0.47340663738021643,-0.007506715163655738,-0.024784870521695215,177.9047140550822,-2.102391369589057,-56.49352617547645,0.0034641294993583453,0.0038378044922103313,-0.0013779374444495233,0.35549106836318967,0.3710836421203613,-9.707602995109559
2026-09-11T16:30:13.402,1.3034502719999637,-1110.6982421875,-99962.841796875,-399851.3671875,-760.8282958984375,0.0,0.0,0.0,0.0,0.0,0.0,-0.05838203430175781,-478.265625,-21.017532348632812,0.0,0.0,0.0,1,1789158613.0449164,38.990734635,-76.93789437166667,-5.2059999999999995,0,1,7.317025,8.684809,51.609856,1,1,1789158613.3891497,-0.8804656753336247,0.47340107975374385,-0.007490586104464113,-0.02480934031983672,177.90135444673214,-2.102077577472782,-56.4927768935196,0.0003012438288942213,0.0017830283638374071,-0.0009834930334988046,0.35921759542465215,0.37294690565109256,-9.713879251213074
2026-09-11T16:30:13.436,1.3368653120001,-1110.6982421875,-99962.841796875,-399851.3671875,-760.8282958984375,0.0,0.0,0.0,0.0,0.0,0.0,-0.05838203430175781,-478.265625,-21.017532348632812,0.0,0.0,0.0,1,1789158613.0449164,38.990734635,-76.93789437166667,-5.2059999999999995,0,1,7.317025,8.684809,51.609856,1,1,1789158613.4281497,-0.8804673489948993,0.47339555810117784,-0.007520740392792636,-0.024846154388814098,177.89925682116635,-2.107106156694351,-56.491997839887475,0.003174230310602087,0.0020984093596727823,-0.0011164871225007725,0.356471733379364,0.37608503370285035,-9.708387527122497
2026-09-11T16:30:13.469,1.3702825600000779,-1110.6982421875,-99962.841796875,-399851.3671875,-760.8282958984375,0.0,0.0,0.0,0.0,0.0,0.0,-0.05838203430175781,-478.265625,-21.017532348632812,0.0,0.0,0.0,1,1789158613.0449164,38.990734635,-76.93789437166667,-5.2059999999999995,0,1,7.317025,8.684809,51.609856,1,1,1789158613.4611497,-0.8804736984982077,0.47337953840516456,-0.007507738913960823,-0.02493015701114568,177.89002742458922,-2.110313154977723,-56.48980691479871,0.0027906069410137337,0.00448148192034584,-0.0011925834778877254,0.35990406093597416,0.38098835878372195,-9.710839189662934
2026-09-11T16:30:13.502,1.4037042560000828,-1110.6982421875,-99962.841796875,-399851.3671875,-760.8282958984375,0.0,0.0,0.0,0.0,0.0,0.0,-0.05838203430175781,-478.265625,-21.017532348632812,0.0,0.0,0.0,1,1789158613.0449164,38.990734635,-76.93789437166667,-5.2059999999999995,0,1,7.317025,8.684809,51.609856,1,1,1789158613.4891496,-0.8804704481149579,0.47338413941043245,-0.007548767719168437,-0.02494519306021156,177.89074348397776,-2.1152821035844394,-56.490369574836734,2.932153143350474e-05,0.0017264796960727907,-0.002406285439724582,0.35921759542465215,0.3762811667060852,-9.708387527122497
2026-09-11T16:30:13.536,1.4371265280001353,-1110.6982421875,-99962.841796875,-399851.3671875,-760.8282958984375,0.0,0.0,0.0,0.0,0.0,0.0,-0.05838203430175781,-478.265625,-21.017532348632812,0.0,0.0,0.0,1,1789158613.0449164,38.990734635,-76.93789437166667,-5.2059999999999995,0,1,7.317025,8.684809,51.609856,1,1,1789158613.5291495,-0.8804632417762889,0.47339593474228425,-0.007610136766637565,-0.02495705649030722,177.89290003262624,-2.1221495869377,-56.491865138649665,0.002026501794490616,0.00487854432517455,-0.0007040658202545126,0.36637645004272457,0.37490823568344117,-9.716821246261597
2026-09-11T16:30:13.569,1.4705440320001344,-1110.6982421875,-99962.841796875,-399851.3671875,-760.8282958984375,0.0,0.0,0.0,0.0,0.0,0.0,-0.05838203430175781,-478.265625,-21.017532348632812,0.0,0.0,0.0,1,1789158613.0449164,38.990734635,-76.93789437166667,-5.2059999999999995,0,1,7.317025,8.684809,51.609856,1,1,1789158613.5611496,-0.8804571452842551,0.4734051991901266,-0.007674232506505649,-0.024976766265723375,177.89440579266835,-2.129712000049531,-56.49302032049394,0.0020587903856525112,0.004179190893900422,-0.0009763371835656278,0.3574523983955384,0.3723585066413879,-9.707406862106323
2026-09-11T16:30:13.603,1.5039722240001083,-1110.6982421875,-99962.841796875,-399851.3671875,-760.8282958984375,0.0,0.0,0.0,0.0,0.0,0.0,-0.05838203430175781,-478.265625,-21.017532348632812,0.0,0.0,0.0,1,1789158613.0449164,38.990734635,-76.93789437166667,-5.2059999999999995,0,1,7.317025,8.684809,51.609856,1,1,1789158613.5891497,-0.8804685279428606,0.4733828603407458,-0.007641491784850592,-0.025008927227061044,177.88932793608993,-2.1280982017862846,-56.49008235776361,0.001233947781159991,-0.00014782938764391971,-0.0030471703410569,0.3666706495475769,0.37294690565109256,-9.710643056659698
2026-09-11T16:30:13.636,1.5373950719999812,-1110.6982421875,-99962.841796875,-399851.3671875,-760.8282958984375,0.0,0.0,0.0,0.0,0.0,0.0,-0.05838203430175781,-478.265625,-21.017532348632812,0.0,0.0,0.0,1,1789158613.0449164,38.990734635,-76.93789437166667,-5.2059999999999995,0,1,7.317025,8.684809,51.609856,1,1,1789158613.6291497,-0.8804541734257958,0.4734083197980407,-0.007789562748460455,-0.024986675554825487,177.89966429640114,-2.1419003203246296,-56.493370985505386,0.002043431488234961,0.00309638862596314,-0.0007285004297824331,0.3616692579650879,0.37265270614624024,-9.708093327617645
2026-09-11T16:30:13.669,1.5708110719999695,-1110.6982421875,-99962.841796875,-399851.3671875,-760.8282958984375,0.0,0.0,0.0,0.0,0.0,0.0,-0.05838203430175781,-478.265625,-21.017532348632812,0.0,0.0,0.0,1,1789158613.0449164,38.990734635,-76.93789437166667,-5.2059999999999995,0,1,7.317025,8.684809,51.609856,1,1,1789158613.6611497,-0.8804444723990676,0.47342545920311374,-0.007866649757589026,-0.024979620130012977,177.90459778395785,-2.1493406156040353,-56.495584180677334,0.0014662511046004362,0.00047717301749524967,-0.0025357888702225613,0.36814164707183833,0.3755947011947632,-9.707112662601471
2026-09-11T16:30:13.703,1.6042359040000065,-1110.6982421875,-99962.841796875,-399851.3671875,-760.8282958984375,0.0,0.0,0.0,0.0,0.0,0.0,-0.05838203430175781,-478.265625,-21.017532348632812,0.0,0.0,0.0,1,1789158613.0449164,38.990734635,-76.93789437166667,-5.2059999999999995,0,1,7.317025,8.684809,51.609856,1,1,1789158613.6891496,-0.8804492776614881,0.4734163366224715,-0.007832176768897862,-0.024993973101196356,177.90125671296403,-2.1466175120425484,-56.49438949234679,0.0019605283487652302,-0.0018385298340508269,-0.002612234291459913,0.36215959047317503,0.37608503370285035,-9.710839189662934
2026-09-11T16:30:13.736,1.6376640640000915,-1110.6982421875,-99962.841796875,-399851.3671875,-760.8282958984375,0.0,0.0,0.0,0.0,0.0,0.0,-0.05838203430175781,-478.265625,-21.017532348632812,0.0,0.0,0.0,1,1789158613.0449164,38.990734635,-76.93789437166667,-5.2059999999999995,0,1,7.317025,8.684809,51.609856,1,1,1789158613.7291496,-0.8804398606793731,0.4734339818231908,-0.00784665362251244,-0.02498692875990887,177.9027961969203,-2.1477388027017374,-56.496690513363625,0.0016498597419102397,0.0005352924815866609,-0.0011346385467215136,0.36441512001037596,0.37667343271255493,-9.715840581245422
2026-09-11T16:30:13.769,1.6710872319999908,-1110.6982421875,-99962.841796875,-399851.3671875,-760.8282958984375,0.0,0.0,0.0,0.0,0.0,0.0,-0.05838203430175781,-478.265625,-21.017532348632812,0.0,0.0,0.0,1,1789158613.0449164,38.990734635,-76.93789437166667,-5.2059999999999995,0,1,7.317025,8.684809,51.609856,1,1,1789158613.7601497,-0.8804392678690393,0.4734364993520173,-0.007826890462024522,-0.024966306519646864,177.90381422079943,-2.1446305803527284,-56.49705283937075,0.0007682939367279038,-0.000626049602690366,-0.0018928095737878504,0.3634344549942017,0.3721623736381531,-9.713879251213074
2026-09-11T16:30:13.803,1.7045131840000067,-1110.6982421875,-99962.841796875,-399851.3671875,-760.8282958984375,0.0,0.0,0.0,0.0,0.0,0.0,-0.05838203430175781,-478.265625,-21.017532348632812,0.0,0.0,0.0,1,1789158613.0449164,38.990734635,-76.93789437166667,-5.2059999999999995,0,1,7.317025,8.684809,51.609856,1,1,1789158613.7891495,-0.8804243551566847,0.47346590433075253,-0.007905065407601618,-0.024909882057128126,177.91382426488337,-2.149530458111483,-56.50092934139135,0.002195798731934066,-0.0013924236772410762,-0.0008339183166028907,0.3661803170394897,0.3732411051559448,-9.719370975303649
2026-09-11T16:30:13.837,1.7379427200000919,-1110.6982421875,-99962.841796875,-399851.3671875,-760.8282958984375,0.0,0.0,0.0,0.0,0.0,0.0,-0.05838203430175781,-478.265625,-21.017532348632812,0.0,0.0,0.0,1,1789158613.0449164,38.990734635,-76.93789437166667,-5.2059999999999995,0,1,7.317025,8.684809,51.609856,1,1,1789158613.8281496,-0.8804347748442765,0.47344750801770613,-0.007745339275748836,-0.024941413677569104,177.9019344835628,-2.1350731359990256,-56.49854806715554,0.000510334273283142,0.0009149015938954276,-0.0006236061417375739,0.3616692579650879,0.3755947011947632,-9.70789719461441
2026-09-11T16:30:13.870,1.7713598719999482,-1110.6982421875,-99962.841796875,-399851.3671875,-760.8282958984375,0.0,0.0,0.0,0.0,0.0,0.0,-0.05838203430175781,-478.265625,-21.017532348632812,0.0,0.0,0.0,1,1789158613.0449164,38.990734635,-76.93789437166667,-5.2059999999999995,0,1,7.317025,8.684809,51.609856,1,1,1789158613.8611495,-0.8804258573987919,0.47346371456726366,-0.007812438929190317,-0.024927623427600996,177.90700477778037,-2.141137215271903,-56.50065209999217,0.0010075785771763263,-0.0008958775050486894,-0.0017657496042426631,0.3636305879974365,0.378046363735199,-9.71054499015808
2026-09-11T16:30:13.903,1.8047755520001374,-1110.6982421875,-99962.841796875,-399851.3671875,-760.8282958984375,0.0,0.0,0.0,0.0,0.0,0.0,-0.05838203430175781,-478.265625,-21.017532348632812,0.0,0.0,0.0,1,1789158613.0449164,38.990734635,-76.93789437166667,-5.2059999999999995,0,1,7.317025,8.684809,51.609856,1,1,1789158613.9011497,-0.8804172043607221,0.4734786852712903,-0.007792199872531882,-0.02495520948754673,177.9031571225869,-2.1406267179990226,-56.502570728048276,0.001829454121940456,0.0007778932476138726,-0.0012849113953182255,0.36814164707183833,0.3796154277610779,-9.709073992633819
2026-09-11T16:30:13.937,1.8381921919999513,-1110.6982421875,-99962.841796875,-399851.3671875,-760.8282958984375,0.0,0.0,0.0,0.0,0.0,0.0,-0.05838203430175781,-478.265625,-21.017532348632812,0.0,0.0,0.0,1,1789158613.0449164,38.990734635,-76.93789437166667,-5.2059999999999995,0,1,7.317025,8.684809,51.609856,1,1,1789158613.9281497,-0.88041416995151,0.4734827132587584,-0.007778630587899109,-0.02499004801706104,177.89891184021374,-2.141157157356484,-56.50305306294319,0.00028920105705546045,-0.004320911629162362,-0.0027738517801945877,0.36637645004272457,0.37981156076431277,-9.716036714248657
2026-09-11T16:30:13.970,1.8716069120000611,-1110.6982421875,-99962.841796875,-399851.3671875,-760.8282958984375,0.0,0.0,0.0,0.0,0.0,0.0,-0.05838203430175781,-478.265625,-21.017532348632812,0.0,0.0,0.0,1,1789158613.0449164,38.990734635,-76.93789437166667,-5.2059999999999995,0,1,7.317025,8.684809,51.609856,1,1,1789158613.9611497,-0.8804135773046747,0.47348861667766284,-0.007728299170531969,-0.02491457738332365,177.9038212191268,-2.1319944597708336,-56.50394069185568,0.0011669271378834088,-0.004521449960216511,-0.0032599259768750087,0.35970792793273926,0.37245657314300534,-9.717899977779389
2026-09-11T16:30:14.004,1.9050206720000915,-1110.6982421875,-99962.841796875,-399851.3671875,-760.8282958984375,0.0,0.0,0.0,0.0,0.0,0.0,-0.05838203430175781,-478.265625,-21.017532348632812,0.0,0.0,0.0,1,1789158613.0449164,38.990734635,-76.93789437166667,-5.2059999999999995,0,1,7.317025,8.684809,51.609856,1,1,1789158614.0011497,-0.8803940876709221,0.4735288121336083,-0.007769011588483138,-0.024826536857898932,177.9150196210603,-2.131421572787419,-56.50927573582574,0.0011550588989698474,-0.00016824973989225335,-0.0008148942277561525,0.35696206588745116,0.37461403617858885,-9.713879251213074
2026-09-11T16:30:14.037,1.9384427200000118,-1110.6982421875,-99962.841796875,-399851.3671875,-760.8282958984375,0.0,0.0,0.0,0.0,0.0,0.0,-0.05838203430175781,-478.265625,-21.017532348632812,0.0,0.0,0.0,1,1789158613.0449164,38.990734635,-76.93789437166667,-5.2059999999999995,0,1,7.317025,8.684809,51.609856,1,1,1789158614.0291495,-0.8803757100607272,0.47356579783022873,-0.007832107655311433,-0.024752825094620675,177.92597663645594,-2.1338774039506188,-56.514166897798546,0.0012676326357234815,-0.005279795520208046,-0.002811027293262067,0.3600021274375915,0.37412370367050174,-9.704857133064271
2026-09-11T16:30:14.070,1.9718509439999252,-1110.6982421875,-99962.841796875,-399851.3671875,-760.8282958984375,0.0,0.0,0.0,0.0,0.0,0.0,-0.05838203430175781,-478.265625,-21.017532348632812,0.0,0.0,0.0,1,1789158614.0427234,38.99073482,-76.93789427333333,-5.251000000000001,0,1,7.317025,8.684809,51.609856,1,1,1789158614.0611496,-0.8803817621398683,0.47355275220005927,-0.0076173354402917625,-0.024853973043352632,177.90408121014406,-2.1176563288446664,-56.512410185055224,0.001710422666954443,-0.003216118212649951,0.0004993386989955777,0.36519965202331545,0.3775560312271118,-9.700542206993102
2026-09-11T16:30:14.103,2.005268575999935,-1110.6982421875,-99962.841796875,-399851.3671875,-760.8282958984375,0.0,0.0,0.0,0.0,0.0,0.0,-0.05838203430175781,-478.265625,-21.017532348632812,0.0,0.0,0.0,1,1789158614.0427234,38.99073482,-76.93789427333333,-5.251000000000001,0,1,7.317025,8.684809,51.609856,1,1,1789158614.1011496,-0.8803762934562933,0.4735642175339428,-0.0075927956233239145,-0.024836731794768713,177.9045196282674,-2.114270611770344,-56.51393464489035,0.0003773401842811741,-0.0027513370328438613,-0.0032122784882955635,0.3516664748001099,0.37824249673843385,-9.709564325141907
2026-09-11T16:30:14.137,2.0386854719999974,-1110.6982421875,-99962.841796875,-399851.3671875,-760.8282958984375,0.0,0.0,0.0,0.0,0.0,0.0,-0.05838203430175781,-478.265625,-21.017532348632812,0.0,0.0,0.0,1,1789158614.0427234,38.99073482,-76.93789427333333,-5.251000000000001,0,1,7.317025,8.684809,51.609856,1,1,1789158614.1291497,-0.8803848314033206,0.47354714673113735,-0.007499719713017082,-0.024887801469224344,177.89427277314587,-2.1076062710729198,-56.51168105306469,0.0016730726209617643,-0.004876275397146958,-0.0023465951793063757,0.36441512001037596,0.3755947011947632,-9.713585051708222
2026-09-11T16:30:14.170,2.0720937600001434,-1110.6982421875,-99962.841796875,-399851.3671875,-760.8282958984375,0.0,0.0,0.0,0.0,0.0,0.0,-0.05838203430175781,-478.265625,-21.017532348632812,0.0,0.0,0.0,1,1789158614.0427234,38.99073482,-76.93789427333333,-5.251000000000001,0,1,7.317025,8.684809,51.609856,1,1,1789158614.1611497,-0.8803762743157083,0.4735656192344149,-0.007562738567401829,-0.024819848639324602,177.90459846824055,-2.1103234438600524,-56.51415085344783,0.0026068237707787306,0.00016388641676226757,-0.0030677652262304333,0.35225487380981446,0.3723585066413879,-9.712408253688812
2026-09-11T16:30:14.204,2.105515168000011,-1110.6982421875,-99962.841796875,-399851.3671875,-760.8282958984375,0.0,0.0,0.0,0.0,0.0,0.0,-0.05838203430175781,-478.265625,-21.017532348632812,0.0,0.0,0.0,1,1789158614.0427234,38.99073482,-76.93789427333333,-5.251000000000001,0,1,7.317025,8.684809,51.609856,1,1,1789158614.2011497,-0.8803627179239787,0.4735935195978373,-0.007574092370566653,-0.02476481797227971,177.91083975634515,-2.108548737120918,-56.51785095291864,0.0017299703545767793,0.001128355361414334,-1.0471975511965977e-05,0.3540200708389282,0.37275077264785766,-9.698875076465606
2026-09-11T16:30:14.237,2.138933952000116,-1110.6982421875,-99962.841796875,-399851.3671875,-760.8282958984375,0.0,0.0,0.0,0.0,0.0,0.0,-0.05838203430175781,-478.265625,-21.017532348632812,0.0,0.0,0.0,1,1789158614.0427234,38.99073482,-76.93789427333333,-5.251000000000001,0,1,7.317025,8.684809,51.609856,1,1,1789158614.2291496,-0.8803482943579857,0.47362082508643916,-0.007599753985969368,-0.024747492898854605,177.91404688198082,-2.110263342326511,-56.52141853996104,0.0028178340773448453,0.001765226005467065,-0.0007045894190301109,0.35392200433731075,0.37402563716888426,-9.710152724151612
2026-09-11T16:30:14.270,2.1723424320000504,-1110.6982421875,-99962.841796875,-399851.3671875,-760.8282958984375,0.0,0.0,0.0,0.0,0.0,0.0,-0.05838203430175781,-478.265625,-21.017532348632812,0.0,0.0,0.0,1,1789158614.0427234,38.99073482,-76.93789427333333,-5.251000000000001,0,1,7.317025,8.684809,51.609856,1,1,1789158614.2601497,-0.8803453541615311,0.4736204407353315,-0.007713496265209395,-0.024824131389543272,177.91247354043176,-2.125904109304637,-56.52122537576194,0.0026789058688860964,0.0033211870336200093,-0.0025432937860061368,0.3691223120880127,0.3784386297416687,-9.716821246261597
2026-09-11T16:30:14.304,2.2057615359999545,-1110.6982421875,-99962.841796875,-399851.3671875,-760.8282958984375,0.0,0.0,0.0,0.0,0.0,0.0,-0.05838203430175781,-478.265625,-21.017532348632812,0.0,0.0,0.0,1,1789158614.0427234,38.99073482,-76.93789427333333,-5.251000000000001,0,1,7.317025,8.684809,51.609856,1,1,1789158614.3011496,-0.8803576394530861,0.473594162926395,-0.0076507167683710735,-0.024909075285271656,177.90042515781846,-2.1241155904823166,-56.517714621901966,0.0018120008294205128,-0.0053469906964098285,-0.004257556177314967,0.3718681741333008,0.3752024351882935,-9.712604386692048
2026-09-11T16:30:14.338,2.239308127999948,-1110.6982421875,-99962.841796875,-399851.3671875,-760.8282958984375,0.0,0.0,0.0,0.0,0.0,0.0,-0.05838203430175781,-478.265625,-21.017532348632812,0.0,0.0,0.0,1,1789158614.0427234,38.99073482,-76.93789427333333,-5.251000000000001,0,1,7.317025,8.684809,51.609856,1,1,1789158614.3281496,-0.8803621390293087,0.4735850280258273,-0.007586511405918462,-0.02494334055824062,177.89346004766384,-2.119472644601905,-56.516504318825504,0.002546435378659727,-0.004242371812822617,-0.0016175711507483445,0.3646112530136108,0.3790270287513733,-9.705053266067505
2026-09-11T16:30:14.371,2.2727255039999363,-1110.6982421875,-99962.841796875,-399851.3671875,-760.8282958984375,0.0,0.0,0.0,0.0,0.0,0.0,-0.05838203430175781,-478.265625,-21.017532348632812,0.0,0.0,0.0,1,1789158614.0427234,38.99073482,-76.93789427333333,-5.251000000000001,0,1,7.317025,8.684809,51.609856,1,1,1789158614.3611495,-0.8803526820386515,0.4736063363289927,-0.007529872521260389,-0.024889645160096997,177.89586347633394,-2.1108915768918615,-56.519371082117,0.002554987491994499,-0.005193052656383928,-0.0013898056833630847,0.3567659328842163,0.37402563716888426,-9.699855741481782
2026-09-11T16:30:14.405,2.30613756799994,-1110.6982421875,-99962.841796875,-399851.3671875,-760.8282958984375,0.0,0.0,0.0,0.0,0.0,0.0,-0.05838203430175781,-478.265625,-21.017532348632812,0.0,0.0,0.0,1,1789158614.0427234,38.99073482,-76.93789427333333,-5.251000000000001,0,1,7.317025,8.684809,51.609856,1,1,1789158614.4011497,-0.8803530027612223,0.47361683568186175,-0.0071777546466835,-0.024782318822730437,177.88763292695867,-2.069547410231899,-56.52102435048503,0.0018664551020827359,-0.005775294494849237,-0.00038955748904513437,0.324894319858551,0.3868723488807678,-9.707014596099855
2026-09-11T16:30:14.438,2.339559680000093,-1110.6982421875,-99962.841796875,-399851.3671875,-760.8282958984375,0.0,0.0,0.0,0.0,0.0,0.0,-0.05838203430175781,-478.265625,-21.017532348632812,0.0,0.0,0.0,1,1789158614.0427234,38.99073482,-76.93789427333333,-5.251000000000001,0,1,7.317025,8.684809,51.609856,1,1,1789158614.4291496,-0.8803347570440652,0.47365342892058027,-0.007093411628260103,-0.02475536958753916,177.88586638019495,-2.059658753946249,-56.52585986725297,0.003774099974512538,0.0001932079481957723,0.0013730505225439391,0.34607668420791626,0.3811844917869568,-9.72201877084732
2026-09-11T16:30:14.472,2.3729855359999874,-1110.6982421875,-99962.841796875,-399851.3671875,-760.8282958984375,0.0,0.0,0.0,0.0,0.0,0.0,-0.05838203430175781,-478.265625,-21.017532348632812,0.0,0.0,0.0,1,1789158614.0427234,38.99073482,-76.93789427333333,-5.251000000000001,0,1,7.317025,8.684809,51.609856,1,1,1789158614.4611497,-0.8802996249920304,0.4737203190377225,-0.007320657296647989,-0.0246584173546092,177.90814223236035,-2.0774919658398763,-56.53459513511898,0.0025569073541716926,0.004677307862419604,0.00021118483949131387,0.35598140087127683,0.37294690565109256,-9.718586443290711
2026-09-11T16:30:14.505,2.406406048000008,-1110.6982421875,-99962.841796875,-399851.3671875,-760.8282958984375,0.0,0.0,0.0,0.0,0.0,0.0,-0.05838203430175781,-478.265625,-21.017532348632812,0.0,0.0,0.0,1,1789158614.0427234,38.99073482,-76.93789427333333,-5.251000000000001,0,1,7.317025,8.684809,51.609856,1,1,1789158614.5011497,-0.880281596233778,0.47374802336868826,-0.0075544024508471894,-0.024699244724959938,177.91676456481045,-2.1033672991869747,-56.53805676972401,0.0028098055627856712,0.00451865743341332,-0.001980076036387567,0.37167204113006597,0.3678474475669861,-9.71436958372116
2026-09-11T16:30:14.538,2.4398307839999234,-1110.6982421875,-99962.841796875,-399851.3671875,-760.8282958984375,0.0,0.0,0.0,0.0,0.0,0.0,-0.05838203430175781,-478.265625,-21.017532348632812,0.0,0.0,0.0,1,1789158614.0427234,38.99073482,-76.93789427333333,-5.251000000000001,0,1,7.317025,8.684809,51.609856,1,1,1789158614.5291495,-0.8802856863182198,0.4737391216812446,-0.007549100116660227,-0.02472581928616936,177.9137715923052,-2.104254018916313,-56.53686493027851,0.002155830692063396,0.006012484740195266,-0.0002731440279371126,0.35480460285186766,0.3666706495475769,-9.707406862106323
2026-09-11T16:30:14.572,2.4732514239999546,-1110.6982421875,-99962.841796875,-399851.3671875,-760.8282958984375,0.0,0.0,0.0,0.0,0.0,0.0,-0.05838203430175781,-478.265625,-21.017532348632812,0.0,0.0,0.0,1,1789158614.0427234,38.99073482,-76.93789427333333,-5.251000000000001,0,1,7.317025,8.684809,51.609856,1,1,1789158614.5601497,-0.8802962859116856,0.4737175096722682,-0.00755735375351297,-0.02475997666074089,177.91071767911404,-2.1068905150719024,-56.534003399699934,0.0003052580861738082,0.0010903071837208575,-0.0027000243528352277,0.3622576569747925,0.36382672100067137,-9.703484202041626
2026-09-11T16:30:14.605,2.506667615999959,-1110.6982421875,-99962.841796875,-399851.3671875,-760.8282958984375,0.0,0.0,0.0,0.0,0.0,0.0,-0.05838203430175781,-478.265625,-21.017532348632812,0.0,0.0,0.0,1,1789158614.0427234,38.99073482,-76.93789427333333,-5.251000000000001,0,1,7.317025,8.684809,51.609856,1,1,1789158614.6011496,-0.8803020901948525,0.47370262879054315,-0.00751014390232184,-0.024852509210724377,177.89877507097611,-2.107114050555787,-56.53196221973822,0.0027508134340682626,0.0012505284090539373,0.0009082693427378491,0.36735711505889895,0.3834400213241577,-9.707308795604707
2026-09-11T16:30:14.638,2.540089183999953,-1110.6982421875,-99962.841796875,-399851.3671875,-760.8282958984375,0.0,0.0,0.0,0.0,0.0,0.0,-0.05838203430175781,-478.265625,-21.017532348632812,0.0,0.0,0.0,1,1789158614.0427234,38.99073482,-76.93789427333333,-5.251000000000001,0,1,7.317025,8.684809,51.609856,1,1,1789158614.6291497,-0.8803018500213968,0.47370198058753615,-0.007555235186719096,-0.024859703490295225,177.90049278152296,-2.1120544584784104,-56.5318508762074,0.0011700687305369985,0.000774402589109884,-0.0006489134158914917,0.3553930018615723,0.37608503370285035,-9.709073992633819
2026-09-11T16:30:14.672,2.573510592000048,-1110.6982421875,-99962.841796875,-399851.3671875,-760.8282958984375,0.0,0.0,0.0,0.0,0.0,0.0,-0.05838203430175781,-478.265625,-21.017532348632812,0.0,0.0,0.0,1,1789158614.0427234,38.99073482,-76.93789427333333,-5.251000000000001,0,1,7.317025,8.684809,51.609856,1,1,1789158614.6611497,-0.8803020367847391,0.4736998915298734,-0.007499058489851748,-0.024909855860522804,177.8923749443976,-2.1091022031209232,-56.531534490293424,0.0011744320536669845,0.0009655161422032631,-0.0002961823740634377,0.36441512001037596,0.3824593563079834,-9.712310187187196
2026-09-11T16:30:14.705,2.6069261760001154,-1110.6982421875,-99962.841796875,-399851.3671875,-760.8282958984375,0.0,0.0,0.0,0.0,0.0,0.0,-0.05838203430175781,-478.265625,-21.017532348632812,0.0,0.0,0.0,1,1789158614.0427234,38.99073482,-76.93789427333333,-5.251000000000001,0,1,7.317025,8.684809,51.609856,1,1,1789158614.7011497,-0.8803018516962801,0.47369859741070736,-0.007486350862058929,-0.024944804308698235,177.88815258628136,-2.1097139473904343,-56.53132488266039,0.0029199358385865134,0.0011892673523089363,-0.0005811946409141118,0.35294133932113647,0.3743198366737366,-9.707308795604707
2026-09-11T16:30:14.739,2.6403474240000833,-1110.6982421875,-99962.841796875,-399851.3671875,-760.8282958984375,0.0,0.0,0.0,0.0,0.0,0.0,-0.05838203430175781,-478.265625,-21.017532348632812,0.0,0.0,0.0,1,1789158614.0427234,38.99073482,-76.93789427333333,-5.251000000000001,0,1,7.317025,8.684809,51.609856,1,1,1789158614.7291496,-0.8803009848507225,0.4737048416293916,-0.007384377514775619,-0.02488714641014752,177.8884598347411,-2.096305634621218,-56.53225512208911,0.0007447319918259804,-0.002376789375365878,-0.0012381365713647775,0.34019269411087033,0.3781444302368164,-9.707308795604707
2026-09-11T16:30:14.772,2.6737654080000084,-1110.6982421875,-99962.841796875,-399851.3671875,-760.8282958984375,0.0,0.0,0.0,0.0,0.0,0.0,-0.05838203430175781,-478.265625,-21.017532348632812,0.0,0.0,0.0,1,1789158614.0427234,38.99073482,-76.93789427333333,-5.251000000000001,0,1,7.317025,8.684809,51.609856,1,1,1789158614.7611496,-0.8803091539931056,0.47369397229744636,-0.007097374510158497,-0.0248885773010749,177.87272179416584,-2.0673884184848563,-56.53096322048445,0.00014870205226991687,-0.017936574189820524,-0.002915747048381727,0.35755046489715575,0.39324667148590087,-9.715448315238953
2026-09-11T16:30:14.806,2.707179872000097,-1110.6982421875,-99962.841796875,-399851.3671875,-760.8282958984375,0.0,0.0,0.0,0.0,0.0,0.0,-0.058197021484375,-476.75,-20.950927734375,0.0,0.0,0.0,1,1789158614.0427234,38.99073482,-76.93789427333333,-5.251000000000001,0,1,7.317025,8.684809,51.609856,1,1,1789158614.8011496,-0.8802701563668649,0.4737642708927147,-0.006841944578585813,-0.02500110457026382,177.84766478233578,-2.047888049633989,-56.54009184664666,0.0023450243829795814,-0.025945017462596507,0.0022668336324902353,0.3917756739616394,0.4220782229614258,-9.725451098403932
2026-09-11T16:30:14.839,2.740600544000017,-1110.6982421875,-99962.841796875,-399851.3671875,-760.8282958984375,0.0,0.0,0.0,0.0,0.0,0.0,-0.05800628662109375,-475.1875,-20.88226318359375,0.03051757998764515,10.986328795552254,328.7285424894658,1,1789158614.0427234,38.99073482,-76.93789427333333,-5.251000000000001,0,1,7.317025,8.684809,51.609856,1,1,1789158614.8291497,-0.880243039425912,0.4738084366586537,-0.006772216003489901,-0.025137501540868273,177.83020887300108,-2.0483658123650597,-56.54570192703978,0.0006188937527571892,-0.022237065466734554,-0.0016184438153743418,0.3419578911399841,0.4063875827026367,-9.70828946062088
2026-09-11T16:30:14.872,2.774007040000015,-1110.6982421875,-99962.841796875,-399851.3671875,-760.8282958984375,0.0,0.0,0.0,0.0,0.0,0.0,-0.05637359619140625,-461.8125,-20.29449462890625,0.0457763746380806,16.479494869709015,164.434069174963,1,1789158614.0427234,38.99073482,-76.93789427333333,-5.251000000000001,0,1,7.317025,8.684809,51.609856,1,1,1789158614.8611495,-0.8802389884371191,0.4738516422510483,-0.005497844317239725,-0.024773334031678532,177.7979414864614,-1.900081719040538,-56.552556628884446,0.0009473647179825221,-0.015796975059800676,0.0007668976733263084,0.22202255966186524,0.4488503779029846,-9.704955199565887
2026-09-11T16:30:14.906,2.807425215999956,-1110.7239990234375,-99965.15991210938,-399860.6396484375,-760.8459393310548,-0.017643432617187503,-0.9453848004341125,-0.6475885882973671,-1.4486144154826557,-19.378334362070216,0.0,-0.05573081970214844,-456.546875,-20.063095092773438,0.0,0.0,-493.1296929472782,1,1789158614.0427234,38.99073482,-76.93789427333333,-5.251000000000001,0,1,7.317025,8.684809,51.609856,1,1,1789158614.9011497,-0.8801369556425251,0.4740079983145913,-0.006533825125007887,-0.025152852230673827,177.8161840665264,-2.0256345636472313,-56.57179125631968,0.0010733774899765126,-0.0034449308775864078,-0.0031138419184830834,0.45012524242401125,0.3715739746284485,-9.707210729103087
2026-09-11T16:30:14.939,2.8408408000000236,-1110.739501953125,-99966.55517578125,-399866.220703125,-760.8565588378907,-0.028262939453125004,-0.37836870551109314,-0.2591825632750988,-0.5797748820577544,11.623499533076615,0.0,-0.055633544921875,-455.75,-20.028076171875,0.0,0.0,0.0,1,1789158614.0427234,38.99073482,-76.93789427333333,-5.251000000000001,0,1,7.317025,8.684809,51.609856,1,1,1789158614.9291496,-0.8801466228667107,0.47400824135336905,-0.00671048958650981,-0.024760426388079675,177.8654016418393,-2.022142708329678,-56.572225828795666,0.0019462166488988769,-0.004837878153603082,-0.005629734035232909,0.2857657857131958,0.3380352310752869,-9.718684509792327
2026-09-11T16:30:14.972,2.8742568960001336,-1110.7393798828125,-99966.54418945312,-399866.1767578125,-760.8564752197266,-0.028179321289062503,-0.06908735632896423,-0.047324839085340506,-0.10586265006563272,6.339990290579158,0.0,-0.055633544921875,-455.75,-20.028076171875,0.0,0.0,0.0,1,1789158614.0427234,38.99073482,-76.93789427333333,-5.251000000000001,0,1,7.317025,8.684809,51.609856,1,1,1789158614.9611497,-0.8801595006646309,0.4740066134864153,-0.006661168126920192,-0.0243436357209133,177.90480863810768,-1.9945176332314931,-56.57256261273025,0.002529505684915382,-0.004420046330675639,-0.0049029789347024705,0.3245020538520813,0.34823414724349977,-9.699561541976928
2026-09-11T16:30:15.006,2.907674496000027,-1110.739501953125,-99966.55517578125,-399866.220703125,-760.8565588378907,-0.028262939453125004,-0.01754046231508255,-0.012015216685831548,-0.02687727426143418,1.0566175428403488,0.0,-0.055633544921875,-455.75,-20.028076171875,0.0,0.0,0.0,1,1789158614.0427234,38.99073482,-76.93789427333333,-5.251000000000001,0,1,7.317025,8.684809,51.609856,1,1,1789158615.0011497,-0.8801531942313184,0.4740468688863311,-0.0068608036046558405,-0.023724463268341236,177.97825835457402,-1.9811173678331664,-56.57848350407247,0.0009848892969004002,0.011559839234734042,0.0004180063558526419,0.296945366897583,0.30989014511108404,-9.724862699394226
2026-09-11T16:30:15.039,2.9410928960001,-1110.7392578125,-99966.533203125,-399866.1328125,-760.8563916015626,-0.028095703125000003,0.0,0.0,0.0,0.3595389571554957,0.0,-0.055633544921875,-455.75,-20.028076171875,0.0,0.0,0.0,1,1789158614.0427234,38.99073482,-76.93789427333333,-5.251000000000001,0,1,7.317025,8.684809,51.609856,1,1,1789158615.0291495,-0.8801414239884465,0.47408811128496153,-0.006936993507254112,-0.023311255627447888,178.02420952772923,-1.9664476779637772,-56.584333183669685,0.0022535691301750786,0.02283239727458982,-0.0008096582400001695,0.2990047634315491,0.31253794065475465,-9.715154115734101
2026-09-11T16:30:15.073,2.9745139199999358,-1110.7392578125,-99966.533203125,-399866.1328125,-760.8563916015626,-0.028095703125000003,0.0,0.0,0.0,0.0,0.0,-0.055633544921875,-455.75,-20.028076171875,0.0,0.0,0.0,1,1789158615.040579,38.99073505,-76.93789430833333,-5.292000000000002,0,1,7.317025,8.684809,51.609856,1,1,1789158615.0611496,-0.880153724227334,0.47406395409787816,-0.007899646291306251,-0.023030083419547844,178.10480953031504,-2.048260229831706,-56.581256757052046,0.0026293385181294575,0.037602071536666636,-0.0013311626204960752,0.35951179492950436,0.2355557368850708,-9.7258433644104
2026-09-11T16:30:15.106,3.0079356159999406,-1110.7392578125,-99966.533203125,-399866.1328125,-760.8563916015626,-0.028095703125000003,0.0,0.0,0.0,0.0,0.0,-0.055633544921875,-455.75,-20.028076171875,0.0,0.0,0.0,1,1789158615.040579,38.99073505,-76.93789430833333,-5.292000000000002,0,1,7.317025,8.684809,51.609856,1,1,1789158615.1011496,-0.880200439202075,0.473985887400675,-0.00847469499913139,-0.022643871536034862,178.1748431893427,-2.0851449234678094,-56.571503781502415,0.0011749556524425827,0.043350487961035154,-0.0005930628798276733,0.38785301389694216,0.25016764562606814,-9.726137563915252
2026-09-11T16:30:15.140,3.041354464000051,-1110.7392578125,-99966.533203125,-399866.1328125,-760.8563916015626,-0.028095703125000003,0.0,0.0,0.0,0.0,0.0,-0.055633544921875,-455.75,-20.028076171875,0.0,0.0,0.0,1,1789158615.040579,38.99073505,-76.93789430833333,-5.292000000000002,0,1,7.317025,8.684809,51.609856,1,1,1789158615.1291497,-0.8802009061451034,0.4739559613723655,-0.009240523722397956,-0.02295047324721835,178.18538284827196,-2.179028920988667,-56.56716266349877,0.003326946620151591,0.04071399359297252,0.0010735520229017122,0.40560305068969726,0.310576610622406,-9.739180408630371
2026-09-11T16:30:15.173,3.0747618240000065,-1110.700439453125,-99963.03955078125,-399852.158203125,-760.8298010253907,-0.0015051269531250002,0.9191241264343262,0.6296000266075135,1.4083751489967626,18.84614727438356,0.0,-0.055633544921875,-455.75,-20.028076171875,0.0,0.0,0.0,1,1789158615.040579,38.99073505,-76.93789430833333,-5.292000000000002,0,1,7.317025,8.684809,51.609856,1,1,1789158615.1611497,-0.8802277942668579,0.47386258113321805,-0.009365857978329896,-0.02378161277533711,178.1080150544528,-2.2366280372551093,-56.553853580594314,0.0029796260990047198,0.028887293515608547,0.002992017936693879,0.41060444227218623,0.37932122825622555,-9.687107096271514
2026-09-11T16:30:15.207,3.1081801600000745,-1110.6981201171875,-99962.83081054688,-399851.3232421875,-760.8282122802735,8.36181640625e-05,0.18976664543151855,0.12999015212059023,0.2907796888882205,-14.9501720997092,0.0,-0.055633544921875,-455.75,-20.028076171875,0.0,0.0,0.0,1,1789158615.040579,38.99073505,-76.93789430833333,-5.292000000000002,0,1,7.317025,8.684809,51.609856,1,1,1789158615.2011497,-0.880244192886103,0.47375020347075064,-0.009238494337782129,-0.025407790617960873,177.93656507681087,-2.3118332193615787,-56.53691677907703,0.0018765780117443033,0.005613851539039761,-0.002204001779418439,0.46248162162780765,0.5261267811775208,-9.677594645614624
2026-09-11T16:30:15.240,3.1415941120001207,-1110.697998046875,-99962.81982421875,-399851.279296875,-760.8281286621094,0.000167236328125,0.03347575664520264,0.02293089330196381,0.051294947436389994,-3.204028629073214,0.0,-0.055633544921875,-455.75,-20.028076171875,0.0,0.0,0.0,1,1789158615.040579,38.99073505,-76.93789430833333,-5.292000000000002,0,1,7.317025,8.684809,51.609856,1,1,1789158615.2291496,-0.8802399144459775,0.47369928163968433,-0.008664493924106799,-0.0266760217278382,177.77718365033013,-2.32263299480791,-56.528582297272315,0.0023989550568662057,-0.0053009140041571775,-0.0013910274138394805,0.415998099861145,0.5663340468406678,-9.67847724412918
2026-09-11T16:30:15.273,3.175014560000136,-1110.6982421875,-99962.841796875,-399851.3671875,-760.8282958984375,0.0,0.0,0.0,0.0,-0.686133629984652,0.0,-0.055633544921875,-455.75,-20.028076171875,0.0,0.0,0.0,1,1789158615.040579,38.99073505,-76.93789430833333,-5.292000000000002,0,1,7.317025,8.684809,51.609856,1,1,1789158615.2691495,-0.8802404762749855,0.4736451150308819,-0.008105306598705127,-0.027772521302727442,177.63594194725496,-2.3255795356100473,-56.52015849491063,-0.00032131511529215605,-0.030893374957850828,-0.005017472533633298,0.42198015645980835,0.4867040475273132,-9.696129214420319
2026-09-11T16:30:15.307,3.208434496000109,-1110.6982421875,-99962.841796875,-399851.3671875,-760.8282958984375,0.0,0.0,0.0,0.0,0.0,0.0,-0.055633544921875,-455.75,-20.028076171875,0.0,0.0,0.0,1,1789158615.040579,38.99073505,-76.93789430833333,-5.292000000000002,0,1,7.317025,8.684809,51.609856,1,1,1789158615.3011496,-0.8802438384873952,0.47365698519935096,-0.007759803140976343,-0.027561397498163727,177.63856613421498,-2.2792734442573956,-56.52218222640602,0.0014374531719425299,-0.04992619045084899,-0.006265906547584843,0.4320810061264038,0.38952014442443844,-9.685243832740785
2026-09-11T16:30:15.340,3.2418459519999487,-1110.6982421875,-99962.841796875,-399851.3671875,-760.8282958984375,0.0,0.0,0.0,0.0,0.0,0.0,-0.055633544921875,-455.75,-20.028076171875,0.0,0.0,0.0,1,1789158615.040579,38.99073505,-76.93789430833333,-5.292000000000002,0,1,7.317025,8.684809,51.609856,1,1,1789158615.3291497,-0.8802613076944896,0.4736796881964515,-0.007750983527687274,-0.02659897404887921,177.73537043166354,-2.226189964995903,-56.52650125888964,0.0019767599108087776,-0.05791316617382544,-0.0066607000243859606,0.3846168193435669,0.2866483842277527,-9.704170667552948
2026-09-11T16:30:15.374,3.2752568959999735,-1110.6982421875,-99962.841796875,-399851.3671875,-760.8282958984375,0.0,0.0,0.0,0.0,0.0,0.0,-0.055633544921875,-455.75,-20.028076171875,0.0,0.0,0.0,1,1789158615.040579,38.99073505,-76.93789430833333,-5.292000000000002,0,1,7.317025,8.684809,51.609856,1,1,1789158615.3691497,-0.8803342896033458,0.4736419341757924,-0.007145129865060407,-0.02497606570294745,177.86635273323492,-2.076832594722083,-56.524054095734236,0.0028433158844239624,-0.0633130403465707,-0.006801897160872301,0.3598059944343567,0.3093017461013794,-9.753890383872985
2026-09-11T16:30:15.407,3.308674271999962,-1110.6982421875,-99962.841796875,-399851.3671875,-760.8282958984375,0.0,0.0,0.0,0.0,0.0,0.0,-0.05594062805175781,-458.265625,-20.138626098632812,0.0,0.0,0.0,1,1789158615.040579,38.99073505,-76.93789430833333,-5.292000000000002,0,1,7.317025,8.684809,51.609856,1,1,1789158615.4011497,-0.880386247933925,0.4736089995762186,-0.006391244896714118,-0.0239524937722382,177.9287754818358,-1.9450932744439542,-56.5214216717348,0.002873859146333863,-0.04510559105684066,-0.007363195048313677,0.3096940121078491,0.3197948617744446,-9.714271517219544
2026-09-11T16:30:15.441,3.3420869440001297,-1110.6982421875,-99962.841796875,-399851.3671875,-760.8282958984375,0.0,0.0,0.0,0.0,0.0,0.0,-0.056293487548828125,-461.15625,-20.265655517578125,-0.015258789993822575,-5.493164397776127,-164.40362500037565,1,1789158615.040579,38.99073505,-76.93789430833333,-5.292000000000002,0,1,7.317025,8.684809,51.609856,1,1,1789158615.4291496,-0.8804339012351139,0.4735657317405249,-0.00541178745684743,-0.02328853437855566,177.94262395523774,-1.8100883100622476,-56.51712621192167,0.0035363861303909106,-0.02195885998396666,-0.00663277475635405,0.17857909944534303,0.3723585066413879,-9.723097502365112
2026-09-11T16:30:15.474,3.3755002240000067,-1110.6982421875,-99962.841796875,-399851.3671875,-760.8282958984375,0.0,0.0,0.0,0.0,0.0,0.0,-0.05630683898925781,-461.265625,-20.270462036132812,0.0,0.0,164.400633454613,1,1789158615.040579,38.99073505,-76.93789430833333,-5.292000000000002,0,1,7.317025,8.684809,51.609856,1,1,1789158615.4691496,-0.8804175189409758,0.47360814218701086,-0.004570802730685678,-0.023225584134357515,177.90345760302287,-1.7218874078110191,-56.523292294446236,0.002885901918172624,0.007373841556750842,0.0004881685917828139,0.22672975173950197,0.4264912155342102,-9.681419239177705
2026-09-11T16:30:15.507,3.408922240000038,-1110.6982421875,-99962.841796875,-399851.3671875,-760.8282958984375,0.0,0.0,0.0,0.0,0.0,0.0,-0.05630683898925781,-461.265625,-20.270462036132812,0.0,0.0,0.0,1,1789158615.040579,38.99073505,-76.93789430833333,-5.292000000000002,0,1,7.317025,8.684809,51.609856,1,1,1789158615.5011497,-0.880365648486087,0.4736871058797497,-0.004528727536029983,-0.023586888642684392,177.8648426095275,-1.7374446417733265,-56.533209581327824,0.0018369590377240318,0.03344871151569573,0.003450690464117989,0.281254726638794,0.41854782890319825,-9.692206554355622
2026-09-11T16:30:15.541,3.4423361920000843,-1110.6982421875,-99962.841796875,-399851.3671875,-760.8282958984375,0.0,0.0,0.0,0.0,0.0,0.0,-0.05630683898925781,-461.265625,-20.270462036132812,0.0,0.0,0.0,1,1789158615.040579,38.99073505,-76.93789430833333,-5.292000000000002,0,1,7.317025,8.684809,51.609856,1,1,1789158615.5291495,-0.8803054684732516,0.4737774360927102,-0.005233503972151191,-0.02387118894567465,177.87454727351331,-1.824229132102131,-56.54413313806758,0.0004303981935418017,0.04821995657409934,0.004092971628851902,0.3362700340461731,0.38755881439208983,-9.733688684539795
2026-09-11T16:30:15.574,3.475754080000115,-1110.6982421875,-99962.841796875,-399851.3671875,-760.8282958984375,0.0,0.0,0.0,0.0,0.0,0.0,-0.05630683898925781,-461.265625,-20.270462036132812,0.0,0.0,0.0,1,1789158615.040579,38.99073505,-76.93789430833333,-5.292000000000002,0,1,7.317025,8.684809,51.609856,1,1,1789158615.5691497,-0.8802508660217223,0.47383283694688766,-0.006798663855231849,-0.024385111618687366,177.90768673078537,-2.0102333347291625,-56.54982167179122,0.0031579987485585398,0.05764194200806552,-0.0002926917155594491,0.40069972560882566,0.32901311292648316,-9.750752255821228
2026-09-11T16:30:15.608,3.509303520000003,-1110.6982421875,-99962.841796875,-399851.3671875,-760.8282958984375,0.0,0.0,0.0,0.0,0.0,0.0,-0.05630683898925781,-461.265625,-20.270462036132812,0.0,0.0,0.0,1,1789158615.040579,38.99073505,-76.93789430833333,-5.292000000000002,0,1,7.317025,8.684809,51.609856,1,1,1789158615.6011496,-0.880229615176636,0.47385954181954754,-0.007727529534575296,-0.024356610598600108,177.96102909799265,-2.1024949990330057,-56.552965542029845,0.002453409329528429,0.042748000303246714,0.0011906636157105316,0.3817728907966614,0.32528658586502074,-9.718782576293945
2026-09-11T16:30:15.641,3.542721664000055,-1110.6982421875,-99962.841796875,-399851.3671875,-760.8282958984375,0.0,0.0,0.0,0.0,0.0,0.0,-0.05630683898925781,-461.265625,-20.270462036132812,0.0,0.0,0.0,1,1789158615.040579,38.99073505,-76.93789430833333,-5.292000000000002,0,1,7.317025,8.684809,51.609856,1,1,1789158615.6291497,-0.8802142441747779,0.47385236604684433,-0.00837861632558474,-0.024831800822746313,177.94834979332205,-2.1940002126839997,-56.55120466924459,0.0014124949636390109,0.026551519377664538,0.0008843583319855268,0.42668734853744505,0.387362681388855,-9.651018623676299
2026-09-11T16:30:15.674,3.576136511999948,-1110.6982421875,-99962.841796875,-399851.3671875,-760.8282958984375,0.0,0.0,0.0,0.0,0.0,0.0,-0.05630683898925781,-461.265625,-20.270462036132812,0.0,0.0,0.0,1,1789158615.040579,38.99073505,-76.93789430833333,-5.292000000000002,0,1,7.317025,8.684809,51.609856,1,1,1789158615.6691496,-0.8802217396790744,0.4738011283262518,-0.009125182048853696,-0.02527668581301545,177.94379337245624,-2.2933953219500194,-56.54375396063287,0.003679328596129246,-0.0014741050862344105,-0.004449367862109145,0.4797413259124756,0.327149849395752,-9.699855741481782
2026-09-11T16:30:15.708,3.6095612159999746,-1110.6982421875,-99962.841796875,-399851.3671875,-760.8282958984375,0.0,0.0,0.0,0.0,0.0,0.0,-0.05630683898925781,-461.265625,-20.270462036132812,0.0,0.0,0.0,1,1789158615.040579,38.99073505,-76.93789430833333,-5.292000000000002,0,1,7.317025,8.684809,51.609856,1,1,1789158615.7011497,-0.8802554454564778,0.4737463361056388,-0.008858910538789875,-0.025224580764929703,177.93446836229623,-2.263560864523296,-56.536743320925524,0.0033646457319946687,-0.019736706780327476,-0.003122219498892656,0.39344280448913577,0.37500630218505865,-9.682596037197113
2026-09-11T16:30:15.741,3.642993535999949,-1110.6982421875,-99962.841796875,-399851.3671875,-760.8282958984375,0.0,0.0,0.0,0.0,0.0,0.0,-0.05630683898925781,-461.265625,-20.270462036132812,0.0,0.0,0.0,1,1789158615.040579,38.99073505,-76.93789430833333,-5.292000000000002,0,1,7.317025,8.684809,51.609856,1,1,1789158615.7291496,-0.8802942463677992,0.473685366276951,-0.008183073758141486,-0.02524382876443691,177.89570832466154,-2.19624327096279,-56.528951840056536,0.0005759586531581288,-0.03686676432280142,-0.00623902847710413,0.33891782958984373,0.4136445038223267,-9.698482810459137
2026-09-11T16:30:15.775,3.6764191360000495,-1110.6982421875,-99962.841796875,-399851.3671875,-760.8282958984375,0.0,0.0,0.0,0.0,0.0,0.0,-0.05630683898925781,-461.265625,-20.270462036132812,0.0,0.0,0.0,1,1789158615.040579,38.99073505,-76.93789430833333,-5.292000000000002,0,1,7.317025,8.684809,51.609856,1,1,1789158615.7691495,-0.880327126658081,0.47366418389750947,-0.006897948557814993,-0.024875877237338476,177.86311810486788,-2.046497581574522,-56.527196441179925,0.0030089476304382243,-0.040446434618641794,-0.0026598817800393584,0.33372030500411987,0.39873839557647706,-9.725156898899078
2026-09-11T16:30:15.808,3.7098424000000705,-1110.6982421875,-99962.841796875,-399851.3671875,-760.8282958984375,0.0,0.0,0.0,0.0,0.0,0.0,-0.05630683898925781,-461.265625,-20.270462036132812,0.0,0.0,0.0,1,1789158615.040579,38.99073505,-76.93789430833333,-5.292000000000002,0,1,7.317025,8.684809,51.609856,1,1,1789158615.8011496,-0.8803388291847146,0.4736517069118081,-0.006417812252923102,-0.024827767823609737,177.8419074701689,-1.995392404516894,-56.52588524081567,0.0017744762505026348,-0.036657673878412504,-0.005385213407028504,0.300573827457428,0.42325502098083495,-9.719665174808501
2026-09-11T16:30:15.841,3.743264928000144,-1110.6982421875,-99962.841796875,-399851.3671875,-760.8282958984375,0.0,0.0,0.0,0.0,0.0,0.0,-0.05630683898925781,-461.265625,-20.270462036132812,0.0,0.0,0.0,1,1789158615.040579,38.99073505,-76.93789430833333,-5.292000000000002,0,1,7.317025,8.684809,51.609856,1,1,1789158615.8291497,-0.8803402863293431,0.4736746139444219,-0.005635658065083266,-0.02452712230055279,177.82990122665407,-1.9001814784301352,-56.52971309092102,0.0032026791774095948,-0.026214670832029628,-0.0025535912285929033,0.2656621528816223,0.41521356784820557,-9.719469041805267
2026-09-11T16:30:15.875,3.7766764160001003,-1110.6982421875,-99962.841796875,-399851.3671875,-760.8282958984375,0.0,0.0,0.0,0.0,0.0,0.0,-0.05630683898925781,-461.265625,-20.270462036132812,0.0,0.0,0.0,1,1789158615.040579,38.99073505,-76.93789430833333,-5.292000000000002,0,1,7.317025,8.684809,51.609856,1,1,1789158615.8691497,-0.8803285805453844,0.47371615488316654,-0.00558640418032538,-0.024153404852944156,177.86506221978598,-1.8750215462470896,-56.53559435399722,0.0015690509975429022,0.004253890985885779,-0.002199987522138852,0.3045945540237427,0.3600021274375915,-9.722214903850555
2026-09-11T16:30:15.908,3.810096511999973,-1110.6982421875,-99962.841796875,-399851.3671875,-760.8282958984375,0.0,0.0,0.0,0.0,0.0,0.0,-0.05662345886230469,-463.859375,-20.384445190429688,-0.0457763709127903,-16.479493528604507,-493.10132229025845,1,1789158615.040579,38.99073505,-76.93789430833333,-5.292000000000002,0,1,7.317025,8.684809,51.609856,1,1,1789158615.9011497,-0.880327461381246,0.4737327222589315,-0.00585223015953738,-0.023803781240655367,177.9148268196845,-1.8829073559311944,-56.537998527688934,0.0016849408598753257,0.025165204352805438,-0.00268082573106329,0.27958759611129763,0.3379371645736694,-9.715644448242188
2026-09-11T16:30:15.942,3.843519583999978,-1110.6982421875,-99962.841796875,-399851.3671875,-760.8282958984375,0.0,0.0,0.0,0.0,0.0,0.0,-0.05728340148925781,-469.265625,-20.622024536132812,0.0,0.0,493.05741640391454,1,1789158615.040579,38.99073505,-76.93789430833333,-5.292000000000002,0,1,7.317025,8.684809,51.609856,1,1,1789158615.9291496,-0.8803435613445595,0.4737059967889913,-0.006219973523640893,-0.023646448669748646,177.95060762865262,-1.911418372677745,-56.53450445433914,0.0020626301100068987,0.03088395017989006,-0.0017062338767496565,0.3139108716773987,0.3188141967582702,-9.709858524646759
2026-09-11T16:30:15.975,3.8769431680000253,-1110.6982421875,-99962.841796875,-399851.3671875,-760.8282958984375,0.0,0.0,0.0,0.0,0.0,0.0,-0.05728340148925781,-469.265625,-20.622024536132812,0.0,0.0,0.0,1,1789158615.040579,38.99073505,-76.93789430833333,-5.292000000000002,0,1,7.317025,8.684809,51.609856,1,1,1789158615.9691496,-0.8803537395937729,0.4736832718790588,-0.006837254229795635,-0.023552135355555674,177.99356742526828,-1.9685494225741254,-56.5313739078739,0.0014336134475881424,0.03012036863214254,-0.0016058774447599824,0.3222465243148804,0.3338183715057373,-9.716232847251892
2026-09-11T16:30:16.008,3.910366560000057,-1110.6982421875,-99962.841796875,-399851.3671875,-760.8282958984375,0.0,0.0,0.0,0.0,0.0,0.0,-0.05740547180175781,-470.265625,-20.665969848632812,0.0,0.0,0.0,1,1789158615.040579,38.99073505,-76.93789430833333,-5.292000000000002,0,1,7.317025,8.684809,51.609856,1,1,1789158616.0011497,-0.8803511206047762,0.47366103990909936,-0.007208366158536423,-0.02398255990234635,177.97017515534898,-2.029324819416602,-56.527792984761064,0.0009700539982584484,0.021039246001090844,-0.0004813618077000361,0.38500908535003664,0.3900104769325256,-9.717703844776153
2026-09-11T16:30:16.043,3.9438025599999946,-1110.6982421875,-99962.841796875,-399851.3671875,-760.8282958984375,0.0,0.0,0.0,0.0,0.0,0.0,-0.05740547180175781,-470.265625,-20.665969848632812,0.0,0.0,0.0,1,1789158615.040579,38.99073505,-76.93789430833333,-5.292000000000002,0,1,7.317025,8.684809,51.609856,1,1,1789158616.0291495,-0.8803328849748187,0.47366151965799574,-0.007353337510359057,-0.02459074733816388,177.91661105592763,-2.0769771537605046,-56.527016112896646,0.0034829790552798837,0.0141582854251032,-0.0025502751030141145,0.3674551815605164,0.443260587310791,-9.679261776142122
2026-09-11T16:30:16.076,3.9772247040000366,-1110.6982421875,-99962.841796875,-399851.3671875,-760.8282958984375,0.0,0.0,0.0,0.0,0.0,0.0,-0.05740547180175781,-470.265625,-20.665969848632812,0.0,0.0,0.0,1,1789158616.045393,38.990735183333335,-76.93789423333334,-5.3309999999999995,0,1,7.317025,8.684809,51.609856,1,1,1789158616.0691497,-0.8803029591905439,0.47367243519191765,-0.007377331280026766,-0.02543028043327037,177.8331400041447,-2.125004263466379,-56.527321231464406,0.0011121237993707868,0.0011135200627723821,5.619960191421742e-05,0.3914814744567871,0.4302177425956726,-9.68691096326828
2026-09-11T16:30:16.109,4.010650400000031,-1110.6982421875,-99962.841796875,-399851.3671875,-760.8282958984375,0.0,0.0,0.0,0.0,0.0,0.0,-0.05740547180175781,-470.265625,-20.665969848632812,0.0,0.0,0.0,1,1789158616.045393,38.990735183333335,-76.93789423333334,-5.3309999999999995,0,1,7.317025,8.684809,51.609856,1,1,1789158616.1011496,-0.8802864392018036,0.4736974505295997,-0.0074591350373504756,-0.02551218578759934,177.8293643895385,-2.1377698135370737,-56.530431784853725,0.0009159487914466241,-0.006875026456530863,-0.0020003218557107013,0.36039439344406127,0.388049146900177,-9.70024800748825
2026-09-11T16:30:16.142,4.044073664000052,-1110.6982421875,-99962.841796875,-399851.3671875,-760.8282958984375,0.0,0.0,0.0,0.0,0.0,0.0,-0.05740547180175781,-470.265625,-20.665969848632812,0.0,0.0,0.0,1,1789158616.045393,38.990735183333335,-76.93789423333334,-5.3309999999999995,0,1,7.317025,8.684809,51.609856,1,1,1789158616.1291497,-0.8802947562788943,0.4736923412376049,-0.007455539930170649,-0.02532040373035501,177.84852847881953,-2.1269817116625744,-56.53002457649758,0.0020310396505458014,-0.013852852806004193,-0.0003907792195215304,0.37333917165756225,0.3508819427871704,-9.705347465572357
2026-09-11T16:30:16.176,4.077484831999982,-1110.6982421875,-99962.841796875,-399851.3671875,-760.8282958984375,0.0,0.0,0.0,0.0,0.0,0.0,-0.05740547180175781,-470.265625,-20.665969848632812,0.0,0.0,0.0,1,1789158616.045393,38.990735183333335,-76.93789423333334,-5.3309999999999995,0,1,7.317025,8.684809,51.609856,1,1,1789158616.1691496,-0.8802922609420488,0.47373068642432425,-0.007469972445578414,-0.024677349475519833,177.91435448466527,-2.093615529142038,-56.53586074169323,0.0011426670612806875,-0.018168179381560175,-0.0018922859750122522,0.34950901176452637,0.33322997249603276,-9.70299386953354
2026-09-11T16:30:16.209,4.11090192000006,-1110.6982421875,-99962.841796875,-399851.3671875,-760.8282958984375,0.0,0.0,0.0,0.0,0.0,0.0,-0.05740547180175781,-470.265625,-20.665969848632812,0.0,0.0,0.0,1,1789158616.045393,38.990735183333335,-76.93789423333334,-5.3309999999999995,0,1,7.317025,8.684809,51.609856,1,1,1789158616.2011497,-0.8803034918400833,0.4737384016827876,-0.007403168726019978,-0.024142951725268123,177.96472249941618,-2.057874116219646,-56.537585164997104,0.0021163862509683243,-0.018915354834338944,-0.003743033113827039,0.3520587408065796,0.32332525583267213,-9.715252182235718
2026-09-11T16:30:16.243,4.144322816000113,-1110.6982421875,-99962.841796875,-399851.3671875,-760.8282958984375,0.0,0.0,0.0,0.0,0.0,0.0,-0.05740547180175781,-470.265625,-20.665969848632812,0.0,0.0,0.0,1,1789158616.045393,38.990735183333335,-76.93789423333334,-5.3309999999999995,0,1,7.317025,8.684809,51.609856,1,1,1789158616.2292206,-0.8803073773290706,0.47374963048450736,-0.007281411854958685,-0.023815752711273834,177.99118889713534,-2.0278441857629077,-56.53950966821191,0.0033533010918567053,-0.014771943190104405,-0.0027042131430400143,0.3359758345413208,0.34303662265777585,-9.719567108306885
2026-09-11T16:30:16.276,4.177734783999995,-1110.6982421875,-99962.841796875,-399851.3671875,-760.8282958984375,0.0,0.0,0.0,0.0,0.0,0.0,-0.05740547180175781,-470.265625,-20.665969848632812,0.0,0.0,0.0,1,1789158616.045393,38.990735183333335,-76.93789423333334,-5.3309999999999995,0,1,7.317025,8.684809,51.609856,1,1,1789158616.2692206,-0.8803318796110075,0.4737165259788903,-0.006646728061196211,-0.02375406830676822,177.96291207304887,-1.9603589280477196,-56.53553675046201,0.00214221712389784,-0.012099495039450691,-0.0012424998944947632,0.2942975713539123,0.40069972560882566,-9.716625113258361
2026-09-11T16:30:16.309,4.211149952000142,-1110.6982421875,-99962.841796875,-399851.3671875,-760.8282958984375,0.0,0.0,0.0,0.0,0.0,0.0,-0.05740547180175781,-470.265625,-20.665969848632812,0.0,0.0,0.0,1,1789158616.045393,38.990735183333335,-76.93789423333334,-5.3309999999999995,0,1,7.317025,8.684809,51.609856,1,1,1789158616.3012207,-0.8803241296603141,0.4737231079279147,-0.006351401208904234,-0.023989653094851425,177.9231132672208,-1.9433578217331917,-56.53624920758682,0.0026986280894336326,-0.005945115031068284,-0.0012910200477002055,0.31508766969680785,0.4205091589355469,-9.719469041805267
2026-09-11T16:30:16.343,4.244567168000003,-1110.6982421875,-99962.841796875,-399851.3671875,-760.8282958984375,0.0,0.0,0.0,0.0,0.0,0.0,-0.05740547180175781,-470.265625,-20.665969848632812,0.0,0.0,0.0,1,1789158616.045393,38.990735183333335,-76.93789423333334,-5.3309999999999995,0,1,7.317025,8.684809,51.609856,1,1,1789158616.3292208,-0.880289779168258,0.4737843682096046,-0.006256039800076731,-0.024065309018275246,177.91043421775072,-1.937986167360537,-56.54418155181767,0.0018959511664414402,0.0017783159748570223,0.00039200094999792645,0.31744126573562625,0.4120754397964478,-9.715252182235718
2026-09-11T16:30:16.377,4.277990047999992,-1110.6982421875,-99962.841796875,-399851.3671875,-760.8282958984375,0.0,0.0,0.0,0.0,0.0,0.0,-0.05740547180175781,-470.265625,-20.665969848632812,0.0,0.0,0.0,1,1789158616.045393,38.990735183333335,-76.93789423333334,-5.3309999999999995,0,1,7.317025,8.684809,51.609856,1,1,1789158616.3692207,-0.8802628782477102,0.47382719001129164,-0.006247541336109774,-0.024208003063321028,177.89565697286218,-1.9449795408162358,-56.549586742033995,0.0021057397425311587,0.005498659808408135,0.00015777776438028737,0.30135835947036743,0.3933447379875183,-9.715154115734101
2026-09-11T16:30:16.410,4.3114146560001245,-1110.6982421875,-99962.841796875,-399851.3671875,-760.8282958984375,0.0,0.0,0.0,0.0,0.0,0.0,-0.05740547180175781,-470.265625,-20.665969848632812,0.0,0.0,0.0,1,1789158616.045393,38.990735183333335,-76.93789423333334,-5.3309999999999995,0,1,7.317025,8.684809,51.609856,1,1,1789158616.4012208,-0.8802455600466316,0.4738511121990609,-0.006349386580288878,-0.024342612348697834,177.88764218887715,-1.9626259558963575,-56.55248070249516,0.0027019442150124215,0.009607862999303586,0.0011536626355682519,0.33813329757690425,0.38844141290664674,-9.705739731578827
2026-09-11T16:30:16.443,4.344830688000002,-1110.6982421875,-99962.841796875,-399851.3671875,-760.8282958984375,0.0,0.0,0.0,0.0,0.0,0.0,-0.05740547180175781,-470.265625,-20.665969848632812,0.0,0.0,0.0,1,1789158616.045393,38.990735183333335,-76.93789423333334,-5.3309999999999995,0,1,7.317025,8.684809,51.609856,1,1,1789158616.4412208,-0.8802471405214568,0.47384081538260053,-0.006480124585612673,-0.0244512017435935,177.8837466626938,-1.9816932794421467,-56.55093651692625,0.0005263913024014898,0.009867393459075141,-0.002733883740323918,0.3204813272857666,0.37137784162521364,-9.706131997585297
2026-09-11T16:30:16.476,4.378251712000065,-1110.6982421875,-99962.841796875,-399851.3671875,-760.8282958984375,0.0,0.0,0.0,0.0,0.0,0.0,-0.05740547180175781,-470.265625,-20.665969848632812,0.0,0.0,0.0,1,1789158616.045393,38.990735183333335,-76.93789423333334,-5.3309999999999995,0,1,7.317025,8.684809,51.609856,1,1,1789158616.4692206,-0.8802386135410246,0.4738537521179663,-0.006762874906106595,-0.024430889425157722,177.90116943876822,-2.0091573329425327,-56.55250376457953,0.0031351349353574143,0.012615239833415014,-0.0010386454378618255,0.37010297710418705,0.352156807308197,-9.714565716724396
2026-09-11T16:30:16.510,4.411676544000102,-1110.6982421875,-99962.841796875,-399851.3671875,-760.8282958984375,0.0,0.0,0.0,0.0,0.0,0.0,-0.05740547180175781,-470.265625,-20.665969848632812,0.0,0.0,0.0,1,1789158616.045393,38.990735183333335,-76.93789423333334,-5.3309999999999995,0,1,7.317025,8.684809,51.609856,1,1,1789158616.5012207,-0.8802255225506717,0.4738792094343056,-0.00705654355157006,-0.024325490938915506,177.9278073792456,-2.033131268412699,-56.555818074775615,0.0033000685496708784,0.011913268408262893,-0.0012674581027982822,0.3253846523666382,0.3537258713340759,-9.711035322666168
2026-09-11T16:30:16.543,4.445099232000075,-1110.6982421875,-99962.841796875,-399851.3671875,-760.8282958984375,0.0,0.0,0.0,0.0,0.0,0.0,-0.05740547180175781,-470.265625,-20.665969848632812,0.0,0.0,0.0,1,1789158616.045393,38.990735183333335,-76.93789423333334,-5.3309999999999995,0,1,7.317025,8.684809,51.609856,1,1,1789158616.5412207,-0.8802213462969976,0.47388432462531793,-0.007111587512447418,-0.024360905577592927,177.9272297152263,-2.0406220698542463,-56.55641547744201,0.0017599900177110819,0.004583234615737109,-5.096361415823442e-05,0.3609827924537659,0.37049524311065674,-9.716919312763213
2026-09-11T16:30:16.577,4.478511168000068,-1110.6982421875,-99962.841796875,-399851.3671875,-760.8282958984375,0.0,0.0,0.0,0.0,0.0,0.0,-0.05740547180175781,-470.265625,-20.665969848632812,0.0,0.0,0.0,1,1789158616.045393,38.990735183333335,-76.93789423333334,-5.3309999999999995,0,1,7.317025,8.684809,51.609856,1,1,1789158616.5692208,-0.8802131746511569,0.4738919012686446,-0.007249211036084061,-0.024467979521718943,177.92390234299955,-2.060345131582255,-56.55720746921174,0.0026124088243851128,0.0068057368852266886,0.00048101274184963723,0.35696206588745116,0.37412370367050174,-9.710152724151612
2026-09-11T16:30:16.610,4.511935967999989,-1110.6982421875,-99962.841796875,-399851.3671875,-760.8282958984375,0.0,0.0,0.0,0.0,0.0,0.0,-0.05740547180175781,-470.265625,-20.665969848632812,0.0,0.0,0.0,1,1789158616.045393,38.990735183333335,-76.93789423333334,-5.3309999999999995,0,1,7.317025,8.684809,51.609856,1,1,1789158616.6012206,-0.8801986034167786,0.47390878285801963,-0.007437287779504793,-0.024608348657875805,177.91997269117078,-2.086990735401682,-56.559148585384115,0.0024532347966032294,0.0055915113246142335,-0.001461364182694852,0.3691223120880127,0.3820670903015137,-9.709073992633819
2026-09-11T16:30:16.644,4.545354975999999,-1110.6982421875,-99962.841796875,-399851.3671875,-760.8282958984375,0.0,0.0,0.0,0.0,0.0,0.0,-0.05740547180175781,-470.265625,-20.665969848632812,0.0,0.0,0.0,1,1789158616.045393,38.990735183333335,-76.93789423333334,-5.3309999999999995,0,1,7.317025,8.684809,51.609856,1,1,1789158616.6412206,-0.8802002074604351,0.4739037108977156,-0.007425573067559812,-0.024652148965144425,177.91490153932682,-2.08817559102022,-56.55843553716773,0.0014074335088082274,-0.0021069614730075546,-0.002001892652037496,0.3497051447677612,0.3745159696769714,-9.707112662601471
2026-09-11T16:30:16.677,4.578768480000008,-1110.6982421875,-99962.841796875,-399851.3671875,-760.8282958984375,0.0,0.0,0.0,0.0,0.0,0.0,-0.05740547180175781,-470.265625,-20.665969848632812,0.0,0.0,0.0,1,1789158616.045393,38.990735183333335,-76.93789423333334,-5.3309999999999995,0,1,7.317025,8.684809,51.609856,1,1,1789158616.6692207,-0.8802044014277275,0.4738939825548244,-0.007384623784132963,-0.024701666687704144,177.907655465074,-2.0867094193759534,-56.55712042522645,0.0022546163277262746,-0.0024439845515676593,0.0011433651929814853,0.35990406093597416,0.3767714992141724,-9.707308795604707
2026-09-11T16:30:16.710,4.612193983999987,-1110.6982421875,-99962.841796875,-399851.3671875,-760.8282958984375,0.0,0.0,0.0,0.0,0.0,0.0,-0.05740547180175781,-470.265625,-20.665969848632812,0.0,0.0,0.0,1,1789158616.045393,38.990735183333335,-76.93789423333334,-5.3309999999999995,0,1,7.317025,8.684809,51.609856,1,1,1789158616.7012208,-0.8802020734986334,0.47390330595953045,-0.007274029398455103,-0.024638484239994957,177.90805673120752,-2.0721381399344008,-56.55846138016923,0.0023240804319556493,-0.002968630524717155,-0.0013370967399528558,0.3411733591270447,0.37667343271255493,-9.71436958372116
2026-09-11T16:30:16.744,4.645615743999997,-1110.6982421875,-99962.841796875,-399851.3671875,-760.8282958984375,0.0,0.0,0.0,0.0,0.0,0.0,-0.05740547180175781,-470.265625,-20.665969848632812,0.0,0.0,0.0,1,1789158616.045393,38.990735183333335,-76.93789423333334,-5.3309999999999995,0,1,7.317025,8.684809,51.609856,1,1,1789158616.7402208,-0.8802177957765258,0.47387700110087744,-0.007012151180143027,-0.024658660989205786,177.89174664731834,-2.0467417316322147,-56.55512444235784,0.0020107938312226674,-0.0035088099282094,-0.0004902629868852072,0.3416636916351319,0.3759869672012329,-9.717801911277771
2026-09-11T16:30:16.777,4.6790348480001285,-1110.6982421875,-99962.841796875,-399851.3671875,-760.8282958984375,0.0,0.0,0.0,0.0,0.0,0.0,-0.05740547180175781,-470.265625,-20.665969848632812,0.0,0.0,0.0,1,1789158616.045393,38.990735183333335,-76.93789423333334,-5.3309999999999995,0,1,7.317025,8.684809,51.609856,1,1,1789158616.7682207,-0.8802187749286824,0.4738787581424394,-0.006932580850430907,-0.024612398647453553,177.89210498471152,-2.0362027207153712,-56.55544892858627,0.0013393656679804486,-0.0010697122985473245,-0.0009808750396208131,0.34146755863189693,0.3771637652206421,-9.714859916229248
2026-09-11T16:30:16.811,4.712447520000069,-1110.6982421875,-99962.841796875,-399851.3671875,-760.8282958984375,0.0,0.0,0.0,0.0,0.0,0.0,-0.05740547180175781,-470.265625,-20.665969848632812,0.0,0.0,0.0,1,1789158616.045393,38.990735183333335,-76.93789423333334,-5.3309999999999995,0,1,7.317025,8.684809,51.609856,1,1,1789158616.8002207,-0.8802119943104072,0.47389226849305294,-0.006944454787932604,-0.024591410742415633,177.89490012075248,-2.036293430371563,-56.557229017369615,0.0010119419003063123,0.0022226768024147785,-0.0014604915180688551,0.3448998861885071,0.3774579647254944,-9.711035322666168
2026-09-11T16:30:16.844,4.745864512000026,-1110.6982421875,-99962.841796875,-399851.3671875,-760.8282958984375,0.0,0.0,0.0,0.0,0.0,0.0,-0.05740547180175781,-470.265625,-20.665969848632812,0.0,0.0,0.0,1,1789158616.045393,38.990735183333335,-76.93789423333334,-5.3309999999999995,0,1,7.317025,8.684809,51.609856,1,1,1789158616.8412206,-0.8801978564918622,0.4739180839130952,-0.007035136730938469,-0.02457417381008758,177.90162171495408,-2.0445705636932496,-56.560570692079885,0.00259460646601477,0.005806012289684337,-0.00014556045961632708,0.3411733591270447,0.3752024351882935,-9.71132952217102
2026-09-11T16:30:16.877,4.7792779200001405,-1110.6982421875,-99962.841796875,-399851.3671875,-760.8282958984375,0.0,0.0,0.0,0.0,0.0,0.0,-0.05740547180175781,-470.265625,-20.665969848632812,0.0,0.0,0.0,1,1789158616.045393,38.990735183333335,-76.93789423333334,-5.3309999999999995,0,1,7.317025,8.684809,51.609856,1,1,1789158616.8692207,-0.8801781327985222,0.47395116644894464,-0.0071718906338481886,-0.024603055699001532,177.90620385312866,-2.0600194647715475,-56.56478091840831,0.0008641125126623926,0.009334195372590875,0.0006723008278682157,0.3499012777709961,0.37824249673843385,-9.714075384216308
2026-09-11T16:30:16.911,4.812690943999996,-1110.6982421875,-99962.841796875,-399851.3671875,-760.8282958984375,0.0,0.0,0.0,0.0,0.0,0.0,-0.05740547180175781,-470.265625,-20.665969848632812,0.0,0.0,0.0,1,1789158616.045393,38.990735183333335,-76.93789423333334,-5.3309999999999995,0,1,7.317025,8.684809,51.609856,1,1,1789158616.9012208,-0.8801843324710333,0.47393484322416596,-0.007177316733924412,-0.024693954221787544,177.89728052688514,-2.0654659564558515,-56.56253605364743,0.000341037335839692,0.007326717666946996,-0.0009517280411125079,0.3454882851982116,0.3743198366737366,-9.715840581245422
2026-09-11T16:30:16.944,4.8461078079999425,-1110.6982421875,-99962.841796875,-399851.3671875,-760.8282958984375,0.0,0.0,0.0,0.0,0.0,0.0,-0.05740547180175781,-470.265625,-20.665969848632812,0.0,0.0,0.0,1,1789158616.045393,38.990735183333335,-76.93789423333334,-5.3309999999999995,0,1,7.317025,8.684809,51.609856,1,1,1789158616.9412208,-0.880184483836623,0.47392426853387676,-0.007346220631911972,-0.024841399926623972,177.89153155537778,-2.090495993966495,-56.56089611382806,0.0023815017643462623,0.009266302064688293,-0.0002947861106618422,0.36441512001037596,0.37392757066726684,-9.70789719461441
2026-09-11T16:30:16.977,4.879520319999983,-1110.6982421875,-99962.841796875,-399851.3671875,-760.8282958984375,0.0,0.0,0.0,0.0,0.0,0.0,-0.05740547180175781,-470.265625,-20.665969848632812,0.0,0.0,0.0,1,1789158616.045393,38.990735183333335,-76.93789423333334,-5.3309999999999995,0,1,7.317025,8.684809,51.609856,1,1,1789158616.9692206,-0.8801796782185126,0.4739286766116792,-0.00744726158141027,-0.02489742619620875,177.89136736382147,-2.1037471666837035,-56.561355233018396,0.00034679692237127324,0.004915021706541232,-0.00140045219180025,0.35715819889068606,0.375790834197998,-9.705347465572357
2026-09-11T16:30:17.011,4.9129338239999925,-1110.6982421875,-99962.841796875,-399851.3671875,-760.8282958984375,0.0,0.0,0.0,0.0,0.0,0.0,-0.05740547180175781,-470.265625,-20.665969848632812,0.0,0.0,0.0,1,1789158616.045393,38.990735183333335,-76.93789423333334,-5.3309999999999995,0,1,7.317025,8.684809,51.609856,1,1,1789158617.0012207,-0.8801815266196574,0.4739198099326815,-0.007471644327006694,-0.024993368758748923,177.88298003834237,-2.1113982728977727,-56.56006440749231,0.0008244935386421213,0.0027382470634539037,-0.0006869615935849681,0.36568998453140256,0.3755947011947632,-9.706131997585297
2026-09-11T16:30:17.045,4.946352480000087,-1110.6982421875,-99962.841796875,-399851.3671875,-760.8282958984375,0.0,0.0,0.0,0.0,0.0,0.0,-0.05740547180175781,-470.265625,-20.665969848632812,0.0,0.0,0.0,1,1789158617.0419774,38.990735326666666,-76.937894205,-5.378,0,1,7.317025,8.690704,51.609856,1,1,1789158617.0412207,-0.8801761339586903,0.4739251919356564,-0.007560638003460576,-0.025054389061905786,177.8816599815258,-2.1237073250773117,-56.56064869250437,0.0018191566793536898,0.0028574530513651164,-0.0007312929565856241,0.3674551815605164,0.3702010436058044,-9.705935864582061
2026-09-11T16:30:17.078,4.979766848000054,-1110.6982421875,-99962.841796875,-399851.3671875,-760.8282958984375,0.0,0.0,0.0,0.0,0.0,0.0,-0.05740547180175781,-470.265625,-20.665969848632812,0.0,0.0,0.0,1,1789158617.0419774,38.990735326666666,-76.937894205,-5.378,0,1,7.317025,8.690704,51.609856,1,1,1789158617.0692208,-0.8801725001596024,0.4739320267818304,-0.007666732167228971,-0.02502049502182308,177.89085715801696,-2.1325898814923767,-56.561542974088155,0.0015667820695153096,-0.004422489791628432,-0.0029749137100243345,0.37892896224975586,0.3661803170394897,-9.712408253688812
2026-09-11T16:30:17.112,5.013185216000011,-1110.6982421875,-99962.841796875,-399851.3671875,-760.8282958984375,0.0,0.0,0.0,0.0,0.0,0.0,-0.05740547180175781,-470.265625,-20.665969848632812,0.0,0.0,0.0,1,1789158617.0419774,38.990735326666666,-76.937894205,-5.378,0,1,7.317025,8.690704,51.609856,1,1,1789158617.1012206,-0.8801643591934244,0.47395162436468374,-0.007796409719294607,-0.024895271904420674,177.91058884173236,-2.138921542928479,-56.564215247603336,0.002416408349386149,-0.006659652826834763,-0.0028103291615612694,0.36902424558639524,0.361473124961853,-9.712212120685576
2026-09-11T16:30:17.145,5.0466050560000895,-1110.6982421875,-99962.841796875,-399851.3671875,-760.8282958984375,0.0,0.0,0.0,0.0,0.0,0.0,-0.05740547180175781,-470.265625,-20.665969848632812,0.0,0.0,0.0,1,1789158617.0419774,38.990735326666666,-76.937894205,-5.378,0,1,7.317025,8.690704,51.609856,1,1,1789158617.1412206,-0.8801902452088258,0.4739069058061313,-0.007605584592738144,-0.02489039878122005,177.90061676999022,-2.1192918320181113,-56.55846862243802,0.0006473426195646968,-0.011137469555751414,-0.003261671306127003,0.3661803170394897,0.3736333711624146,-9.70564166507721
2026-09-11T16:30:17.178,5.080016959999966,-1110.6982421875,-99962.841796875,-399851.3671875,-760.8282958984375,0.0,0.0,0.0,0.0,0.0,0.0,-0.05740547180175781,-470.265625,-20.665969848632812,0.0,0.0,0.0,1,1789158617.0419774,38.990735326666666,-76.937894205,-5.378,0,1,7.317025,8.690704,51.609856,1,1,1789158617.1682208,-0.8801898152512572,0.4739144334964352,-0.007466692773673414,-0.02480418010606907,177.9018048239846,-2.100609067168651,-56.55961598190492,0.0017060593438244572,-0.01276760707711412,-0.002782752959379759,0.3563736668777466,0.3807922257804871,-9.716036714248657
2026-09-11T16:30:17.212,5.113434527999971,-1110.6982421875,-99962.841796875,-399851.3671875,-760.8282958984375,0.0,0.0,0.0,0.0,0.0,0.0,-0.05740547180175781,-470.265625,-20.665969848632812,0.0,0.0,0.0,1,1789158617.0419774,38.990735326666666,-76.937894205,-5.378,0,1,7.317025,8.690704,51.609856,1,1,1789158617.2012208,-0.8801876584301879,0.4739276511883075,-0.007339691697738794,-0.02466569099172198,177.90892995098562,-2.0803006013364453,-56.561568670933354,0.0027728045826433917,-0.013680588808832352,-0.002972644781996742,0.3517645413017273,0.37333917165756225,-9.704857133064271
2026-09-11T16:30:17.245,5.146847072000128,-1110.6982421875,-99962.841796875,-399851.3671875,-760.8282958984375,0.0,0.0,0.0,0.0,0.0,0.0,-0.05740547180175781,-470.265625,-20.665969848632812,0.0,0.0,0.0,1,1789158617.0419774,38.990735326666666,-76.937894205,-5.378,0,1,7.317025,8.690704,51.609856,1,1,1789158617.2402208,-0.8802008869416855,0.47391457298495854,-0.007063000228747699,-0.024525296477784814,177.90806167486335,-2.0447192649277524,-56.560163893338036,0.00043144539109299824,-0.012065984717812398,-0.0040180970039413455,0.3379371645736694,0.3817728907966614,-9.712015987682342
2026-09-11T16:30:17.278,5.180258719999983,-1110.6982421875,-99962.841796875,-399851.3671875,-760.8282958984375,0.0,0.0,0.0,0.0,0.0,0.0,-0.05740547180175781,-470.265625,-20.665969848632812,0.0,0.0,0.0,1,1789158617.0419774,38.990735326666666,-76.937894205,-5.378,0,1,7.317025,8.690704,51.609856,1,1,1789158617.2692206,-0.8801986828900152,0.47392163577708857,-0.006873658666674467,-0.024521716856394114,177.8981641795454,-2.025433143706755,-56.561173720265316,0.0035252160231781468,-0.006324898676302251,-0.0026986280894336326,0.3360739010429383,0.3896182109260559,-9.708681726627349
2026-09-11T16:30:17.312,5.213672703999919,-1110.6982421875,-99962.841796875,-399851.3671875,-760.8282958984375,0.0,0.0,0.0,0.0,0.0,0.0,-0.05740547180175781,-470.265625,-20.665969848632812,0.0,0.0,0.0,1,1789158617.0419774,38.990735326666666,-76.937894205,-5.378,0,1,7.317025,8.690704,51.609856,1,1,1789158617.3002207,-0.8801868507700382,0.4739469377790898,-0.006725175590169209,-0.02449856964452943,177.89250145981435,-2.0092514629182685,-56.56456800013572,0.0025354398043721626,-0.0040360738952368875,0.00022375121010567305,0.32881697992324826,0.3868723488807678,-9.715252182235718
2026-09-11T16:30:17.346,5.247091903999944,-1110.6982421875,-99962.841796875,-399851.3671875,-760.8282958984375,0.0,0.0,0.0,0.0,0.0,0.0,-0.05740547180175781,-470.265625,-20.665969848632812,0.0,0.0,0.0,1,1789158617.0419774,38.990735326666666,-76.937894205,-5.378,0,1,7.317025,8.690704,51.609856,1,1,1789158617.3412206,-0.8801679453451083,0.4739840159468278,-0.00674795174031723,-0.024454156317446275,177.89830722084898,-2.0092258760714072,-56.56943992383905,-1.5707963267948967e-06,-0.0015587535549561357,-0.0031733576459760902,0.3398984946060181,0.3833419548225403,-9.716232847251892
2026-09-11T16:30:17.379,5.2805051200000435,-1110.6982421875,-99962.841796875,-399851.3671875,-760.8282958984375,0.0,0.0,0.0,0.0,0.0,0.0,-0.05740547180175781,-470.265625,-20.665969848632812,0.0,0.0,0.0,1,1789158617.0419774,38.990735326666666,-76.937894205,-5.378,0,1,7.317025,8.690704,51.609856,1,1,1789158617.3682206,-0.8801496536821594,0.474017800621596,-0.006744613091759281,-0.024458577458267662,177.89775665833213,-2.0092098157629774,-56.573834415217874,0.0020238838006126246,0.0028722883500070682,0.0006255260039147677,0.3350932360267639,0.38549941785812375,-9.709760458145142
2026-09-11T16:30:17.412,5.313924992000011,-1110.6982421875,-99962.841796875,-399851.3671875,-760.8282958984375,0.0,0.0,0.0,0.0,0.0,0.0,-0.05740547180175781,-470.265625,-20.665969848632812,0.0,0.0,0.0,1,1789158617.0419774,38.990735326666666,-76.937894205,-5.378,0,1,7.317025,8.690704,51.609856,1,1,1789158617.4012208,-0.8801514245092031,0.47401205024697246,-0.006687873309202311,-0.02452179654271002,177.88827987278367,-2.006904915770054,-56.57303407777173,0.00299481046349707,0.004498760679940584,3.28121899374934e-05,0.33519130252838136,0.3778502307319641,-9.71633091375351
2026-09-11T16:30:17.446,5.3473474879999685,-1110.6982421875,-99962.841796875,-399851.3671875,-760.8282958984375,0.0,0.0,0.0,0.0,0.0,0.0,-0.05740547180175781,-470.265625,-20.665969848632812,0.0,0.0,0.0,1,1789158617.0419774,38.990735326666666,-76.937894205,-5.378,0,1,7.317025,8.690704,51.609856,1,1,1789158617.4412208,-0.8801439897158654,0.47402790500304937,-0.006722138459545019,-0.024472750151743206,177.89512862467757,-2.0077359821936427,-56.575143016890614,0.0014323917171117464,-0.00048031461014883946,-0.0019359192063121103,0.3406830266189575,0.3752024351882935,-9.710348857154846
2026-09-11T16:30:17.479,5.380762656000115,-1110.6982421875,-99962.841796875,-399851.3671875,-760.8282958984375,0.0,0.0,0.0,0.0,0.0,0.0,-0.05740547180175781,-470.265625,-20.665969848632812,0.0,0.0,0.0,1,1789158617.0419774,38.990735326666666,-76.937894205,-5.378,0,1,7.317025,8.690704,51.609856,1,1,1789158617.4692206,-0.8801420310563165,0.4740299942239064,-0.006695573484360755,-0.0245099783733213,177.88993214015156,-2.007082902837833,-56.575381271843575,0.002849599069731142,0.002473829681776763,-0.0009574876276440892,0.33421063751220703,0.3785366962432862,-9.706328130588531
2026-09-11T16:30:17.513,5.414185984000142,-1110.6982421875,-99962.841796875,-399851.3671875,-760.8282958984375,0.0,0.0,0.0,0.0,0.0,0.0,-0.057220458984375,-468.75,-20.599365234375,0.0,0.0,0.0,1,1789158617.0419774,38.990735326666666,-76.937894205,-5.378,0,1,7.317025,8.690704,51.609856,1,1,1789158617.5012207,-0.8801058297845701,0.4740987656977992,-0.006846924463623497,-0.024437847049735992,177.90558912559084,-2.0186008127349773,-56.58435328807219,0.002748195440190271,0.0012159708898644493,0.0004262094033370153,0.3497051447677612,0.37500630218505865,-9.706131997585297
2026-09-11T16:30:17.546,5.447603168000114,-1110.727294921875,-99965.45654296875,-399861.826171875,-760.8481970214845,-0.019901123046875,-0.9453848004341125,-0.6475885882973671,-1.4486144154826557,-19.378909614224156,0.0,-0.057220458984375,-468.75,-20.599365234375,0.0,0.0,0.0,1,1789158617.0419774,38.990735326666666,-76.937894205,-5.378,0,1,7.317025,8.690704,51.609856,1,1,1789158617.5412207,-0.8800862155016512,0.4741349288495143,-0.007041853042095868,-0.02438718586841746,177.92137089825093,-2.0356034527158955,-56.58903865417634,0.0019626227438676236,-0.004775395366381685,-0.002083224995180432,0.3504896767807007,0.37059330961227416,-9.70789719461441
2026-09-11T16:30:17.579,5.481015871999944,-1110.7392578125,-99966.533203125,-399866.1328125,-760.8563916015626,-0.028095703125000003,-0.32682183384895325,-0.223872956186533,-0.5007895405031603,12.68127332983881,0.0,-0.057220458984375,-468.75,-20.599365234375,0.0,0.0,0.0,1,1789158617.0419774,38.990735326666666,-76.937894205,-5.378,0,1,7.317025,8.690704,51.609856,1,1,1789158617.5692208,-0.8800755960159764,0.474158625262338,-0.006959874902314738,-0.024333177511320542,177.92242783257927,-2.0244521522228416,-56.5922283765528,0.002547831642061322,-0.006054896241018728,-6.649704450098395e-05,0.33813329757690425,0.38579361736297607,-9.717017379264831
2026-09-11T16:30:17.613,5.5144379840000965,-1110.7396240234375,-99966.56616210938,-399866.2646484375,-760.8566424560547,-0.028346557617187504,-0.06908735632896423,-0.047324839085340506,-0.10586265006563272,5.282374647669912,0.0,-0.05683326721191406,-465.578125,-20.459976196289062,0.015258789993822575,5.493164397776127,164.3571895681213,1,1789158617.0419774,38.990735326666666,-76.937894205,-5.378,0,1,7.317025,8.690704,51.609856,1,1,1789158617.6012206,-0.8800772545956911,0.4741516491914837,-0.006581271915788727,-0.02451379962955178,177.8836176735879,-1.996048530762832,-56.59127307453006,0.0018961256993666397,-0.015408115702456341,-0.0006524040743954803,0.3333280389976501,0.4241376194953918,-9.699659608478546
2026-09-11T16:30:17.646,5.547856575999958,-1110.739501953125,-99966.55517578125,-399866.220703125,-760.8565588378907,-0.028262939453125004,-0.01754046231508255,-0.012015216685831548,-0.02687727426143418,1.0565861781266859,0.0,-0.056243896484375,-460.75,-20.247802734375,0.015258789993822575,5.493164397776127,0.0,1,1789158617.0419774,38.990735326666666,-76.937894205,-5.378,0,1,7.317025,8.690704,51.609856,1,1,1789158617.6402206,-0.8800527445563863,0.474191397422989,-0.00609761500312443,-0.024748828256674977,177.83371532518376,-1.9601161900349673,-56.5964267727365,0.0031510174315505625,-0.01721854573555006,-8.883725892651137e-05,0.3480380142402649,0.4294332105827332,-9.700149940986634
2026-09-11T16:30:17.679,5.5812703040001,-1110.7392578125,-99966.533203125,-399866.1328125,-760.8563916015626,-0.028095703125000003,0.0,0.0,0.0,0.35958922888762057,0.0,-0.056121826171875,-459.75,-20.203857421875,0.0,0.0,-164.3984292250442,1,1789158617.0419774,38.990735326666666,-76.937894205,-5.378,0,1,7.317025,8.690704,51.609856,1,1,1789158617.6692207,-0.8800333055632229,0.4742151959027724,-0.006012530869475083,-0.025003570683123,177.80342753466311,-1.965435936828924,-56.59926498511305,0.0020444786857861576,-0.00840550567760469,-0.0010386454378618255,0.340781093120575,0.43482686817169186,-9.710839189662934
2026-09-11T16:30:17.713,5.614695872000084,-1110.7392578125,-99966.533203125,-399866.1328125,-760.8563916015626,-0.028095703125000003,0.0,0.0,0.0,0.0,0.0,-0.056121826171875,-459.75,-20.203857421875,0.0,0.0,0.0,1,1789158617.0419774,38.990735326666666,-76.937894205,-5.378,0,1,7.317025,8.690704,51.609856,1,1,1789158617.7012208,-0.8800297924698788,0.474220551915966,-0.0056122812385696556,-0.025118415659391182,177.77011033868953,-1.9313072309562747,-56.60008918574853,0.001134289480871115,-0.006842737865368969,-0.0026787313359608973,0.28860971426010135,0.43198293962478634,-9.709073992633819
2026-09-11T16:30:17.747,5.648119711999925,-1110.7392578125,-99966.533203125,-399866.1328125,-760.8563916015626,-0.028095703125000003,0.0,0.0,0.0,0.0,0.0,-0.056121826171875,-459.75,-20.203857421875,0.0,0.0,0.0,1,1789158617.0419774,38.990735326666666,-76.937894205,-5.378,0,1,7.317025,8.690704,51.609856,1,1,1789158617.7412207,-0.8800061994013579,0.4742644887995026,-0.005445443760912093,-0.02515215341021161,177.75774039316576,-1.9164195624349594,-56.60588868167944,0.0036508797293217385,-0.00023876104167282428,-7.696902001294993e-05,0.3291111794281006,0.4214898239517212,-9.717213512268065
2026-09-11T16:30:17.780,5.681544128000041,-1110.7392578125,-99966.533203125,-399866.1328125,-760.8563916015626,-0.028095703125000003,0.0,0.0,0.0,0.0,0.0,-0.05576324462890625,-456.8125,-20.07476806640625,0.03051757998764515,10.986328795552254,328.69172031349905,1,1789158617.0419774,38.990735326666666,-76.937894205,-5.378,0,1,7.317025,8.690704,51.609856,1,1,1789158617.7682207,-0.8799846861489998,0.4743051128237921,-0.005375343335765234,-0.02515388193655828,177.75384722532283,-1.9095444978644314,-56.611227598291265,0.0015624187463853239,-0.0020642009063336934,-0.002045351350412155,0.28860971426010135,0.42953127708435057,-9.715644448242188
2026-09-11T16:30:17.814,5.71496316799994,-1110.7392578125,-99966.533203125,-399866.1328125,-760.8563916015626,-0.028095703125000003,0.0,0.0,0.0,0.0,0.0,-0.055233001708984375,-452.46875,-19.883880615234375,0.03051757998764515,10.986328795552254,0.0,1,1789158617.0419774,38.990735326666666,-76.937894205,-5.378,0,1,7.317025,8.690704,51.609856,1,1,1789158617.8092208,-0.879930229996862,0.47440502464761597,-0.005274685492707126,-0.02519604373146145,177.7443397533962,-1.9019371789640516,-56.62426228935637,0.0031569515510073433,-0.0036849136497356283,-0.00016685347649065792,0.3217561918067932,0.43816112922668454,-9.71132952217102
2026-09-11T16:30:17.847,5.7483808960000715,-1110.7392578125,-99966.533203125,-399866.1328125,-760.8563916015626,-0.028095703125000003,0.0,0.0,0.0,0.0,0.0,-0.05405616760253906,-442.828125,-19.460220336914062,0.0305175818502903,10.986329466104507,2.0065764306912473e-05,1,1789158617.0419774,38.990735326666666,-76.937894205,-5.378,0,1,7.317025,8.690704,51.609856,1,1,1789158617.8412206,-0.8798845057702133,0.4744881694682814,-0.005187749922437797,-0.025245213227253857,177.73483258062814,-1.89605434943913,-56.63509737279472,0.0031232666964438527,-0.004666835886907638,0.0005640904142445673,0.3107727436256409,0.431688740119934,-9.706328130588531
2026-09-11T16:30:17.880,5.7817881280000165,-1110.7392578125,-99966.533203125,-399866.1328125,-760.8563916015626,-0.028095703125000003,0.0,0.0,0.0,0.0,0.0,-0.052974700927734375,-433.96875,-19.070892333984375,0.0305175818502903,10.986329466104507,0.0,1,1789158617.0419774,38.990735326666666,-76.937894205,-5.378,0,1,7.317025,8.690704,51.609856,1,1,1789158617.8682206,-0.8798409717144707,0.4745676449429641,-0.005252088414036844,-0.02525530504895753,177.73748114138863,-1.9032979300646322,-56.64538539554167,0.001105317015288009,-0.006301685797250726,-0.0010735520229017122,0.32558078536987306,0.43129647411346433,-9.708387527122497
2026-09-11T16:30:17.914,5.815207072000021,-1110.7392578125,-99966.533203125,-399866.1328125,-760.8563916015626,-0.028095703125000003,0.0,0.0,0.0,0.0,0.0,-0.05173301696777344,-423.796875,-18.623886108398438,0.0457763709127903,16.479493528604507,164.37276002794255,1,1789158617.0419774,38.990735326666666,-76.937894205,-5.378,0,1,7.317025,8.690704,51.609856,1,1,1789158617.9092207,-0.8797759492641398,0.474688075241571,-0.005227272786919766,-0.025262342311143035,177.7356824665385,-1.901487338066625,-56.661079818460905,0.0021839304930205044,-0.004204149102203941,0.00118507856210415,0.2952782363700867,0.4347288016700745,-9.71054499015808
2026-09-11T16:30:17.947,5.848626815999978,-1110.7392578125,-99966.533203125,-399866.1328125,-760.8563916015626,-0.028095703125000003,0.0,0.0,0.0,0.0,0.0,-0.05025482177734375,-411.6875,-18.09173583984375,0.0305175818502903,10.986329466104507,-164.36882528205655,1,1789158617.0419774,38.990735326666666,-76.937894205,-5.378,0,1,7.317025,8.690704,51.609856,1,1,1789158617.9412208,-0.8797278311729598,0.47478184737748746,-0.005215767785391198,-0.0251780902164836,177.74376330435297,-1.8959833187383655,-56.6734014237465,0.001674992483138958,-0.0025720917186640435,0.00022357667718047363,0.3168528667259216,0.4192342944145203,-9.721920704345703
2026-09-11T16:30:17.980,5.882033664000119,-1110.7392578125,-99966.533203125,-399866.1328125,-760.8563916015626,-0.028095703125000003,0.0,0.0,0.0,0.0,0.0,-0.0489501953125,-401.0,-17.6220703125,0.0305175818502903,10.986329466104507,0.0,1,1789158617.0419774,38.990735326666666,-76.937894205,-5.378,0,1,7.317025,8.690704,51.609856,1,1,1789158617.9692206,-0.8796736774269873,0.4748879900574809,-0.005342929818728815,-0.025041390580374995,177.7647028971381,-1.9016396954589923,-56.68729312175837,0.0003614576880880256,-0.005944242366442288,-0.0008264134008193151,0.3099882116127014,0.4080547132301331,-9.705543598575591
2026-09-11T16:30:18.014,5.915453024000044,-1110.7392578125,-99966.533203125,-399866.1328125,-760.8563916015626,-0.028095703125000003,0.0,0.0,0.0,0.0,0.0,-0.04822731018066406,-395.078125,-17.361831665039062,0.015258789993822575,5.493164397776127,-164.37074403401684,1,1789158617.0419774,38.990735326666666,-76.937894205,-5.378,0,1,7.317025,8.690704,51.609856,1,1,1789158618.0092206,-0.8796055067043607,0.47502621108733184,-0.005718135710580548,-0.024729623518650743,177.81687229277765,-1.9228546908283888,-56.70540925270676,0.0018175858830268947,0.006984633133556108,-0.00023719024534602938,0.32195232481002806,0.38167482429504396,-9.702307404022218
2026-09-11T16:30:18.047,5.948871296000107,-1110.7392578125,-99966.533203125,-399866.1328125,-760.8563916015626,-0.028095703125000003,0.0,0.0,0.0,0.0,0.0,-0.048187255859375,-394.75,-17.347412109375,0.0,0.0,-164.37607539270223,1,1789158618.0392485,38.99073548166667,-76.93789430166666,-5.4289999999999985,0,1,7.317025,8.690704,51.609856,1,1,1789158618.0412207,-0.8795712155758764,0.4750976595332145,-0.006200522746859104,-0.024459030113694616,177.87057735676362,-1.9569430168724813,-56.71475121014413,0.000335801348083709,0.013372014597079755,-0.0029045769411689634,0.3216581253051758,0.3537258713340759,-9.715252182235718
2026-09-11T16:30:18.080,5.982279007999978,-1110.7392578125,-99966.533203125,-399866.1328125,-760.8563916015626,-0.028095703125000003,0.0,0.0,0.0,0.0,0.0,-0.048187255859375,-394.75,-17.347412109375,0.0,0.0,0.0,1,1789158618.0392485,38.99073548166667,-76.93789430166666,-5.4289999999999985,0,1,7.317025,8.690704,51.609856,1,1,1789158618.0692208,-0.879558578613791,0.4751390081066332,-0.006405395232481986,-0.024054119693890503,177.92267481223251,-1.9556521477191322,-56.720523321568,0.0010632545803149456,0.010532363904084982,-0.0033606314747150817,0.29253237432479856,0.3350932360267639,-9.720449706821443
2026-09-11T16:30:18.114,6.015697247999924,-1110.7403564453125,-99966.63208007812,-399866.5283203125,-760.8571441650391,-0.028848266601562502,-0.02577344700694084,-0.017654811199754476,-0.03949268790209927,-0.5282986536628752,0.0,-0.048187255859375,-394.75,-17.347412109375,0.0,0.0,0.0,1,1789158618.0392485,38.99073548166667,-76.93789430166666,-5.4289999999999985,0,1,7.317025,8.690704,51.609856,1,1,1789158618.1092207,-0.8795290224189188,0.4752004895889075,-0.006967670438251061,-0.023762259697837507,177.98285884780648,-1.9966011481546637,-56.7286405343085,0.0010939723751500457,0.012084310674958338,-0.0017200219778404117,0.35921759542465215,0.3393100955963135,-9.716919312763213
2026-09-11T16:30:18.147,6.049118368000109,-1110.7412109375,-99966.708984375,-399866.8359375,-760.8577294921876,-0.02943359375,-0.02577344700694084,-0.017654811199754476,-0.03949268790209927,0.0,0.0,-0.048065185546875,-393.75,-17.303466796875,0.0,0.0,0.0,1,1789158618.0392485,38.99073548166667,-76.93789430166666,-5.4289999999999985,0,1,7.317025,8.690704,51.609856,1,1,1789158618.1412206,-0.8795296572448514,0.4752102388341029,-0.007071088637307445,-0.023511925473517936,178.01376836046668,-1.9934174776654983,-56.730183115638674,0.0012746139527314588,0.008036717606658288,-0.0019069467407290045,0.3071442830657959,0.32567885187149054,-9.715056049232484
2026-09-11T16:30:18.180,6.082524895999995,-1110.7420654296875,-99966.78588867188,-399867.1435546875,-760.858314819336,-0.030018920898437502,-0.02577344700694084,-0.017654811199754476,-0.03949268790209927,0.0,0.0,-0.048065185546875,-393.75,-17.303466796875,0.0,0.0,0.0,1,1789158618.0392485,38.99073548166667,-76.93789430166666,-5.4289999999999985,0,1,7.317025,8.690704,51.609856,1,1,1789158618.1692207,-0.8795045305073459,0.47526671205224674,-0.007430104251446373,-0.023197559848234798,178.06515582519415,-2.0126231226562883,-56.7378172359708,0.0026734953482049142,0.002497740692529085,-0.0009349728802933624,0.351470341796875,0.30851721408843996,-9.714173450717926
2026-09-11T16:30:18.214,6.115943872000116,-1110.742919921875,-99966.86279296875,-399867.451171875,-760.8589001464844,-0.030604248046875,-0.02577344700694084,-0.017654811199754476,-0.03949268790209927,0.0,0.0,-0.048065185546875,-393.75,-17.303466796875,0.0,0.0,0.0,1,1789158618.0392485,38.99073548166667,-76.93789430166666,-5.4289999999999985,0,1,7.317025,8.690704,51.609856,1,1,1789158618.2082207,-0.8794966691714233,0.47529705305600645,-0.007726238348103027,-0.02277335095316811,178.12414564325513,-2.0194420049360993,-56.742230090114425,0.0007091272750852961,-0.0025949555318651694,-0.0035609952728440303,0.33058217695236203,0.29733763290405274,-9.715252182235718
2026-09-11T16:30:18.247,6.149360672000057,-1110.7437744140625,-99966.93969726562,-399867.7587890625,-760.8594854736328,-0.031189575195312503,-0.02577344700694084,-0.017654811199754476,-0.03949268790209927,0.0,0.0,-0.048065185546875,-393.75,-17.303466796875,0.0,0.0,0.0,1,1789158618.0392485,38.99073548166667,-76.93789430166666,-5.4289999999999985,0,1,7.317025,8.690704,51.609856,1,1,1789158618.2412207,-0.8795079817514414,0.47529171008770893,-0.007805470717821681,-0.022418184232464364,178.16428068994063,-2.0080724773556278,-56.74196457557481,0.0002443460952792061,-0.006960373056953386,-0.003926118152361244,0.3525490733146668,0.3016525589752197,-9.711525655174254
