timestamp,time_s,drive_pos_turns,drive_encoder_count,drive_wheel_angle_deg,drive_distance_m,drive_distance_since_start_m,drive_velocity_turns_s,drive_velocity_mps,drive_velocity_mph,drive_acceleration_mps2,drive_iq_A,steer_pos_turns,steer_encoder_count,steer_angle_deg,steer_velocity_turns_s,steer_velocity_deg_s,steer_acceleration_deg_s2,gps_received,gps_ros_stamp_s,gps_latitude_deg,gps_longitude_deg,gps_altitude_m,gps_status,gps_service,gps_cov_x_m2,gps_cov_y_m2,gps_cov_z_m2,gps_covariance_type,imu_received,imu_ros_stamp_s,imu_qx,imu_qy,imu_qz,imu_qw,imu_roll_deg,imu_pitch_deg,imu_yaw_deg,imu_gyro_x_rad_s,imu_gyro_y_rad_s,imu_gyro_z_rad_s,imu_accel_x_mps2,imu_accel_y_mps2,imu_accel_z_mps2
2026-09-11T16:21:26.344,5.343999987417192e-06,-173.2291259765625,-15590.621337890625,-62362.4853515625,-118.66195129394532,-0.00497528076171875,-1.2910948991775513,-0.8844000059366227,-1.978346469972758,0.0,0.0,-0.34976959228515625,-2865.3125,-125.91705322265625,-0.12207043170928955,-43.94535541534424,8167.6961237892565,1,1789158086.0485747,38.990755738333334,-76.937808765,11.130000000000003,0,1,17.774656,62.980095999999996,189.750625,1,1,1789158086.3421881,0.9312219069367218,-0.3623996792231157,0.01878406972967158,0.03375487023392715,177.17192765545377,-3.4082312643743378,-42.4444117987228,0.010336363429086018,0.046265187811865685,-0.30956660596528146,1.9989875689697265,-0.04697385427474975,-10.525477618598938
2026-09-11T16:21:26.377,0.03341049599998769,-173.2713623046875,-15594.422607421875,-62377.6904296875,-118.69088317871095,-0.033907165527343755,-1.2653214931488037,-0.8667452228069306,-1.9388538448616,0.5285047985919061,0.0,-0.36747169494628906,-3010.328125,-132.28981018066406,-0.7171631455421448,-258.1787323951721,-6413.183720278421,1,1789158086.0485747,38.990755738333334,-76.937808765,11.130000000000003,0,1,17.774656,62.980095999999996,189.750625,1,1,1789158086.3701882,0.932874313054916,-0.3580689503982516,0.02010729101323143,0.033583324003476064,177.22865909291542,-3.529672129443827,-41.91160082097007,0.005113116576642588,0.027731187419087505,-0.3551572240212513,0.9146662605857849,0.08776951894760132,-9.972382549476622
2026-09-11T16:21:26.411,0.06682412800000748,-173.31695556640625,-15598.526000976562,-62394.10400390625,-118.7221145629883,-0.0651385498046875,-1.3183993101119995,-0.9031035274267197,-2.0201850559831755,-1.0881278820502853,0.0,-0.3825645446777344,-3133.96875,-137.72323608398438,-0.22888189554214478,-82.39748239517212,5260.764528677873,1,1789158086.0485747,38.990755738333334,-76.937808765,11.130000000000003,0,1,17.774656,62.980095999999996,189.750625,1,1,1789158086.4021883,0.9347956866023815,-0.35285131047486396,0.02321784599055263,0.03337526978635524,177.35676874963676,-3.8394498085227493,-41.27077703940271,0.02051686895596894,0.010152056660075418,-0.3648848166072417,1.4320651231193542,-0.07149047967910767,-9.259242949714661
2026-09-11T16:21:26.444,0.10023100800003704,-173.36148071289062,-15602.533264160156,-62410.133056640625,-118.7526142883301,-0.09563827514648439,-1.3446600437164307,-0.9210921299457551,-2.0604244138013468,-0.538469995372792,0.0,-0.3959636688232422,-3243.734375,-142.5469207763672,-0.4577637314796448,-164.79494333267212,-2466.481782717425,1,1789158086.0485747,38.990755738333334,-76.937808765,11.130000000000003,0,1,17.774656,62.980095999999996,189.750625,1,1,1789158086.4421883,0.9374591698381873,-0.34597946247665046,0.022996728448556936,0.030653986874921213,177.6131013952733,-3.6882861458188865,-40.437393836584086,0.009855525220161579,-0.002981022362406315,-0.38576803017320427,-1.361555308456421,0.14033316381454466,-8.965533777370453
2026-09-11T16:21:26.478,0.13363849600000322,-173.40374755859375,-15606.337280273438,-62425.34912109375,-118.78156707763672,-0.12459106445312501,-1.2931132316589355,-0.8857825636863709,-1.9814391635790307,1.0569356863772559,0.0,-0.41303062438964844,-3383.546875,-148.69102478027344,-0.3967285752296448,-142.82228708267212,657.7165050548621,1,1789158086.0485747,38.990755738333334,-76.937808765,11.130000000000003,0,1,17.774656,62.980095999999996,189.750625,1,1,1789158086.4701881,0.9392675787166125,-0.34118827346744246,0.02248753435396222,0.02934771573423388,177.71540670252185,-3.570107433988655,-39.85582305553161,0.00012479104151759456,-0.035185837720205684,-0.3850489545213826,0.24163585998535156,-0.5552525321578979,-9.34397240711212
2026-09-11T16:21:26.513,0.1670536640000364,-173.4471435546875,-15610.242919921875,-62440.9716796875,-118.81129333496095,-0.15431732177734375,-1.2161282300949097,-0.8330478376150132,-1.8634749409784634,1.578167318246171,0.0,-0.414520263671875,-3395.75,-149.227294921875,0.0,0.0,4274.175341046624,1,1789158086.0485747,38.990755738333334,-76.937808765,11.130000000000003,0,1,17.774656,62.980095999999996,189.750625,1,1,1789158086.5021882,0.941271963234449,-0.3358620785642433,0.022057953844375363,0.026780628884920953,177.9562809851975,-3.4119322290703558,-39.213678613803005,-0.0032719687487137695,-0.027271642227037398,-0.3665271714333684,0.32469818685531615,0.3016525589752197,-9.850583954467774
2026-09-11T16:21:26.545,0.2004701760000671,-173.49005126953125,-15614.104614257812,-62456.41845703125,-118.84068511962892,-0.18370910644531252,-1.2694121599197388,-0.8695473295450211,-1.9451219791182448,-1.092259178036725,0.0,-0.4151496887207031,-3400.90625,-149.45388793945312,-0.1831054836511612,-65.91797411441803,-1972.616834287117,1,1789158086.0485747,38.990755738333334,-76.937808765,11.130000000000003,0,1,17.774656,62.980095999999996,189.750625,1,1,1789158086.5421882,0.9435763483971433,-0.3293649805888785,0.022155185030058228,0.02629699761349716,177.98887330312925,-3.3900396285357584,-38.42460733699407,0.011655308744818132,0.008689819812754568,-0.37283077709279633,1.0158708902549745,0.22329742418289183,-9.819300740451812
2026-09-11T16:21:26.578,0.2338920000000826,-173.5364227294922,-15618.278045654297,-62473.11218261719,-118.87244956970216,-0.2154735565185547,-1.400387167930603,-0.9592652100324631,-2.145815162026803,-2.684410057554024,0.0,-0.4184379577636719,-3427.84375,-150.63766479492188,-0.045776382088661194,-16.47949755191803,1479.227362410774,1,1789158086.0485747,38.990755738333334,-76.937808765,11.130000000000003,0,1,17.774656,62.980095999999996,189.750625,1,1,1789158086.5701883,0.9451898705253282,-0.3245866016989254,0.022936652610023343,0.027084250421669218,177.91527595717034,-3.4938472095767894,-37.84226502769262,0.022826986753908637,0.03289840920254192,-0.40003539867655713,0.1484726834487915,0.826308342628479,-10.222746328105925
2026-09-11T16:21:26.611,0.26729715200008286,-173.58226013183594,-15622.403411865234,-62489.61364746094,-118.90384819030763,-0.24687217712402346,-1.4006043672561646,-0.9594139915704728,-2.1461479768487646,-0.004453850053119887,0.0,-0.4229545593261719,-3464.84375,-152.26364135742188,-0.1831054985523224,-65.91797947883606,-1479.9657827306887,1,1789158086.0485747,38.990755738333334,-76.937808765,11.130000000000003,0,1,17.774656,62.980095999999996,189.750625,1,1,1789158086.6021883,0.9472288116914763,-0.3185572383628433,0.023499235045154672,0.026956448959103315,177.92744418927452,-3.536974440856797,-37.1120409493252,0.03288723909532915,0.0805806298341018,-0.41947574854989594,1.442460172290802,0.4808200574302673,-9.592374855709076
2026-09-11T16:21:26.644,0.30070323200004623,-173.63180541992188,-15626.862487792969,-62507.449951171875,-118.9377867126465,-0.28081069946289067,-1.4536131620407104,-0.9957250159978868,-2.2273734251921207,-1.0869585544743285,0.0,-0.42854881286621094,-3510.671875,-154.27757263183594,-0.2288818657398224,-82.39747166633606,-493.30816987560564,1,1789158086.0485747,38.990755738333334,-76.937808765,11.130000000000003,0,1,17.774656,62.980095999999996,189.750625,1,1,1789158086.6421883,0.9496814626574683,-0.3107573563976813,0.027605668235913306,0.027801295127112328,177.9521361954607,-3.9974511796593784,-36.167069974706465,0.005685584571296727,0.10380537712453994,-0.44271672740237766,0.8014975177192688,-0.20692031841278077,-9.916876909561156
2026-09-11T16:21:26.679,0.3341143040000816,-173.68115234375,-15631.3037109375,-62525.21484375,-118.97158935546877,-0.31461334228515625,-1.455568552017212,-0.9970644581317902,-2.2303696719125563,-0.04008976826310903,0.0,-0.43676185607910156,-3577.953125,-157.23426818847656,-0.3051758110523224,-109.86329197883606,-822.0574398951026,1,1789158086.0485747,38.990755738333334,-76.937808765,11.130000000000003,0,1,17.774656,62.980095999999996,189.750625,1,1,1789158086.6701882,0.9515109110938893,-0.3051868867046023,0.028538438407473554,0.025952028554467595,178.1635213418879,-4.022586030419072,-35.50166963973363,0.014172946190819954,0.09906035048714297,-0.4434124156422226,0.26929061344146726,0.17269510934829713,-9.42683860097885
2026-09-11T16:21:26.713,0.3675278719999824,-173.7321319580078,-15635.891876220703,-62543.56750488281,-119.00651039123537,-0.34953437805175785,-1.5343507528305054,-1.0510302656888963,-2.3510877453670704,-1.6150866485514603,0.0,-0.448638916015625,-3675.25,-161.510009765625,-0.2136230766773224,-76.90430760383606,986.395238458157,1,1789158086.0485747,38.990755738333334,-76.937808765,11.130000000000003,0,1,17.774656,62.980095999999996,189.750625,1,1,1789158086.7021883,0.9535224781905299,-0.2985676469336985,0.03201130758940057,0.02505034882554324,178.35308142355555,-4.358995261380865,-34.710156728739655,0.03004322507920439,0.07562913074619389,-0.4523889930510798,1.6038776339530945,-0.7822764834022521,-9.352406126251221
2026-09-11T16:21:26.746,0.4009508160000905,-173.7770538330078,-15639.934844970703,-62559.73937988281,-119.03728187561036,-0.38030586242675785,-1.379191279411316,-0.9447460263967514,-2.1133366732210774,3.1799783792774514,0.0,-0.45423316955566406,-3721.078125,-163.52394104003906,-0.3814697563648224,-137.32911229133606,-1807.8839699849445,1,1789158086.0485747,38.990755738333334,-76.937808765,11.130000000000003,0,1,17.774656,62.980095999999996,189.750625,1,1,1789158086.7421882,0.9561062666607303,-0.290349446772252,0.032756384711237665,0.022023280222913232,178.67305076818099,-4.3257033079250915,-33.73475735219035,0.03516192670945336,0.03570943649580398,-0.44556894446598677,-0.11611073791503906,-0.31224374114990233,-10.105851058177949
2026-09-11T16:21:26.778,0.4343601599999829,-173.82196044921875,-15643.976440429688,-62575.90576171875,-119.06804290771485,-0.41106689453125,-1.302895188331604,-0.8924832040071489,-1.996428069092582,1.564317527149618,0.0,-0.4613189697265625,-3779.125,-166.0748291015625,-0.2136230766773224,-76.90430760383606,1808.6199084811321,1,1789158086.0485747,38.990755738333334,-76.937808765,11.130000000000003,0,1,17.774656,62.980095999999996,189.750625,1,1,1789158086.7701883,0.9577827262699145,-0.28497890639437523,0.03249605689256017,0.019577498708252514,178.9094840283953,-4.209678967664358,-33.09963907889091,0.019223230914390745,-0.0437992121117229,-0.40352588264762057,0.4447315848350525,-0.8751454604339599,-9.985327327690124
2026-09-11T16:21:26.811,0.4677656640000123,-173.86463928222656,-15647.81753540039,-62591.27014160156,-119.09727790832521,-0.4403018951416016,-1.2782456874847412,-0.8755982959270477,-1.9586576054202012,0.5054528762711159,0.0,-0.4715003967285156,-3862.53125,-169.74014282226562,-0.3356933891773224,-120.84962010383606,-1315.511135529083,1,1789158086.0485747,38.990755738333334,-76.937808765,11.130000000000003,0,1,17.774656,62.980095999999996,189.750625,1,1,1789158086.8021882,0.9595279364064014,-0.2792383077697569,0.03251019595922194,0.016588968872362705,179.21420814802553,-4.10896051287716,-32.42352893425561,0.014952933833536217,-0.06714787777905264,-0.3958907653018462,0.8592586871719361,-0.6574378268432618,-9.562366506214142
2026-09-11T16:21:26.846,0.5011725120000392,-173.90048217773438,-15651.043395996094,-62604.173583984375,-119.12183029174805,-0.46485427856445316,-1.1488596200942993,-0.7869688397645951,-1.7603991583853664,2.653032580696666,0.0,-0.48308563232421875,-3957.4375,-173.91082763671875,-0.10681155323982239,-38.45215916633606,2466.484145329533,1,1789158086.0485747,38.990755738333334,-76.937808765,11.130000000000003,0,1,17.774656,62.980095999999996,189.750625,1,1,1789158086.8421881,0.961526185586808,-0.27237858758227107,0.03263507930748323,0.014568838531763542,179.41189850093454,-4.053932300561027,-31.611634803055296,0.028127900758065816,-0.06795736148612762,-0.4030865832748936,0.6474350436782836,0.3610808589553833,-9.707112662601471
2026-09-11T16:21:26.879,0.5345940160000282,-173.9440460205078,-15654.964141845703,-62619.85656738281,-119.15167152404786,-0.49469551086425784,-1.2287122011184692,-0.8416678577661515,-1.882757376892785,-1.636641427075646,0.0,-0.4833087921142578,-3959.265625,-173.9911651611328,0.0,0.0,1150.521507540436,1,1789158086.0485747,38.990755738333334,-76.937808765,11.130000000000003,0,1,17.774656,62.980095999999996,189.750625,1,1,1789158086.8701882,0.9629031968328363,-0.2674561884618657,0.03271265642637934,0.014645917249688173,179.38498921049163,-4.06180610705828,-31.024543460283535,0.048936763297893406,-0.10645356519859094,-0.4012484025066932,0.7758040942955017,0.46042222509384156,-10.138899469223022
2026-09-11T16:21:26.912,0.5680179839999937,-173.9868927001953,-15658.820343017578,-62635.28137207031,-119.1810214996338,-0.5240454864501953,-1.3079187870025635,-0.8959243690967561,-2.0041257361684752,-1.6232815723932184,0.0,-0.4835529327392578,-3961.265625,-174.0790557861328,0.0,0.0,0.0,1,1789158086.0485747,38.990755738333334,-76.937808765,11.130000000000003,0,1,17.774656,62.980095999999996,189.750625,1,1,1789158086.9021883,0.9643925970631301,-0.2619271273318636,0.03340181412921779,0.015013910562744403,179.3416002595053,-4.145529372171906,-30.365930266338665,0.049886396943903524,-0.09991992514375017,-0.4086026963758217,1.2647636713600159,0.6132098346138001,-9.10655340669632
2026-09-11T16:21:26.945,0.6014254400000709,-174.02853393554688,-15662.568054199219,-62650.272216796875,-119.20954574584962,-0.5525697326660157,-1.361065149307251,-0.932329627275467,-2.0855619794100435,-1.0897345244913808,0.0,-0.48430824279785156,-3967.453125,-174.35096740722656,-0.030517607927322388,-10.98633885383606,-328.8588886807384,1,1789158086.0485747,38.990755738333334,-76.937808765,11.130000000000003,0,1,17.774656,62.980095999999996,189.750625,1,1,1789158086.9421883,0.9664028698992843,-0.25428404174679553,0.03411279781700688,0.015538217028890326,179.27127024473663,-4.234324615990008,-29.456580958995385,0.012770225070992111,-0.06108128783204555,-0.41657361506967977,1.098933217124939,0.7616825180625916,-8.906890009403229
2026-09-11T16:21:26.979,0.6348291520000657,-174.0735321044922,-15666.617889404297,-62666.47155761719,-119.24036949157716,-0.5833934783935547,-1.2570881843566895,-0.8611054062843323,-1.9262379346016718,2.13222473571637,0.0,-0.4840507507324219,-3965.34375,-174.25827026367188,0.0305175818502903,10.986329466104507,657.7912155374822,1,1789158086.0485747,38.990755738333334,-76.937808765,11.130000000000003,0,1,17.774656,62.980095999999996,189.750625,1,1,1789158086.9701881,0.9679120847033368,-0.24875327378748888,0.03224915136933526,0.015099579504237943,179.2426230314089,-4.01058848659278,-28.799657509945522,0.018450399121607654,-0.05038241951732031,-0.4467306356161142,0.8257199436187744,0.49847202772140503,-9.924526096687316
2026-09-11T16:21:27.012,0.6682341120000501,-174.11985778808594,-15670.787200927734,-62683.14880371094,-119.27210258483888,-0.6151265716552735,-1.3626184463500977,-0.9333936357498169,-2.0879420985813706,-2.163996887453792,0.0,-0.4844226837158203,-3968.390625,-174.3921661376953,-0.1068115383386612,-38.45215380191803,-1479.9743292027786,1,1789158086.0485747,38.990755738333334,-76.937808765,11.130000000000003,0,1,17.774656,62.980095999999996,189.750625,1,1,1789158087.0021882,0.9694749459704367,-0.24270741246946048,0.03175839980413461,0.014242370233876108,179.29937209763483,-3.9273430208835673,-28.0861384211689,-0.002534741672671365,-0.008084190562312535,-0.43129162758589756,1.2553492872047425,0.16288845918655395,-9.93658827638626
2026-09-11T16:21:27.047,0.7016528000000335,-174.16827392578125,-15675.144653320312,-62700.57861328125,-119.30526763916016,-0.6482916259765625,-1.4681007862091064,-1.005649038553238,-2.249572831409352,-2.162125658657125,0.0,-0.48348236083984375,-3960.6875,-174.05364990234375,0.0457763671875,16.4794921875,1643.7403523874234,1,1789158086.0485747,38.990755738333334,-76.937808765,11.130000000000003,0,1,17.774656,62.980095999999996,189.750625,1,1,1789158087.0421882,0.9712623551810338,-0.23509627129197552,0.03419642665178299,0.014483957920768446,179.30733409469298,-4.199968727115488,-27.188329862689645,-0.004760909133590133,0.029035122903252466,-0.4635006317339017,1.053038094367981,0.3565697998809815,-10.058288804893493
2026-09-11T16:21:27.080,0.7350678400000561,-174.21453857421875,-15679.308471679688,-62717.23388671875,-119.33695892333985,-0.67998291015625,-1.3901723623275757,-0.9522680681943895,-2.130163001508564,1.5975132861972445,0.0,-0.483978271484375,-3964.75,-174.232177734375,0.0,0.0,-493.17589287604784,1,1789158087.047089,38.99075356666667,-76.93780550666666,11.191000000000003,0,1,16.248960999999998,98.06940900000001,252.396769,1,1,1789158087.0701883,0.9725296405474266,-0.2296096392254605,0.034832764785422375,0.015880501530197808,179.14426987617233,-4.303774856597459,-26.535857754543965,-0.005375963161992934,0.08874440741030527,-0.462618716862869,0.13023231414794922,0.5664321133422852,-9.590903858184815
2026-09-11T16:21:27.112,0.768475264000017,-174.2649383544922,-15683.844451904297,-62735.37780761719,-119.37148277282716,-0.7145067596435547,-1.443149447441101,-0.9885573714971543,-2.211339861079888,-1.0862646369503766,0.0,-0.483978271484375,-3964.75,-174.232177734375,0.0,0.0,0.0,1,1789158087.047089,38.99075356666667,-76.93780550666666,11.191000000000003,0,1,16.248960999999998,98.06940900000001,252.396769,1,1,1789158087.1021883,0.9740537072897333,-0.22287814696531716,0.03615445957417665,0.015413045556676021,179.20058679590775,-4.433572165977589,-25.745587072882874,0.004054748918233227,0.12494847021612444,-0.4752545515814576,-0.08345459287643432,0.5270093796920776,-10.219019801044464
2026-09-11T16:21:27.145,0.8018833280000308,-174.3153533935547,-15688.381805419922,-62753.52722167969,-119.40601707458497,-0.7490410614013673,-1.4957555532455444,-1.024592553973198,-2.291948268551353,-1.0786372558442394,0.0,-0.4839191436767578,-3964.265625,-174.2108917236328,0.0,0.0,0.0,1,1789158087.047089,38.99075356666667,-76.93780550666666,11.191000000000003,0,1,16.248960999999998,98.06940900000001,252.396769,1,1,1789158087.1421883,0.9758055626411634,-0.2148629052559353,0.03790920485919972,0.01415372920770084,179.34861834336832,-4.592373722473854,-24.809515620602184,0.0014570008595648663,0.10393383335748674,-0.4666280872205504,0.15170887800216673,0.021378497352600098,-10.442317225227358
2026-09-11T16:21:27.181,0.8352890560000787,-174.3632354736328,-15692.691192626953,-62770.76477050781,-119.43881629943849,-0.7818402862548829,-1.4701313972473145,-1.0070400071144106,-2.252684339464946,0.5254352444814911,0.0,-0.483489990234375,-3960.75,-174.056396484375,0.0,0.0,0.0,1,1789158087.047089,38.99075356666667,-76.93780550666666,11.191000000000003,0,1,16.248960999999998,98.06940900000001,252.396769,1,1,1789158087.1701882,0.976997435312154,-0.2090239654256288,0.04018338560997494,0.013049474784040041,179.49975204021706,-4.816995990628847,-24.131169529865954,0.009789202708585796,0.0811941130661778,-0.4606745946090725,1.0220490798568724,-0.07021561515808106,-9.343776274108887
2026-09-11T16:21:27.215,0.8687084800000093,-174.40992736816406,-15696.893463134766,-62787.57385253906,-119.47080024719239,-0.8138242340087891,-1.4185951948165894,-0.9717377084493638,-2.173715346388159,1.056340727629539,0.0,-0.4842853546142578,-3967.265625,-174.3427276611328,0.0,0.0,0.0,1,1789158087.047089,38.99075356666667,-76.93780550666666,11.191000000000003,0,1,16.248960999999998,98.06940900000001,252.396769,1,1,1789158087.2101882,0.9785780105836362,-0.20118832872005377,0.042375284023223984,0.010614560422140533,179.7858413136486,-5.002895918565647,-23.22604957682357,0.02253062984692,0.0382258522113294,-0.44616445080676725,0.2761552685546875,-0.19829046627044677,-9.625913599262239
2026-09-11T16:21:27.247,0.902247328000044,-174.4553680419922,-15700.983123779297,-62803.93249511719,-119.50192710876466,-0.8449510955810547,-1.3406667709350586,-0.9183567380905152,-2.0543055164873705,1.5916160972133973,0.0,-0.48428916931152344,-3967.296875,-174.34410095214844,-0.0610351637005806,-21.972658932209015,-655.1405382852231,1,1789158087.047089,38.99075356666667,-76.93780550666666,11.191000000000003,0,1,16.248960999999998,98.06940900000001,252.396769,1,1,1789158087.2421882,0.9797693180692648,-0.19536490208914925,0.04230091615931148,0.009760681014547934,179.85057103931706,-4.974022634819983,-22.54713281127398,0.018737854849411123,0.028765120467968943,-0.43792492594102717,0.5782000935363769,0.19113161165237427,-8.945332078037262
2026-09-11T16:21:27.279,0.93565129600006,-174.49778747558594,-15704.800872802734,-62819.20349121094,-119.53098442077638,-0.8740084075927735,-1.2886326313018799,-0.8827133524417878,-1.9745735335580414,1.0670404680279395,0.0,-0.4837932586669922,-3963.234375,-174.1655731201172,0.0762939527630806,27.465822994709015,1480.0182399556352,1,1789158087.047089,38.99075356666667,-76.93780550666666,11.191000000000003,0,1,16.248960999999998,98.06940900000001,252.396769,1,1,1789158087.2701883,0.9807759681934538,-0.1903604582959304,0.04223396963868064,0.0075952577386165735,-179.93209146641053,-4.918337476554297,-21.97104478763771,0.015509344799072011,9.093165402890458e-05,-0.4208440866834595,0.18632635307312012,-0.22535682071685792,-9.472733723735809
2026-09-11T16:21:27.313,0.9690559360000179,-174.5400848388672,-15708.607635498047,-62834.43054199219,-119.55995811462404,-0.9029821014404298,-1.2623295783996582,-0.8646957612037659,-1.9342693298223088,0.5393739084763266,0.0,-0.483612060546875,-3961.75,-174.100341796875,0.0,0.0,-822.2158057905615,1,1789158087.047089,38.99075356666667,-76.93780550666666,11.191000000000003,0,1,16.248960999999998,98.06940900000001,252.396769,1,1,1789158087.3011882,0.9817535014721313,-0.18497358634467034,0.043701057232865576,0.005920498182623018,-179.738739969038,-5.048421112640041,-21.351707040985573,0.01437680064745289,-0.01659668492306448,-0.41509444852861455,1.080987047328949,-0.2179037665939331,-10.564606152744293
2026-09-11T16:21:27.348,1.0024606719999838,-174.58106994628906,-15712.296295166016,-62849.18518066406,-119.58803291320801,-0.9310569000244141,-1.236498236656189,-0.8470012921094895,-1.894687929736687,0.5296994143074353,0.0,-0.483917236328125,-3964.25,-174.210205078125,0.0915527418255806,32.958987057209015,986.656115385636,1,1789158087.047089,38.99075356666667,-76.93780550666666,11.191000000000003,0,1,16.248960999999998,98.06940900000001,252.396769,1,1,1789158087.3421881,0.982998921214516,-0.17841177864087576,0.04314848863315745,0.00453498202546165,-179.62728920608174,-4.959297070993221,-20.59025206222227,0.01110535549751472,-0.011837172052875943,-0.38722660182909596,0.4782703283882141,-0.024712758407592773,-9.871275986309053
2026-09-11T16:21:27.381,1.0358667520000608,-174.61990356445312,-15715.791320800781,-62863.165283203125,-119.6146339416504,-0.957657928466797,-1.158203363418579,-0.7933693039417268,-1.7747165889891865,1.6054558980772065,0.0,-0.483978271484375,-3964.75,-174.232177734375,0.0,0.0,-986.6164200388969,1,1789158087.047089,38.99075356666667,-76.93780550666666,11.191000000000003,0,1,16.248960999999998,98.06940900000001,252.396769,1,1,1789158087.3701882,0.9837993921932038,-0.17393831586825376,0.04329070604483471,0.003183231587203861,-179.49410419925437,-4.949985431136898,-20.074723902661013,0.007975980148688886,-0.010313150550034494,-0.37632161012971016,0.9091745364952087,-0.27478233753204345,-9.926585493221282
2026-09-11T16:21:27.414,1.0692866880000338,-174.65841674804688,-15719.257507324219,-62877.030029296875,-119.64101547241212,-0.9840394592285157,-1.1316301822662354,-0.7751666748523712,-1.733998467368402,0.5446637925748955,0.0,-0.4834880828857422,-3960.734375,-174.0557098388672,0.0610351637005806,21.972658932209015,657.471604141516,1,1789158087.047089,38.99075356666667,-76.93780550666666,11.191000000000003,0,1,16.248960999999998,98.06940900000001,252.396769,1,1,1789158087.4101882,0.9849458642476087,-0.16768219417245192,0.04199550909104427,0.0008387343007131352,-179.28523759397336,-4.761480351306687,-19.35310267343649,0.02325930480962763,-0.001318596249881716,-0.37434886447618093,0.1716163778305054,-0.0005883990097045899,-9.809003757781982
2026-09-11T16:21:27.446,1.1026876480000283,-174.69313049316406,-15722.381744384766,-62889.52697753906,-119.6647943878174,-1.0078183746337892,-1.0541361570358276,-0.722083267569542,-1.6152542671115364,1.589277891498867,0.0,-0.483856201171875,-3963.75,-174.188232421875,0.0,0.0,-657.8451317630584,1,1789158087.047089,38.99075356666667,-76.93780550666666,11.191000000000003,0,1,16.248960999999998,98.06940900000001,252.396769,1,1,1789158087.4421883,0.9857101218722235,-0.1635915884596831,0.04016400706354493,0.00044761644696097563,-179.29539884982148,-4.549859120149443,-18.874192086647618,0.02912657815605697,0.013314593264689143,-0.34468053612030497,-0.1636729911994934,0.18014816347122192,-9.464790337104798
2026-09-11T16:21:27.480,1.1361022080000112,-174.72972106933594,-15725.674896240234,-62902.69958496094,-119.68985893249513,-1.0328829193115234,-1.0801846981048584,-0.7399265182018281,-1.6551684820191197,-0.5339962768414497,0.0,-0.483856201171875,-3963.75,-174.188232421875,0.0,0.0,0.0,1,1789158087.047089,38.99075356666667,-76.93780550666666,11.191000000000003,0,1,16.248960999999998,98.06940900000001,252.396769,1,1,1789158087.4701881,0.9861951498094623,-0.16009009606680152,0.04231148047026112,0.0001620309508214163,-179.23942929951443,-4.79015590190338,-18.472722403953803,0.020829806490851525,0.02458680223869452,-0.3380744649015064,0.40893731174468995,0.09071151399612426,-9.659844608821869
2026-09-11T16:21:27.514,1.1695104960000435,-174.76400756835938,-15728.760681152344,-62915.042724609375,-119.71334518432619,-1.0563691711425782,-1.0283783674240112,-0.7044391816854477,-1.575785571057281,1.0622315192070297,0.0,-0.483856201171875,-3963.75,-174.188232421875,0.0,0.0,0.0,1,1789158087.047089,38.99075356666667,-76.93780550666666,11.191000000000003,0,1,16.248960999999998,98.06940900000001,252.396769,1,1,1789158087.5101883,0.9869465061472649,-0.15553553184622498,0.04177335280561065,0.0005285190597586751,-179.31287869115627,-4.739210251959069,-17.939913067482085,0.015514406253902794,0.03990084469446837,-0.32982185006637643,0.31675480022430424,0.20201699333190917,-9.723293635368348
2026-09-11T16:21:27.548,1.2029272000000901,-174.8005828857422,-15732.052459716797,-62928.20983886719,-119.7383992767334,-1.0814232635498047,-1.0809844732284546,-0.7404743641614915,-1.656393978528746,-1.0783583705919506,0.0,-0.47975921630859375,-3930.1875,-172.71331787109375,0.1831054836511612,65.91797411441803,1972.6055003607214,1,1789158087.047089,38.99075356666667,-76.93780550666666,11.191000000000003,0,1,16.248960999999998,98.06940900000001,252.396769,1,1,1789158087.5421882,0.9874848425119639,-0.15210088854483392,0.04169953669294941,0.00039262270318396664,-179.31527803473668,-4.7308291372455695,-17.54102983116579,0.013982356236502172,0.038303693895968355,-0.32132645993229403,0.02755668695449829,0.3128321401596069,-9.684557367229463
2026-09-11T16:21:27.580,1.2363490559999946,-174.83203125,-15734.8828125,-62939.53125,-119.75994140625001,-1.1029653930664063,-0.9774419665336609,-0.6695477470755578,-1.4977356546965752,2.122162727472003,0.0,-0.4689311981201172,-3841.484375,-168.8152313232422,0.4425049126148224,159.30176854133606,2794.093614285964,1,1789158087.047089,38.99075356666667,-76.93780550666666,11.191000000000003,0,1,16.248960999999998,98.06940900000001,252.396769,1,1,1789158087.5701883,0.9879236215612037,-0.14929539405095546,0.04141168800152444,0.001695692610658943,-179.48172815764727,-4.722477398883853,-17.20844256107987,0.010266899324856645,0.018684796840150494,-0.29549768139788035,0.3096940121078491,0.34872447975158694,-9.805767563228606
2026-09-11T16:21:27.614,1.2697611199999983,-174.8644256591797,-15737.798309326172,-62951.19323730469,-119.78213157653809,-1.1251555633544923,-0.9268695712089539,-0.6349056562781334,-1.420243504559173,1.0368138525480028,0.0,-0.4485340118408203,-3674.390625,-161.4722442626953,0.6103516221046448,219.72658395767212,1808.4729939559945,1,1789158087.047089,38.99075356666667,-76.93780550666666,11.191000000000003,0,1,16.248960999999998,98.06940900000001,252.396769,1,1,1789158087.6101882,0.9884229113279314,-0.14599971819903781,0.041199467634931396,0.002614290423028769,-179.60548802783987,-4.715514075470088,-16.821022688442717,0.014437887171272692,-0.01795751814084446,-0.274426495871478,0.37539856819152834,0.3306802434539795,-9.444980903778076
2026-09-11T16:21:27.647,1.3031745920000048,-174.89535522460938,-15740.581970214844,-62962.327880859375,-119.80331832885743,-1.1463423156738282,-0.9268695712089539,-0.6349056562781334,-1.420243504559173,0.0,0.0,-0.42655372619628906,-3494.328125,-153.55934143066406,1.1444092988967896,411.98734760284424,5753.9893982024505,1,1789158087.047089,38.99075356666667,-76.93780550666666,11.191000000000003,0,1,16.248960999999998,98.06940900000001,252.396769,1,1,1789158087.6421883,0.9888668293267231,-0.14308212390721203,0.0405200961627945,0.005293532135825919,-179.93525693870797,-4.683573779884107,-16.468967204586836,0.009591282371409639,-0.020370261298801418,-0.2590410694492976,0.3051829530334472,0.6744033316230774,-9.710250790653228
2026-09-11T16:21:27.681,1.336579840000013,-174.92694091796875,-15743.424682617188,-62973.69873046875,-119.8249545288086,-1.167978515625,-0.8766220808029175,-0.6004861253499986,-1.3432492066705393,1.030362981532914,0.0,-0.40381813049316406,-3308.078125,-145.37452697753906,0.5798341035842896,208.74027729034424,-6084.285628187823,1,1789158087.047089,38.99075356666667,-76.93780550666666,11.191000000000003,0,1,16.248960999999998,98.06940900000001,252.396769,1,1,1789158087.6701882,0.989259371779892,-0.14076999001003893,0.038710636532237316,0.007154849928285877,179.8127843975135,-4.508333655981364,-16.190079708965303,0.011291756661627714,-0.05822069318802684,-0.22846063202632932,-0.5844763496398926,0.7107860037231446,-9.83969857278824
2026-09-11T16:21:27.715,1.3699987200000123,-174.9588623046875,-15746.297607421875,-62985.1904296875,-119.84682067871094,-1.1898446655273438,-0.9547675251960754,-0.6540157547593117,-1.4629915773964544,-1.6017780790174398,0.0,-0.3617267608642578,-2963.265625,-130.2216339111328,0.9765626192092896,351.56254291534424,4273.699945210706,1,1789158087.047089,38.99075356666667,-76.93780550666666,11.191000000000003,0,1,16.248960999999998,98.06940900000001,252.396769,1,1,1789158087.7101882,0.98974312923396,-0.13767300300608992,0.037211649590889594,0.008365136710097403,179.63726450401003,-4.356570708746758,-15.82423094096362,-0.003787364476827695,-0.06877871343211614,-0.2136024695711764,-1.1515949284934999,0.9571290557861328,-9.980816268615722
2026-09-11T16:21:27.748,1.4034176640000169,-174.99195861816406,-15749.276275634766,-62997.10510253906,-119.8694916534424,-1.212515640258789,-0.9557420015335083,-0.6546832710504532,-1.4644847688136464,-0.01997418862610943,0.0,-0.3219490051269531,-2637.40625,-115.90164184570312,1.2664796113967896,455.93266010284424,3123.0824405309086,1,1789158087.047089,38.99075356666667,-76.93780550666666,11.191000000000003,0,1,16.248960999999998,98.06940900000001,252.396769,1,1,1789158087.7421882,0.9900739593662429,-0.13549447248661403,0.03579537895011701,0.010653344838261719,179.34531401942067,-4.230385166090597,-15.561187782929636,-0.012086754135911131,-0.12612133147346463,-0.1716889111833082,0.13003618114471435,1.317033116722107,-9.944433596515655
2026-09-11T16:21:27.780,1.436839712000051,-175.02464294433594,-15752.217864990234,-63008.87145996094,-119.89188041687012,-1.2349044036865235,-0.9817749857902527,-0.6725158652663231,-1.5043751459966053,-0.5335577944191741,0.0,-0.2706432342529297,-2217.109375,-97.43156433105469,1.4038087129592896,505.37113666534424,1479.2174483876538,1,1789158087.047089,38.99075356666667,-76.93780550666666,11.191000000000003,0,1,16.248960999999998,98.06940900000001,252.396769,1,1,1789158087.7701883,0.990319886661853,-0.13392706834116153,0.033949161090177905,0.013323547157932929,179.00648444866593,-4.060502255583545,-15.368252959087009,-0.022058343751330332,-0.11092876393362959,-0.15283499193863945,0.6260565463256835,1.5781842105293273,-9.354269389781951
2026-09-11T16:21:27.814,1.4702422080000588,-175.0631561279297,-15755.684051513672,-63022.73620605469,-119.91826194763185,-1.2612859344482423,-1.1128185987472534,-0.7622807401418686,-1.7051734523574351,-2.6873702754286484,0.0,-0.23262596130371094,-1905.671875,-83.74534606933594,1.4190675020217896,510.86430072784424,164.45370018152843,1,1789158087.047089,38.99075356666667,-76.93780550666666,11.191000000000003,0,1,16.248960999999998,98.06940900000001,252.396769,1,1,1789158087.8101883,0.9904001800205254,-0.13324024835688864,0.03378879103343025,0.014588942168803952,178.85722867772395,-4.060886646915631,-15.283677042248447,-0.009753248925994712,-0.044967710045933106,-0.12055355662667754,0.5001391582489013,0.3767714992141724,-10.108106587715149
2026-09-11T16:21:27.848,1.5036481600000116,-175.0994110107422,-15758.946990966797,-63035.78796386719,-119.9430965423584,-1.2861205291748048,-1.1132429838180542,-0.7625714439153671,-1.705823738178611,-0.008702155038087276,0.0,-0.19170570373535156,-1570.453125,-69.01405334472656,0.7324219942092896,263.67191791534424,-7399.650900918778,1,1789158087.047089,38.99075356666667,-76.93780550666666,11.191000000000003,0,1,16.248960999999998,98.06940900000001,252.396769,1,1,1789158087.8421881,0.9905014871301082,-0.13275163363712794,0.03201175940988572,0.01609518621208243,178.65691303221297,-3.8812453780417506,-15.22160691099987,-0.00598962092699414,-0.006212848538324215,-0.08518917172399283,0.07423634172439575,1.1378656182670592,-9.400850978050233
2026-09-11T16:21:27.882,1.5370655680000027,-175.13682556152344,-15762.31430053711,-63049.25720214844,-119.96872550964356,-1.311749496459961,-1.1132429838180542,-0.7625714439153671,-1.705823738178611,0.0,0.0,-0.15073585510253906,-1234.828125,-54.26490783691406,1.3122559785842896,472.41215229034424,6246.4519802090945,1,1789158087.047089,38.99075356666667,-76.93780550666666,11.191000000000003,0,1,16.248960999999998,98.06940900000001,252.396769,1,1,1789158087.8701882,0.9904098531908794,-0.1329465364940741,0.03304879757700269,0.017925348402890857,178.46511601600488,-4.027194053995033,-15.23669764080462,-0.008423133503049834,0.025756870969231516,-0.07100296103085772,0.768841372680664,0.7658993776321411,-9.638171911964417
2026-09-11T16:21:27.915,1.5705570239999815,-175.17709350585938,-15765.938415527344,-63063.753662109375,-119.99630905151368,-1.3393330383300783,-1.1921521425247192,-0.8166242176294327,-1.8267363493858084,-1.6139272569726368,0.0,-0.118377685546875,-969.75,-42.615966796875,0.28991711139678955,104.37016010284424,-10989.130845423164,1,1789158087.047089,38.99075356666667,-76.93780550666666,11.191000000000003,0,1,16.248960999999998,98.06940900000001,252.396769,1,1,1789158087.9101882,0.9902607224493449,-0.13417495063035473,0.032206056243276895,0.018535213478628614,178.38785769193748,-3.942694616204426,-15.377057297131323,-0.007527954129701942,-0.0032955306936156927,-0.03292493820717223,-2.265336187362671,0.6761685286521911,-9.108514736728669
2026-09-11T16:21:27.948,1.6039632000000665,-175.21563720703125,-15769.407348632812,-63077.62939453125,-120.02271148681642,-1.3657354736328127,-1.1661036014556885,-0.7987809669971466,-1.7868221344782251,0.534130294716782,0.0,-0.07923126220703125,-649.0625,-28.52325439453125,1.1444092988967896,411.98734760284424,9208.392708558362,1,1789158087.047089,38.99075356666667,-76.93780550666666,11.191000000000003,0,1,16.248960999999998,98.06940900000001,252.396769,1,1,1789158087.9421883,0.9901042899776827,-0.13514569233202148,0.03251210579717649,0.019289888245418746,178.31057576394286,-3.9907051035440126,-15.486406978233855,-0.012284325407236889,-0.013355608502111009,-0.01584933493736051,-0.8881883051490783,0.7207887868881225,-9.511568058376312
2026-09-11T16:21:27.981,1.6373679360000324,-175.25775146484375,-15773.197631835938,-63092.79052734375,-120.05155975341798,-1.394583740234375,-1.2191123962402344,-0.8350919914245606,-1.8680475828215812,-1.0870022869646712,0.0,-0.05365180969238281,-439.515625,-19.314651489257812,0.15258800983428955,54.93168354034424,-10688.773713489758,1,1789158087.047089,38.99075356666667,-76.93780550666666,11.191000000000003,0,1,16.248960999999998,98.06940900000001,252.396769,1,1,1789158087.9701881,0.9899233962222602,-0.13645032097687324,0.03323612251113595,0.01812014562631394,178.4601459494708,-4.056918238031644,-15.641765699621118,-0.005569520176039105,0.0032061698359135836,0.009116203749016782,-0.64910217420578,0.4440451193237305,-9.988367389240265
2026-09-11T16:21:28.016,1.67077091200008,-175.3016357421875,-15777.147216796875,-63108.5888671875,-120.08162048339845,-1.4246444702148438,-1.271920084953308,-0.8712652581930161,-1.9489648760581049,-1.0829354476799915,0.0,-0.04129219055175781,-338.265625,-14.865188598632812,0.7781983017921448,280.1513886451721,6742.5041740145225,1,1789158087.047089,38.99075356666667,-76.93780550666666,11.191000000000003,0,1,16.248960999999998,98.06940900000001,252.396769,1,1,1789158088.0101883,0.9896400337294086,-0.13837320756377328,0.03449896011947397,0.01659158881009004,178.6617907792944,-4.179121185817384,-15.870359736631924,-0.001698379895115682,0.05999708930070668,0.036869207783754215,0.6459640461540221,0.11110934633255004,-10.035047044010163
2026-09-11T16:21:28.049,1.7042940480000652,-175.341064453125,-15780.69580078125,-63122.783203125,-120.10862915039064,-1.4516531372070314,-1.2204746007919312,-0.8360251015424729,-1.8701348907088224,1.0512189745779978,0.0,-0.024908065795898438,-204.046875,-8.966903686523438,0.3204346299171448,115.35646677017212,-4915.8563767743135,1,1789158088.0435758,38.990751956666664,-76.937803375,11.155999999999999,0,1,16.621928999999998,62.932489,204.232681,1,1,1789158088.0421882,0.9892978616819325,-0.14046696898710756,0.03645546628681286,0.01515818171622702,178.86499872353227,-4.381039573473395,-16.11900735903891,0.01739622025340308,0.05872073001872322,0.03254358376561147,0.19319100818634033,-0.516418197517395,-10.617856263122558
2026-09-11T16:21:28.083,1.7377166720000332,-175.38360595703125,-15784.524536132812,-63138.09814453125,-120.13777008056641,-1.4807940673828126,-1.247222661972046,-0.8543475234508515,-1.911120981234007,-0.548204171772874,0.0,-0.01885223388671875,-154.4375,-6.78680419921875,0.10681158304214478,38.45216989517212,-2300.9652645786778,1,1789158088.0435758,38.990751956666664,-76.937803375,11.155999999999999,0,1,16.621928999999998,62.932489,204.232681,1,1,1789158088.0701883,0.9890631290422665,-0.14139907795887152,0.03912116671162915,0.015164492626628697,178.91146612466912,-4.684856907109246,-16.22752327461109,-0.013501168961727336,0.095233367036295,0.036806026864832024,-1.4309863916015624,-1.4617792731094361,-8.952490932655335
2026-09-11T16:21:28.116,1.7711299520000239,-175.4259033203125,-15788.331298828125,-63153.3251953125,-120.16674377441407,-1.509767761230469,-1.2737958431243896,-0.872550152540207,-1.9518391028547915,-0.5447722908185166,0.0,-0.017181396484375,-140.75,-6.185302734375,0.0,0.0,-1150.8050061287865,1,1789158088.0435758,38.990751956666664,-76.937803375,11.155999999999999,0,1,16.621928999999998,62.932489,204.232681,1,1,1789158088.1101882,0.9886975625880641,-0.1428999892533285,0.04302733753699823,0.014330772076093743,179.07723726785204,-5.116307258783746,-16.407194790106534,-0.02334884020025494,0.08069686876228463,0.045536338316232855,3.0768364882469172,0.37167204113006597,-9.45057069437027
2026-09-11T16:21:28.148,1.804540320000001,-175.4620819091797,-15791.587371826172,-63166.34948730469,-120.19152610778809,-1.5345500946044923,-1.144421935081482,-0.7839290255308152,-1.7535992876047208,2.652503767975632,0.0,-0.018651962280273438,-152.796875,-6.7147064208984375,-0.0610351637005806,-21.972658932209015,-657.6598896553332,1,1789158088.0435758,38.990751956666664,-76.937803375,11.155999999999999,0,1,16.621928999999998,62.932489,204.232681,1,1,1789158088.1421883,0.9885716980113544,-0.14385838594820752,0.04328668392265501,0.012530988720155293,179.29120120573845,-5.116973112459211,-16.527621155868236,0.0037877135426780937,0.027287350190305346,0.01675708068132276,-0.6781298586845398,-0.3586291964149475,-10.01033428560257
2026-09-11T16:21:28.182,1.8379435520000698,-175.49807739257812,-15794.826965332031,-63179.307861328125,-120.21618301391602,-1.559207000732422,-1.0423029661178589,-0.7139775317907334,-1.5971222525741156,2.0941534561666897,0.0,-0.0205535888671875,-168.375,-7.3992919921875,-0.1525879055261612,-54.93164598941803,-986.7005401495624,1,1789158088.0435758,38.990751956666664,-76.937803375,11.155999999999999,0,1,16.621928999999998,62.932489,204.232681,1,1,1789158088.1701882,0.9884819778876777,-0.144326708975667,0.04417543025685064,0.011032308422984501,179.4788057964128,-5.193393379999538,-16.590299699810952,-0.008332201849020929,-0.01121600937209116,0.002534218073895766,2.796562426624298,-0.5939888002967835,-9.800864238147735
2026-09-11T16:21:28.217,1.8713790720000816,-175.53335571289062,-15798.002014160156,-63192.008056640625,-120.24034866333008,-1.5833726501464844,-1.0954493284225464,-0.7503827899694443,-1.6785584958156843,-1.088819859200575,0.0,-0.03307151794433594,-270.921875,-11.905746459960938,-0.4730225205421448,-170.28810739517212,-3450.117162996517,1,1789158088.0435758,38.990751956666664,-76.937803375,11.155999999999999,0,1,16.621928999999998,62.932489,204.232681,1,1,1789158088.2101882,0.9884552412611152,-0.14474622137424167,0.0437828928697524,0.009371537401377012,179.66336643625598,-5.1214883976509595,-16.646940727125433,-0.013924062239485563,-0.0352418627891947,-0.027481779868977513,1.4487364283943176,0.00421685956954956,-9.639740975990295
2026-09-11T16:21:28.250,1.9047982719999936,-175.5645294189453,-15800.807647705078,-63203.23059082031,-120.26170265197754,-1.6047266387939454,-0.940461277961731,-0.6442159754037857,-1.4410700953019528,3.1768209462206745,0.0,-0.055267333984375,-452.75,-19.896240234375,-0.7781983017921448,-280.1513886451721,-3287.430017782865,1,1789158088.0435758,38.990751956666664,-76.937803375,11.155999999999999,0,1,16.621928999999998,62.932489,204.232681,1,1,1789158088.2421882,0.9884542621852938,-0.1448948973560267,0.043383669454526215,0.009027597275764895,179.6965995780791,-5.07051151580679,-16.66545234600244,-0.00990805963064661,0.007961144850046935,-0.04092989082144422,-0.3600021274375915,0.959678784828186,-9.123911177482604
2026-09-11T16:21:28.282,1.9382088639999893,-175.6003875732422,-15804.034881591797,-63216.13952636719,-120.2862654876709,-1.6292894744873048,-1.097813367843628,-0.7520021569728852,-1.6821809166358366,-3.2261081027571605,0.0,-0.061466217041015625,-503.53125,-22.127838134765625,-0.03051757998764515,-10.986328795552254,8056.279273640379,1,1789158088.0435758,38.990751956666664,-76.937803375,11.155999999999999,0,1,16.621928999999998,62.932489,204.232681,1,1,1789158088.2701883,0.9883569720618226,-0.14506777196814388,0.04452007732900357,0.011126546077005316,179.47773286253917,-5.234467779258746,-16.676252430589518,-0.017765880988975483,0.016064534034131408,-0.04927273917890231,0.8675943398094177,0.44443738533020016,-9.714467650222778
2026-09-11T16:21:28.315,1.971613887999979,-175.63548278808594,-15807.193450927734,-63228.77380371094,-120.31030570983887,-1.6533296966552735,-1.0722994804382324,-0.7345251441001893,-1.6430859522642012,0.5231851613907319,0.0,-0.07325363159179688,-600.09375,-26.371307373046875,-0.16784673929214478,-60.42482614517212,-1479.9719152913985,1,1789158088.0435758,38.990751956666664,-76.937803375,11.155999999999999,0,1,16.621928999999998,62.932489,204.232681,1,1,1789158088.3091881,0.9884728872704392,-0.14457765495548228,0.04300169271168741,0.013019494719250083,179.2346541212002,-5.093233767530328,-16.60853091050853,-0.00985901587866557,-0.02981022362406315,-0.05044088804726212,1.6191760082054139,1.4041161701583862,-9.660138808326721
2026-09-11T16:21:28.349,2.005017184000053,-175.67697143554688,-15810.927429199219,-63243.709716796875,-120.33872543334962,-1.6817494201660157,-1.2301177978515625,-0.8426306915283204,-1.8849111746785958,-3.236373662883187,0.0,-0.0822296142578125,-673.625,-29.6026611328125,-0.3356934189796448,-120.84963083267212,-1808.9473771500273,1,1789158088.0435758,38.990751956666664,-76.937803375,11.155999999999999,0,1,16.621928999999998,62.932489,204.232681,1,1,1789158088.3421881,0.9885399076362551,-0.1438832788206789,0.04298886753969694,0.015440542541288751,178.95546990987094,-5.131143825090885,-16.5158399894912,-0.010215063046072413,0.008866272600131194,-0.058907654781611814,1.4641328691482542,1.5833817351150512,-9.894615813694
2026-09-11T16:21:28.384,2.038435648000018,-175.72137451171875,-15814.923706054688,-63259.69482421875,-120.36914154052735,-1.7121655273437502,-1.3614214658737183,-0.932573704123497,-2.0861079637694524,-2.6914167148816683,0.0,-0.09063911437988281,-742.515625,-32.63008117675781,-0.10681158304214478,-38.45216989517212,2465.6268144935293,1,1789158088.0435758,38.990751956666664,-76.937803375,11.155999999999999,0,1,16.621928999999998,62.932489,204.232681,1,1,1789158088.3821883,0.9886536105542303,-0.14306441105777054,0.04177580879696613,0.018745517494507973,178.55541379419344,-5.046674712291777,-16.404146263925384,-0.01170470156264957,0.016271704616343134,-0.08215631308280227,-0.5472110790252686,1.3031076734924316,-9.693481418876647
2026-09-11T16:21:28.416,2.071842912000079,-175.7659912109375,-15818.939208984375,-63275.7568359375,-120.3997039794922,-1.742727966308594,-1.3353885412216187,-0.9147411507368088,-2.046217677918772,0.5337926921119751,0.0,-0.09659385681152344,-791.296875,-34.77378845214844,-0.22888189554214478,-82.39748239517212,-1315.4418302534239,1,1789158088.0435758,38.990751956666664,-76.937803375,11.155999999999999,0,1,16.621928999999998,62.932489,204.232681,1,1,1789158088.4101882,0.98856663824783,-0.14336389653994402,0.041918963540144065,0.020629963838750792,178.34489898545874,-5.094262910617112,-16.429609398201276,0.006651100713499991,0.030873478204378094,-0.0731317391195152,0.2820392586517334,0.7304973705482483,-10.34474105611801
2026-09-11T16:21:28.449,2.1052499200000057,-175.81539916992188,-15823.385925292969,-63293.543701171875,-120.43354843139649,-1.7765724182128908,-1.4410724639892578,-0.9871346378326417,-2.2081572965118124,-2.167014989668999,0.0,-0.10210990905761719,-836.484375,-36.75956726074219,-0.12207037210464478,-43.94533395767212,1151.0204217505693,1,1789158088.0435758,38.990751956666664,-76.937803375,11.155999999999999,0,1,16.621928999999998,62.932489,204.232681,1,1,1789158088.4421883,0.9885778064549171,-0.1425724449381815,0.043801518182525284,0.021643602612311415,178.25597671656303,-5.323212377827701,-16.332114870565018,0.012860458593320218,0.016071515351139386,-0.08569095388394118,0.7687433061790466,0.8652407437705993,-10.103399395637512
2026-09-11T16:21:28.484,2.138663392000012,-175.86534118652344,-15827.88070678711,-63311.52282714844,-120.46775871276856,-1.8107826995849612,-1.4685200452804565,-1.0059362310171127,-2.2502152626545984,-0.562694986754665,0.0,-0.10843849182128906,-888.328125,-39.03785705566406,-0.19836431741714478,-71.41115427017212,-821.9983937166007,1,1789158088.0435758,38.990751956666664,-76.937803375,11.155999999999999,0,1,16.621928999999998,62.932489,204.232681,1,1,1789158088.4811883,0.9885589240012936,-0.14195243237589633,0.04585726945162966,0.022313035616241383,178.20957461058998,-5.566443409671527,-16.256044989789913,-0.0008229227423153263,0.021991672173904152,-0.10661413548977441,0.8567089581298828,0.8095389708518982,-9.937863140907288
2026-09-11T16:21:28.516,2.1720770560000346,-175.9174041748047,-15832.566375732422,-63330.26550292969,-120.50342185974122,-1.8464458465576172,-1.5740023851394653,-1.0781916338205337,-2.41184599548258,-2.1624507507878366,0.0,-0.12032508850097656,-985.703125,-43.31703186035156,-0.4425049424171448,-159.30177927017212,-2630.3797452425747,1,1789158088.0435758,38.990751956666664,-76.937803375,11.155999999999999,0,1,16.621928999999998,62.932489,204.232681,1,1,1789158088.5101883,0.9886519038950763,-0.14154520819945465,0.045286581408350124,0.021942937468781044,178.24024031855024,-5.4949008647947934,-16.210871843754962,-0.00705165377683269,-0.03350892537488953,-0.09737820215407084,0.2494811801147461,0.18946448112487793,-9.9519847171402
2026-09-11T16:21:28.549,2.2054869440000857,-175.9652099609375,-15836.868896484375,-63347.4755859375,-120.53616882324219,-1.879192810058594,-1.4700254201889038,-1.0069674128293993,-2.2525219506742085,2.1318305823421375,0.0,-0.1260395050048828,-1032.515625,-45.37422180175781,0.0915527492761612,32.95898973941803,5754.606810094552,1,1789158088.0435758,38.990751956666664,-76.937803375,11.155999999999999,0,1,16.621928999999998,62.932489,204.232681,1,1,1789158088.5421882,0.9888565890664762,-0.14073869763180827,0.042886550051490335,0.02271583309935266,178.10939293841554,-5.233295466202999,-16.11399456600855,-0.00024452062820440557,-0.05295660563108675,-0.11359143824047215,-0.19073934564590453,0.7351064961242676,-8.73998082365036
2026-09-11T16:21:28.582,2.2388985280000497,-176.0186309814453,-15841.676788330078,-63366.70715332031,-120.57276222229005,-1.9157862091064455,-1.5230025053024292,-1.043256716132164,-2.3336988102455325,-1.0861293886217358,0.0,-0.1262531280517578,-1034.265625,-45.45112609863281,0.0,0.0,-986.4539717558293,1,1789158088.0435758,38.990751956666664,-76.937803375,11.155999999999999,0,1,16.621928999999998,62.932489,204.232681,1,1,1789158088.5701883,0.9889209810338009,-0.14033190674905655,0.043338645829397615,0.021540914488319154,178.24820011144922,-5.265024791168813,-16.072608863500722,0.00031904618726456347,-0.09483002144615911,-0.10720423130987371,0.34450762018203734,0.4558130995178223,-10.049855085754395
2026-09-11T16:21:28.617,2.2723024960000657,-176.0723876953125,-15846.514892578125,-63386.0595703125,-120.60958557128907,-1.952609558105469,-1.5498145818710327,-1.0616229885816575,-2.3747829916375633,-0.5498230763927424,0.0,-0.12636184692382812,-1035.15625,-45.490264892578125,-0.015258789993822575,-5.493164397776127,-164.4464632996145,1,1789158088.0435758,38.990751956666664,-76.937803375,11.155999999999999,0,1,16.621928999999998,62.932489,204.232681,1,1,1789158088.6101882,0.9891597354100219,-0.13937734905702734,0.040525042740397844,0.022241702369649983,178.11879499478633,-4.9548938167226435,-15.959496228373009,0.0133271596353035,-0.1065310578173795,-0.11993239394589275,-0.34333082216262817,1.02214714635849,-9.043496646156312
2026-09-11T16:21:28.651,2.3057225280000466,-176.1292266845703,-15851.630401611328,-63406.52160644531,-120.64852027893068,-1.9915442657470706,-1.6806309223175049,-1.1512321817874909,-2.5752330480214067,-2.6813018373496655,0.0,-0.12720489501953125,-1042.0625,-45.79376220703125,-0.0305175818502903,-10.986329466104507,-164.36743891602262,1,1789158088.0435758,38.990751956666664,-76.937803375,11.155999999999999,0,1,16.621928999999998,62.932489,204.232681,1,1,1789158088.6421883,0.9893553747472841,-0.13829815606937407,0.0385629533022443,0.023716262755348085,177.91475291935106,-4.753251453625488,-15.82862805504022,0.014648897477838806,-0.07013692865601813,-0.12536979269755588,-0.26193562582015995,1.0933434265327455,-9.354367456283569
2026-09-11T16:21:28.683,2.33914582400007,-176.1881866455078,-15856.936798095703,-63427.74719238281,-120.68890785217286,-2.0319318389892578,-1.7590683698654175,-1.2049618333578112,-2.6954228555784936,-1.6075509599736175,0.0,-0.12773513793945312,-1046.40625,-45.984649658203125,-0.015258789993822575,-5.493164397776127,164.3513873773701,1,1789158088.0435758,38.990751956666664,-76.937803375,11.155999999999999,0,1,16.621928999999998,62.932489,204.232681,1,1,1789158088.6821883,0.9895182062974925,-0.13713636754204386,0.038365285645708215,0.0239883505162293,177.87511836268354,-4.7326050798018136,-15.692795825367247,0.014591650678373393,-0.03116739165041394,-0.14228133501768014,0.191523877658844,0.38706848188400267,-9.080663850269318
2026-09-11T16:21:28.716,2.3725459839999985,-176.2473907470703,-15862.265167236328,-63449.06066894531,-120.72946266174317,-2.0724866485595705,-1.810827374458313,-1.2404167515039446,-2.7747332487113976,-1.0615194102725725,0.0,-0.12984085083007812,-1063.65625,-46.742706298828125,-0.0610351599752903,-21.972657591104507,-493.3956362294001,1,1789158088.0435758,38.990751956666664,-76.937803375,11.155999999999999,0,1,16.621928999999998,62.932489,204.232681,1,1,1789158088.7101882,0.9895895544595098,-0.13623837510483822,0.03942105907875113,0.02444583716161397,177.83501856956065,-4.857753765817382,-15.585607763478889,0.0042043236351291405,-0.01253914347802806,-0.15485241802101968,-0.021574630355834963,0.807675707321167,-9.189615733566285
2026-09-11T16:21:28.749,2.4059495999999854,-176.30812072753906,-15867.730865478516,-63470.92346191406,-120.77106269836426,-2.114086685180664,-1.8369288444519043,-1.2582962584495545,-2.814728566682071,-0.5352566304682984,0.0,-0.1310405731201172,-1073.484375,-47.17460632324219,-0.015258789993822575,-5.493164397776127,493.3445886018705,1,1789158088.0435758,38.990751956666664,-76.937803375,11.155999999999999,0,1,16.621928999999998,62.932489,204.232681,1,1,1789158088.7421882,0.9897105388706616,-0.13447324079653178,0.04168474672190921,0.02554170410823435,177.73594452538936,-5.1279985050779215,-15.37354097615648,-0.008862607408702006,-0.05146295285723,-0.14688603718321677,1.6199605402183532,0.7019600185775757,-9.528337430152893
2026-09-11T16:21:28.784,2.439362048000021,-176.37001037597656,-15873.30093383789,-63493.20373535156,-120.81345710754395,-2.156481094360352,-1.8627022504806519,-1.2759510415792465,-2.854221191793229,-0.5283893933684021,0.0,-0.13301849365234375,-1089.6875,-47.88665771484375,-0.0762939527630806,-27.465822994709015,-657.6189388131494,1,1789158088.0435758,38.990751956666664,-76.937803375,11.155999999999999,0,1,16.621928999999998,62.932489,204.232681,1,1,1789158088.7821882,0.9900010306178132,-0.13226764756519094,0.04295640210676451,0.023621521993307033,177.96237974022213,-5.238542866917244,-15.126484439899293,-0.003610039024825071,-0.05008990233468606,-0.17692856413072036,1.512871920452118,-0.24232232549667357,-9.753596184368133
2026-09-11T16:21:28.817,2.4727779520000013,-176.43199157714844,-15878.87924194336,-63515.51696777344,-120.85591423034668,-2.1989382171630862,-1.8371410369873047,-1.2584416103363039,-2.8150537095926595,0.5239849636554186,0.0,-0.1349201202392578,-1105.265625,-48.57124328613281,-0.01525880303233862,-5.493169091641903,657.550784892128,1,1789158088.0435758,38.990751956666664,-76.937803375,11.155999999999999,0,1,16.621928999999998,62.932489,204.232681,1,1,1789158088.8091881,0.9903846083581626,-0.13058692224994664,0.040048617863235846,0.021942913930915544,178.10177366545167,-4.879359219405565,-14.941898209798525,-0.0027146851185519804,-0.05335052644326187,-0.17283838502867166,-1.0391126511383058,0.6646947479629517,-9.330341163387299
2026-09-11T16:21:28.851,2.506189823999989,-176.4927520751953,-15884.347686767578,-63537.39074707031,-120.89753517150879,-2.2405591583251954,-1.7858693599700928,-1.2233205115795136,-2.7364900491667687,1.051156270346152,0.0,-0.1351604461669922,-1107.234375,-48.65776062011719,-0.0305175818502903,-10.986329466104507,-164.40744099775677,1,1789158088.0435758,38.990751956666664,-76.937803375,11.155999999999999,0,1,16.621928999999998,62.932489,204.232681,1,1,1789158088.8421881,0.9907575569420769,-0.12854383523863872,0.03880393311296419,0.01924059664546924,178.3815078994753,-4.694170140620893,-14.718518141795377,0.006001489165907701,-0.03589985191719656,-0.17789338214122283,-0.3955022010231018,-0.12964391513824464,-9.465182603111268
2026-09-11T16:21:28.884,2.539598176000027,-176.552001953125,-15889.68017578125,-63558.720703125,-120.93812133789064,-2.2811453247070315,-1.760239601135254,-1.205764126777649,-2.6972175348462057,0.5255088548469767,0.0,-0.134857177734375,-1104.75,-48.548583984375,0.0,0.0,328.8497878043227,1,1789158088.0435758,38.990751956666664,-76.937803375,11.155999999999999,0,1,16.621928999999998,62.932489,204.232681,1,1,1789158088.8821883,0.9911153299755876,-0.12642833825684852,0.03823022144354642,0.015643789226767325,178.77314600008233,-4.5734344920107075,-14.489979437857274,0.07477775913707105,-0.0280706539586004,-0.16151695776976002,0.8338594632530212,-0.009904716663360597,-10.03740064004898
2026-09-11T16:21:28.917,2.5730055999999877,-176.61196899414062,-15895.077209472656,-63580.308837890625,-120.97919876098634,-2.3222227478027344,-1.786500334739685,-1.2237527292966843,-2.7374568926643765,-0.5384612270331375,0.0,-0.1338367462158203,-1096.390625,-48.18122863769531,0.0762939527630806,27.465822994709015,822.1472866253074,1,1789158088.0435758,38.990751956666664,-76.937803375,11.155999999999999,0,1,16.621928999999998,62.932489,204.232681,1,1,1789158088.9101882,0.9913598990330105,-0.12494036304335983,0.037245227248765576,0.014430846095798722,178.89047650531907,-4.442169788145013,-14.323115051621796,-0.08197095911624047,-0.043449797195473636,-0.1489420350420661,-0.8419989828872682,-1.4551107509994508,-10.918626223583223
2026-09-11T16:21:28.952,2.606421568000087,-176.66893005371094,-15900.203704833984,-63600.81481933594,-121.018217086792,-2.3612410736083986,-1.7620457410812378,-1.207001332640648,-2.6999850855418903,0.5012991590124398,0.0,-0.1323833465576172,-1084.484375,-47.65800476074219,0.015258789993822575,5.493164397776127,-657.54966598207,1,1789158088.0435758,38.990751956666664,-76.937803375,11.155999999999999,0,1,16.621928999999998,62.932489,204.232681,1,1,1789158088.9421883,0.9916374482158686,-0.12290865509158846,0.036798848403466054,0.01394555684353053,178.9304175262247,-4.382258618132294,-14.09007578565853,0.009037838465602237,-0.06058299633060117,-0.15998333695603265,-1.8702262523460387,0.628410142364502,-9.25737968618393
2026-09-11T16:21:28.984,2.63984012800006,-176.7240753173828,-15905.166778564453,-63620.66711425781,-121.05599159240724,-2.399015579223633,-1.7110246419906616,-1.1720518797636033,-2.6218053860137838,1.0458096601730629,0.0,-0.1310710906982422,-1073.734375,-47.18559265136719,0.01525880303233862,5.493169091641903,0.000140456853199714,1,1789158088.0435758,38.990751956666664,-76.937803375,11.155999999999999,0,1,16.621928999999998,62.932489,204.232681,1,1,1789158088.9821882,0.9918946277709767,-0.12151048438446002,0.034232501669356805,0.014435560716046262,178.83280940508632,-4.095448741538588,-13.92652699454953,0.02861572028399823,0.004915894371167229,-0.11813714827729138,-2.171584611816406,1.6539896162796022,-9.19667652168274
2026-09-11T16:21:29.017,2.6732520320000503,-176.78314208984375,-15910.482788085938,-63641.93115234375,-121.09645233154298,-2.4394763183593753,-1.7896742820739746,-1.2259268832206727,-2.7423203364814586,-1.6124493670604565,0.0,-0.12756729125976562,-1045.03125,-45.924224853515625,0.1678466945886612,60.42481005191803,1644.0739492215632,1,1789158088.0435758,38.990751956666664,-76.937803375,11.155999999999999,0,1,16.621928999999998,62.932489,204.232681,1,1,1789158089.0101883,0.9919463695825625,-0.12064990688836218,0.03502881047437569,0.01609292628933731,178.651267750489,-4.207952608655398,-13.820031780346397,0.03165276771539356,-0.004389503068765739,-0.11811742605674384,-0.03530394058227539,1.4863939650154114,-9.948062057075502
2026-09-11T16:21:29.050,2.706658176000019,-176.84530639648438,-15916.077575683594,-63664.310302734375,-121.13903488159181,-2.4820588684082034,-1.8945050239562988,-1.2977359414100649,-2.9029526248435564,-2.149576382998875,0.0,-0.12022209167480469,-984.859375,-43.27995300292969,0.2593994438648224,93.38379979133606,986.6146101582076,1,1789158088.0435758,38.990751956666664,-76.937803375,11.155999999999999,0,1,16.621928999999998,62.932489,204.232681,1,1,1789158089.0421882,0.9920882104886936,-0.11972643103569824,0.03359511151521746,0.01726073008525344,178.49467839439407,-4.059464511479787,-13.709144125757392,0.02688836792329944,-0.007753974267835207,-0.10587498855155482,-1.2494652971076965,1.5337600852966309,-10.426626584968567
2026-09-11T16:21:29.085,2.740061695999998,-176.90904235839844,-15921.81381225586,-63687.25524902344,-121.18269401550295,-2.525718002319336,-1.9210782051086426,-1.3159385704994202,-2.9436707464643406,-0.5449314649883249,0.0,-0.11033439636230469,-903.859375,-39.72038269042969,0.4119873344898224,148.31544041633606,1644.4865877917853,1,1789158089.0516772,38.99074863333333,-76.93779918833333,11.229999999999997,0,1,16.621928999999998,62.948356000000004,204.26126399999998,1,1,1789158089.0821881,0.9920208314194732,-0.11933882243105012,0.03645363468036135,0.018001333538889757,178.44741638674708,-4.394426921032484,-13.659716658786786,0.03297171303112568,-0.010617361438657106,-0.08743279247743153,0.10002783164978028,1.0369551881027221,-10.027986255893707
2026-09-11T16:21:29.119,2.773482336000029,-176.97573852539062,-15927.816467285156,-63711.265869140625,-121.22838088989259,-2.5714048767089848,-1.9996482133865356,-1.369759026169777,-3.0640636770082663,-1.6103957216350888,0.0,-0.08991432189941406,-736.578125,-32.36915588378906,0.5340576767921448,192.26076364517212,1314.9156697416638,1,1789158089.0516772,38.99074863333333,-76.93779918833333,11.229999999999997,0,1,16.621928999999998,62.948356000000004,204.26126399999998,1,1,1789158089.1101882,0.9920081198604749,-0.11938702214677206,0.03612090869531812,0.019023906771124612,178.32650020020492,-4.370570179179099,-13.661087879100855,0.00975988117715229,-0.04771154216299339,-0.07931055373742552,0.08884825046539307,0.5755522979927062,-9.290820363235474
2026-09-11T16:21:29.151,2.806900576000089,-177.04527282714844,-15934.07455444336,-63736.29821777344,-121.27601188659669,-2.619035873413086,-2.104860544204712,-1.4418294727802279,-3.225280674615753,-2.1566200557037574,0.0,-0.08519172668457031,-697.890625,-30.669021606445312,0.2136230617761612,76.90430223941803,-3451.9011595328475,1,1789158089.0516772,38.99074863333333,-76.93779918833333,11.229999999999997,0,1,16.621928999999998,62.948356000000004,204.26126399999998,1,1,1789158089.1421883,0.9919744175706469,-0.11938494679333728,0.035876814231755615,0.021138674629885185,178.08200250851496,-4.3716136076951955,-13.65196386521756,-0.02578497077018863,-0.13141648589109023,-0.06558249197293893,1.1839568740272521,1.349493128757477,-9.699953807983398
2026-09-11T16:21:29.184,2.8403690879999886,-177.11874389648438,-15940.686950683594,-63762.747802734375,-121.3263395690918,-2.669363555908203,-2.208986759185791,-1.513155930042267,-3.3848334154488757,-2.131151132809653,0.0,-0.06197357177734375,-507.6875,-22.31048583984375,0.8697510361671448,313.1103730201721,7057.561172168752,1,1789158089.0516772,38.99074863333333,-76.93779918833333,11.229999999999997,0,1,16.621928999999998,62.948356000000004,204.26126399999998,1,1,1789158089.1821883,0.9919300046336682,-0.11983083084564304,0.033313888531224474,0.024609403024516155,177.6534384196068,-4.12818062576356,-13.69197391805167,-0.02242294303207195,-0.1307131182025365,-0.040848383945376085,-0.22516068771362305,1.4457944333457948,-10.202936894779207
2026-09-11T16:21:29.217,2.8737689600000067,-177.19635009765625,-15947.671508789062,-63790.68603515625,-121.37949981689454,-2.7225238037109376,-2.2874088287353516,-1.5668750476837159,-3.5049996592781723,-1.6083629793976362,0.0,-0.058345794677734375,-477.96875,-21.004486083984375,-0.3509521782398224,-126.34278416633606,-13157.330578580342,1,1789158089.0516772,38.99074863333333,-76.93779918833333,11.229999999999997,0,1,16.621928999999998,62.948356000000004,204.26126399999998,1,1,1789158089.2101882,0.9919482139176243,-0.12024397781601967,0.030056512027655895,0.026014088285901404,177.4507763641595,-3.777673534893844,-13.739262659719039,0.015575143711872198,-0.1219206730297647,-0.03651892020287895,-1.9106296510124208,1.5803416735649107,-10.001998632965087
2026-09-11T16:21:29.251,2.90719027199998,-177.27655029296875,-15954.889526367188,-63819.55810546875,-121.4344369506836,-2.7774609375000003,-2.3919641971588135,-1.6384954750537875,-3.6652099925147317,-2.1429567866793855,0.0,-0.05525016784667969,-452.609375,-19.890060424804688,0.01525880303233862,5.493169091641903,3944.667200919103,1,1789158089.0516772,38.99074863333333,-76.93779918833333,11.229999999999997,0,1,16.621928999999998,62.948356000000004,204.26126399999998,1,1,1789158089.2421882,0.9918259326988288,-0.12095086265080139,0.02992479762059914,0.027508444839564685,177.28133896718546,-3.7851175161901636,-13.815663634864581,0.008092568142722108,-0.08312270188963154,-0.03494480775050527,0.3469592827224732,1.0603930819892884,-8.589448743667603
2026-09-11T16:21:29.286,2.9406042880000314,-177.36407470703125,-15962.766723632812,-63851.06689453125,-121.49439117431642,-2.837415161132813,-2.575444221496582,-1.7641792917251589,-3.9463566833508343,-3.7614100822594168,0.0,-0.05440330505371094,-445.671875,-19.585189819335938,0.061035171151161194,21.97266161441803,493.19101669044204,1,1789158089.0516772,38.99074863333333,-76.93779918833333,11.229999999999997,0,1,16.621928999999998,62.948356000000004,204.26126399999998,1,1,1789158089.2821882,0.9916805570367668,-0.12158480700098628,0.02872201337535173,0.0310137622588236,176.867742794827,-3.698588774640508,-13.878549741435805,-0.03122620924620615,-0.046079135713603094,-0.020436234744526802,-0.07149047967910767,2.05576807340622,-7.925440461215973
2026-09-11T16:21:29.318,2.9740279680000867,-177.45538330078125,-15970.984497070312,-63883.93798828125,-121.55693756103517,-2.8999615478515626,-2.7325363159179688,-1.8717873764038087,-4.187069113286969,-3.2195163632033212,0.0,-0.05075836181640625,-415.8125,-18.27301025390625,0.1068115383386612,38.45215380191803,493.04840722124874,1,1789158089.0516772,38.99074863333333,-76.93779918833333,11.229999999999997,0,1,16.621928999999998,62.948356000000004,204.26126399999998,1,1,1789158089.3101883,0.9915621466166958,-0.1222003444982053,0.027375654550062054,0.033498637873290035,176.56832236143765,-3.5819677749765684,-13.944100861284298,-0.02164365352105648,-0.023852716755305703,-0.010369873750724309,-0.4975894292068481,1.7290104900169372,-9.790665321979523
2026-09-11T16:21:29.351,3.007432224000013,-177.55313110351562,-15979.781799316406,-63919.127197265625,-121.62389480590821,-2.9669187927246097,-2.942361831665039,-2.015517854690552,-4.508585036440922,-4.302759453378075,0.0,-0.04408454895019531,-361.140625,-15.870437622070312,0.1831054985523224,65.91797947883606,822.2253379024147,1,1789158089.0516772,38.99074863333333,-76.93779918833333,11.229999999999997,0,1,16.621928999999998,62.948356000000004,204.26126399999998,1,1,1789158089.3421881,0.9914020105446558,-0.12285856348671495,0.02653871316872486,0.036380263458955384,176.23073757454176,-3.529378175359313,-14.012449501224838,-0.04220171224737249,-0.018638196549122247,-0.006118600758716521,-0.3341125710105896,2.1639354246902465,-8.450194311370849
2026-09-11T16:21:29.385,3.0408378880000555,-177.65365600585938,-15988.829040527344,-63955.316162109375,-121.69275436401368,-3.0357783508300784,-3.0740151405334473,-2.1057003712654114,-4.710317580676023,-2.6996175431431095,0.0,-0.03420066833496094,-280.171875,-12.312240600585938,0.3662109673023224,131.83594822883606,1973.2572521209538,1,1789158089.0516772,38.99074863333333,-76.93779918833333,11.229999999999997,0,1,16.621928999999998,62.948356000000004,204.26126399999998,1,1,1789158089.3821883,0.9911571616882594,-0.12445581539299856,0.024961989337090144,0.03866691010764195,175.95384736393146,-3.3885654228212734,-14.19417655722164,-0.04043666077483062,-0.01782504765061809,0.01636612692887603,-1.1516929949951171,1.334587020511627,-8.977988223075867
2026-09-11T16:21:29.419,3.0742642239999896,-177.76260375976562,-15998.634338378906,-63994.537353515625,-121.76738357543947,-3.1104075622558596,-3.1783690452575684,-2.1771827960014347,-4.87021921081208,-2.1385061388769717,0.0,-0.024408340454101562,-199.953125,-8.787002563476562,0.1373291313648224,49.43848729133606,-2465.0461521616535,1,1789158089.0516772,38.99074863333333,-76.93779918833333,11.229999999999997,0,1,16.621928999999998,62.948356000000004,204.26126399999998,1,1,1789158089.4101882,0.9909302488340764,-0.12622006934428404,0.023389894096310607,0.03973221482025443,175.81625656985415,-3.232366255552562,-14.399861686410816,0.011737862818437464,-0.04267644180391495,0.04347178834404876,-1.2355398538780211,2.02252352935791,-10.007686490058898
2026-09-11T16:21:29.452,3.1076832960000047,-177.8745880126953,-16008.712921142578,-64034.85168457031,-121.8440927886963,-3.1871167755126955,-3.3355681896209717,-2.2848642098903658,-5.11109567351996,-3.222154519697083,0.0,-0.022640228271484375,-185.46875,-8.150482177734375,-0.030517578125,-10.986328125,-1808.093756053689,1,1789158089.0516772,38.99074863333333,-76.93779918833333,11.229999999999997,0,1,16.621928999999998,62.948356000000004,204.26126399999998,1,1,1789158089.4421883,0.9907181366413764,-0.128201266649988,0.021872758002800124,0.03954227379057203,175.82250228637074,-3.0655384158190206,-14.634640912014394,-0.013771694995786456,0.001189965484009734,0.048239155195871276,-1.5109105904197695,0.9721332305335998,-9.94423746351242
2026-09-11T16:21:29.485,3.141088159999981,-177.9874267578125,-16018.868408203125,-64075.4736328125,-121.92138732910158,-3.264411315917969,-3.4146578311920166,-2.3390406143665317,-5.232284838865715,-1.6218118557885493,0.0,-0.02353668212890625,-192.8125,-8.47320556640625,-0.1068115308880806,-38.452151119709015,-822.2102923313319,1,1789158089.0516772,38.99074863333333,-76.93779918833333,11.229999999999997,0,1,16.621928999999998,62.948356000000004,204.26126399999998,1,1,1789158089.4821882,0.9903851960349402,-0.130453273528485,0.02534548939349425,0.03842802451258169,176.00722383370453,-3.4529984947871037,-14.887173451741877,-0.04056738593580499,0.14489391837499044,0.01863121523211427,0.03353874355316162,-0.2744881380271912,-9.309943331050873
2026-09-11T16:21:29.520,3.1745099199999913,-178.1034393310547,-16029.309539794922,-64117.23815917969,-122.00085594177247,-3.3438799285888674,-3.4414432048797607,-2.3573885953426363,-5.273328103397087,-0.548983086949912,0.0,-0.02999114990234375,-245.6875,-10.79681396484375,-0.2746582329273224,-98.87696385383606,-1807.9482568873882,1,1789158089.0516772,38.99074863333333,-76.93779918833333,11.229999999999997,0,1,16.621928999999998,62.948356000000004,204.26126399999998,1,1,1789158089.5101883,0.9902432445034185,-0.13098041157583362,0.027620499663555263,0.038724107441017765,176.00878153367185,-3.7180238832241996,-14.940059672349465,-0.007913671894392689,0.07979767513165714,0.04586341301805659,4.009350852127075,-0.037853669624328616,-10.69307326986313
2026-09-11T16:21:29.552,3.2079294400000435,-178.2195281982422,-16039.757537841797,-64159.03015136719,-122.0803768157959,-3.423400802612305,-3.493800640106201,-2.393253438472748,-5.353555472603672,-1.0731705042458894,0.0,-0.0367889404296875,-301.375,-13.2440185546875,-0.10681155323982239,-38.45215916633606,1808.0691969066459,1,1789158089.0516772,38.99074863333333,-76.93779918833333,11.229999999999997,0,1,16.621928999999998,62.948356000000004,204.26126399999998,1,1,1789158089.5421882,0.9898824550173386,-0.13183482410367883,0.03363258132320895,0.04026355518252723,175.92532597586424,-4.427690304594481,-15.014696203026118,-0.046235866280432185,0.20120714122351271,0.011029259142127766,4.405245319156647,1.0276388704490662,-10.634723701400757
2026-09-11T16:21:29.585,3.2413366719999885,-178.3359832763672,-16050.238494873047,-64200.95397949219,-122.16014854431154,-3.50317253112793,-3.4940176010131836,-2.393402056694031,-5.353887922096519,-0.004448684083826965,0.0,-0.03970527648925781,-325.265625,-14.293899536132812,0.0,0.0,1151.0130251557318,1,1789158089.0516772,38.99074863333333,-76.93779918833333,11.229999999999997,0,1,16.621928999999998,62.948356000000004,204.26126399999998,1,1,1789158089.5821881,0.9896626284036153,-0.13269747995407255,0.03818120595827592,0.038748629222953024,176.16923067617847,-4.925291195081428,-15.10893134917377,0.011305544762718469,0.10725275146307914,0.005663767955646799,1.697825342502594,0.15720060209274292,-10.815656396884917
2026-09-11T16:21:29.619,3.2747452800000474,-178.45065307617188,-16060.558776855469,-64242.235107421875,-122.23869735717774,-3.581721343994141,-3.4433181285858154,-2.3586729180812838,-5.276201051541878,1.03952665770109,0.0,-0.03936767578125,-322.5,-14.17236328125,0.015258789993822575,5.493164397776127,164.42362392849324,1,1789158089.0516772,38.99074863333333,-76.93779918833333,11.229999999999997,0,1,16.621928999999998,62.948356000000004,204.26126399999998,1,1,1789158089.6101882,0.9896981615886635,-0.13315616547132508,0.0379615796012811,0.036412951255954236,176.434460999096,-4.866722472973436,-15.173802113184347,0.009696351192379698,-0.02535736510345002,0.0008367108434060817,1.0339151265525817,-0.26487762086868283,-8.084896592845917
2026-09-11T16:21:29.653,3.308154112000011,-178.56512451171875,-16070.861206054688,-64283.44482421875,-122.31711029052735,-3.6601342773437504,-3.4187734127044678,-2.3418597877025604,-5.23859115001467,0.5032540610441457,0.0,-0.037567138671875,-307.75,-13.524169921875,0.0,0.0,-164.42252149916814,1,1789158089.0516772,38.99074863333333,-76.93779918833333,11.229999999999997,0,1,16.621928999999998,62.948356000000004,204.26126399999998,1,1,1789158089.6501882,0.9897032323663356,-0.13421582838501872,0.03750181815900448,0.0326685917865941,176.85937575181313,-4.761062823542956,-15.315191964538645,0.012744743263912993,-0.07050693845744092,0.006495417344222097,0.27684173406600954,-0.12905551612854005,-9.63797577896118
2026-09-11T16:21:29.687,3.3415756480000027,-178.6764373779297,-16080.879364013672,-64323.51745605469,-122.39335960388185,-3.7363835906982423,-3.290055274963379,-2.253687863349915,-5.041356172489961,2.6381769034393745,0.0,-0.03862762451171875,-316.4375,-13.90594482421875,0.0,0.0,0.0,1,1789158089.0516772,38.99074863333333,-76.93779918833333,11.229999999999997,0,1,16.621928999999998,62.948356000000004,204.26126399999998,1,1,1789158089.6821883,0.9897122133584234,-0.13480152206274226,0.03740891654283716,0.029980949648558197,177.16691859298825,-4.711070753627125,-15.39566905181681,0.03771778686607386,-0.1064347156426694,-0.002167524398051758,1.1973919847488403,-0.8607296846961975,-10.151059715423584
2026-09-11T16:21:29.719,3.3750283200000695,-178.7842254638672,-16090.580291748047,-64362.32116699219,-122.46719444274903,-3.8102184295654298,-3.2652511596679688,-2.236697044372559,-5.003348792887787,0.5079061839162532,0.0,-0.04631996154785156,-379.453125,-16.675186157226562,-0.3967285454273224,-142.82227635383606,-4269.383215593394,1,1789158089.0516772,38.99074863333333,-76.93779918833333,11.229999999999997,0,1,16.621928999999998,62.948356000000004,204.26126399999998,1,1,1789158089.7101882,0.9897761344853672,-0.1350189960205496,0.036751544050861736,0.0276115614677037,177.42776975836307,-4.600508631770756,-15.432620678941776,-0.002426531259047716,-0.07038581260735251,-0.021792006507476,1.4723704552841186,0.03167548002243042,-9.408500165176392
2026-09-11T16:21:29.752,3.4084395520000044,-178.89247131347656,-16100.32241821289,-64401.28967285156,-122.54134284973145,-3.884366836547852,-3.2656803131103516,-2.236991014480591,-5.004006385291223,-0.008798541401669935,0.0,-0.058895111083984375,-482.46875,-21.202239990234375,-0.061035215854644775,-21.97267770767212,3617.035093060903,1,1789158089.0516772,38.99074863333333,-76.93779918833333,11.229999999999997,0,1,16.621928999999998,62.948356000000004,204.26126399999998,1,1,1789158089.7421882,0.9896889244421458,-0.13487087569645612,0.03856123714063934,0.02896050268215214,177.300990680637,-4.826522471702066,-15.40670722321153,-0.08636779256786459,0.034800992620140934,-0.05712323015437281,0.47807419538497925,2.1261798215675354,-8.357423400840759
2026-09-11T16:21:29.786,3.4418511040000794,-179.00144958496094,-16110.130462646484,-64440.52185058594,-122.61599296569825,-3.9590169525146486,-3.213726282119751,-2.2014025032520297,-4.924397152943869,1.0651558846617326,0.0,-0.06200218200683594,-507.921875,-22.320785522460938,-0.4119873344898224,-148.31544041633606,-3781.4095767948793,1,1789158089.0516772,38.99074863333333,-76.93779918833333,11.229999999999997,0,1,16.621928999999998,62.948356000000004,204.26126399999998,1,1,1789158089.7821882,0.9898942423178926,-0.13327551123396547,0.03971625921147025,0.02774249241610443,177.44933332429574,-4.934944934573849,-15.226009465090941,0.07479102363938621,0.04560109003148185,-0.11549088006541758,3.0970381875801083,-0.5961462633323669,-8.937879023914338
2026-09-11T16:21:29.819,3.4752558400000453,-179.1097869873047,-16119.880828857422,-64479.52331542969,-122.69020408630372,-4.033228073120117,-3.266719102859497,-2.2377025854587558,-5.005598124236653,-1.0866747220143635,0.0,-0.071319580078125,-584.25,-25.675048828125,-0.3814697861671448,-137.32912302017212,328.8850238533593,1,1789158089.0516772,38.99074863333333,-76.93779918833333,11.229999999999997,0,1,16.621928999999998,62.948356000000004,204.26126399999998,1,1,1789158089.8101883,0.9899958893446377,-0.13225584154016765,0.03995667068806031,0.02863557100439806,177.3460559861263,-4.9731170462549965,-15.103173871771325,-0.014696370433493052,0.024898692576025908,-0.11508090222412412,-1.6357492469787598,3.0685989021110536,-9.014174762172699
2026-09-11T16:21:29.854,3.5086747200000445,-179.22596740722656,-16130.33706665039,-64521.34826660156,-122.7697876739502,-4.112811660766602,-3.4499289989471436,-2.3632013642787935,-5.286330897187703,-3.755325696733118,0.0,-0.07949638366699219,-651.234375,-28.618698120117188,-0.15258795022964478,-54.93166208267212,2465.5961222369456,1,1789158089.0516772,38.99074863333333,-76.93779918833333,11.229999999999997,0,1,16.621928999999998,62.948356000000004,204.26126399999998,1,1,1789158089.8491883,0.9900958241995131,-0.13030327963606772,0.04092391892394407,0.03250457011988151,176.90930465904353,-5.135309467435677,-14.856212548599174,-0.013704674352509875,0.07711021714943628,-0.13476856525247055,0.5029830867958069,1.398134113559723,-10.076234974689484
2026-09-11T16:21:29.886,3.542094112000086,-179.3417510986328,-16140.757598876953,-64563.03039550781,-122.84909950256349,-4.192123489379883,-3.4771435260772705,-2.3818433153629304,-5.328031754122512,-0.5578183793443546,0.0,-0.08667945861816406,-710.078125,-31.204605102539062,-0.12207037210464478,-43.94533395767212,328.7411130934493,1,1789158089.0516772,38.99074863333333,-76.93779918833333,11.229999999999997,0,1,16.621928999999998,62.948356000000004,204.26126399999998,1,1,1789158089.8821883,0.990219543830327,-0.12904695420681658,0.04239372390163872,0.031857664700268275,176.997840632028,-5.289059655678574,-14.711361201195176,-0.025903304093473842,0.014825001199365034,-0.12999002829343526,0.9092726029968261,0.5535854016304016,-9.352798392257691
2026-09-11T16:21:29.919,3.575516576000041,-179.45668029785156,-16151.10122680664,-64604.40490722656,-122.92782600402833,-4.270849990844727,-3.426058530807495,-2.3468500936031345,-5.2497541463921165,1.0469970663995118,0.0,-0.08811187744140625,-721.8125,-31.72027587890625,-0.0457763709127903,-16.479493528604507,821.7778446587541,1,1789158089.0516772,38.99074863333333,-76.93779918833333,11.229999999999997,0,1,16.621928999999998,62.948356000000004,204.26126399999998,1,1,1789158089.9101882,0.990427572936354,-0.12722566042866748,0.04356209401605298,0.031131945985258463,177.0875798238029,-5.405953674632695,-14.502193521240988,0.002481160064635139,0.04806025894754185,-0.1683574267071014,0.7184351908493043,-0.06089929750442505,-8.542671022396089
2026-09-11T16:21:29.952,3.6089237120000917,-179.57254028320312,-16161.528625488281,-64646.114501953125,-123.00719009399415,-4.350214080810547,-3.4277803897857666,-2.3480295670032505,-5.252392553246349,-0.03530603162492727,0.0,-0.08987617492675781,-736.265625,-32.35542297363281,0.0,0.0,493.2926165409533,1,1789158089.0516772,38.99074863333333,-76.93779918833333,11.229999999999997,0,1,16.621928999999998,62.948356000000004,204.26126399999998,1,1,1789158089.9421883,0.9908092558756774,-0.12549363345172118,0.04177006202755665,0.028348339499614617,177.37048670541083,-5.157129353933403,-14.318591241761009,-0.009583951988551264,-0.028562313208887205,-0.1641468198866651,-0.47807419538497925,-0.52004665807724,-8.939153888435364
2026-09-11T16:21:29.986,3.642327392000084,-179.6898193359375,-16172.083740234375,-64688.3349609375,-123.0875262451172,-4.430550231933594,-3.5332040786743164,-2.4202447938919067,-5.413933415112527,-2.1618943448348555,0.0,-0.09037017822265625,-740.3125,-32.53326416015625,-0.015258795581758022,-5.493166409432888,-164.4479413476053,1,1789158089.0516772,38.99074863333333,-76.93779918833333,11.229999999999997,0,1,16.621928999999998,62.948356000000004,204.26126399999998,1,1,1789158089.9821882,0.9910825053611536,-0.12333940877949581,0.04147678328820467,0.028679858037420316,177.31736488546557,-5.122678769003791,-14.067854820309508,-0.012205611057971945,-0.04922578982202367,-0.16221282054253017,-0.21809989959716797,1.2185743490982055,-9.966302426376343
2026-09-11T16:21:30.019,3.6757326080000894,-179.80921936035156,-16182.82974243164,-64731.31896972656,-123.16931526184084,-4.512339248657227,-3.586446762084961,-2.4567160320281984,-5.495517251315756,-1.0917827364530628,0.0,-0.09245872497558594,-757.421875,-33.28514099121094,-0.015258795581758022,-5.493166409432888,0.0,1,1789158089.0516772,38.99074863333333,-76.93779918833333,11.229999999999997,0,1,16.621928999999998,62.948356000000004,204.26126399999998,1,1,1789158090.0101883,0.991284152415851,-0.12179337631318718,0.04053292412459094,0.029651049177600253,177.1856097992171,-5.024510363837227,-13.885488270648322,0.0013643238762839674,-0.027554909164636078,-0.18733404259818537,1.2732954570007324,0.585947347164154,-11.763076869010925
2026-09-11T16:21:30.055,3.7091496320000488,-179.9326934814453,-16193.942413330078,-64775.76965332031,-123.25389503479005,-4.596919021606445,-3.664794683456421,-2.5103843581676486,-5.615569877790904,-1.6060175238679362,0.0,-0.09391212463378906,-769.328125,-33.80836486816406,-0.015258791856467724,-5.493165068328381,4.0132374069214516e-05,1,1789158090.0435343,38.99074193333333,-76.93779097333334,11.173000000000002,0,1,29.116816,85.17444099999999,209.786256,1,1,1789158090.0501883,0.9915570560029656,-0.11886590097652205,0.04120456820278005,0.031427469433501866,176.97688796558586,-5.116703477989896,-13.536659631272318,-0.01837238290404351,-0.09042358868364901,-0.18346674204161634,-0.5980095268630982,1.0772605202674865,-10.673852235546113
2026-09-11T16:21:30.087,3.742591872000048,-180.0588836669922,-16205.299530029297,-64821.19812011719,-123.34033531188966,-4.683359298706055,-3.7689478397369385,-2.581729270219803,-5.775163900813798,-2.133377191604265,0.0,-0.09402656555175781,-770.265625,-33.84956359863281,0.0,0.0,164.25828737334817,1,1789158090.0435343,38.99074193333333,-76.93779097333334,11.173000000000002,0,1,29.116816,85.17444099999999,209.786256,1,1,1789158090.0821881,0.991748678670876,-0.11644070618468806,0.04167011363675201,0.03375976787957541,176.70400617870538,-5.1932113386054395,-13.243305411375504,0.0406618082483379,-0.06523901117614644,-0.19944383508022281,0.7112763362312317,1.643692633609772,-9.462829007072449
2026-09-11T16:21:30.120,3.776022495999996,-180.1845245361328,-16216.607208251953,-64866.42883300781,-123.42639930725099,-4.7694232940673835,-3.7691445350646973,-2.581864006519318,-5.7754652973320395,-0.004030325593533072,0.0,-0.09402656555175781,-770.265625,-33.84956359863281,0.0,0.0,0.0,1,1789158090.0435343,38.99074193333333,-76.93779097333334,11.173000000000002,0,1,29.116816,85.17444099999999,209.786256,1,1,1789158090.1101882,0.9920783041094969,-0.11435038051175236,0.03967372602736089,0.033624759555244334,176.68302589472984,-4.957046654412105,-13.006571866489573,-0.026115361597591154,-0.044819880658289186,-0.19444957542564104,0.8532766305732727,1.279767846107483,-10.597262297782898
2026-09-11T16:21:30.153,3.8094275199999856,-180.3116455078125,-16228.048095703125,-64912.1923828125,-123.51347717285157,-4.856501159667969,-3.821655035018921,-2.617833698987961,-5.8559272078291835,-1.0767749326764178,0.0,-0.09402656555175781,-770.265625,-33.84956359863281,0.0,0.0,0.0,1,1789158090.0435343,38.99074193333333,-76.93779097333334,11.173000000000002,0,1,29.116816,85.17444099999999,209.786256,1,1,1789158090.1501882,0.9923996366833915,-0.11141649520956283,0.03874215569657957,0.035048125169143574,176.49416243702797,-4.859077595429453,-12.662726842860488,-0.00944013685818693,-0.08792008840458836,-0.20862095082013418,-0.6917611024093628,0.5483878770446777,-9.591296124191285
2026-09-11T16:21:30.187,3.842833408000047,-180.44192504882812,-16239.773254394531,-64959.093017578125,-123.60271865844727,-4.945742645263672,-3.874504327774048,-2.654035464525223,-5.936908250995929,-1.0836941540723566,0.0,-0.09341812133789062,-765.28125,-33.630523681640625,0.015258789993822575,5.493164397776127,164.4370117557141,1,1789158090.0435343,38.99074193333333,-76.93779097333334,11.173000000000002,0,1,29.116816,85.17444099999999,209.786256,1,1,1789158090.1821883,0.9926598709857499,-0.10889177308030429,0.040656641889703846,0.03340658258838145,176.69264532415022,-5.04808947769306,-12.374452239411985,0.02204420658438918,-0.06060044962312112,-0.2087523741128094,0.5648630493164062,0.6392955240440369,-11.775040982208251
2026-09-11T16:21:30.220,3.8762387840000656,-180.57000732421875,-16251.300659179688,-65005.20263671875,-123.69045501708986,-5.03347900390625,-3.875748634338379,-2.6548878145217896,-5.938814903636781,-0.025515354072529844,0.0,-0.09143257141113281,-749.015625,-32.91572570800781,-0.1525879055261612,-54.93164598941803,-1808.834912894264,1,1789158090.0435343,38.99074193333333,-76.93779097333334,11.173000000000002,0,1,29.116816,85.17444099999999,209.786256,1,1,1789158090.2101882,0.9929832102783456,-0.1069871560475401,0.04037422239898036,0.030133282460560237,177.05382103885003,-4.969739690667948,-12.171130938653738,0.19322313256026463,-0.04960173374290325,-0.1964012025952211,-2.2177739340782163,-0.5528008696174622,-5.212921026477813
2026-09-11T16:21:30.255,3.909654400000022,-180.6988525390625,-16262.896728515625,-65051.5869140625,-123.77871398925782,-5.121737976074219,-3.7473700046539307,-2.5669484531879427,-5.742100154769013,2.6316845792686006,0.0,-0.08854103088378906,-725.328125,-31.874771118164062,0.1678466945886612,60.42481005191803,3452.1720635491497,1,1789158090.0435343,38.99074193333333,-76.93779097333334,11.173000000000002,0,1,29.116816,85.17444099999999,209.786256,1,1,1789158090.2501884,0.9933898293728223,-0.10436224613279443,0.03770030752686026,0.029391415296530422,177.0943164527064,-4.648169968240494,-11.876658099789795,0.20287724678474606,-0.07153546098564119,-0.21913289437197084,-1.0138114937210083,-0.5309320397567749,-2.6491684746932984
2026-09-11T16:21:30.287,3.9430746560000216,-180.82740783691406,-16274.466705322266,-65097.86682128906,-123.86677436828614,-5.2097983551025395,-3.852327585220337,-2.638844395875931,-5.902926798219237,-2.1512684608995634,0.0,-0.0826873779296875,-677.375,-29.7674560546875,0.2136230766773224,76.90430760383606,493.0990819435468,1,1789158090.0435343,38.99074193333333,-76.93779097333334,11.173000000000002,0,1,29.116816,85.17444099999999,209.786256,1,1,1789158090.2821882,0.9937742401225667,-0.10186556823881247,0.03534560754109082,0.028050912707973955,177.20903604935293,-4.356725676015047,-11.598997703669687,-0.09377828603890732,-0.1003660313005599,-0.14894971449077488,-2.1605030971336365,1.0088101021385194,-14.450785478839874
2026-09-11T16:21:30.320,3.976486016000081,-180.95765686035156,-16286.18911743164,-65144.75646972656,-123.95599494934083,-5.299018936157227,-3.90494441986084,-2.6748869276046756,-5.983551645500789,-1.078750811959791,0.0,-0.07662200927734375,-627.6875,-27.58392333984375,0.2593994438648224,93.38379979133606,493.23021234307174,1,1789158090.0435343,38.99074193333333,-76.93779097333334,11.173000000000002,0,1,29.116816,85.17444099999999,209.786256,1,1,1789158090.3101883,0.9938075361907335,-0.1018048891720815,0.03522942813760008,0.02722559355205941,177.30177289920536,-4.333740525547291,-11.595755964861503,0.0652210342848509,-0.028999867252362182,-0.11287759857640647,0.5283823107147216,1.4091175617408753,-9.209327100391388
2026-09-11T16:21:30.354,4.009892992000005,-181.08995056152344,-16298.09555053711,-65192.38220214844,-124.04661613464357,-5.389640121459961,-4.01092529296875,-2.747483825683594,-6.145946281504095,-2.1731059428750386,0.0,-0.06291389465332031,-515.390625,-22.649002075195312,0.3662109673023224,131.83594822883606,1151.0215242944375,1,1789158090.0435343,38.99074193333333,-76.93779097333334,11.173000000000002,0,1,29.116816,85.17444099999999,209.786256,1,1,1789158090.3501883,0.9937521581531442,-0.10171336556586634,0.03663112790572285,0.027734453295268094,177.25918785527247,-4.499273442826397,-11.5803809928747,0.015536048336627525,-0.012510520078295354,-0.116902851430281,-0.9541870607376098,1.9338714118957518,-11.392973891906736
2026-09-11T16:21:30.388,4.043321792000029,-181.22828674316406,-16310.545806884766,-65242.18322753906,-124.1413764190674,-5.48440040588379,-4.089962959289551,-2.8016246271133425,-6.267055805103211,-1.6195855498764353,0.0,-0.06235504150390625,-510.8125,-22.44781494140625,0.1220703199505806,43.945315182209015,-2629.1889941177465,1,1789158090.0435343,38.99074193333333,-76.93779097333334,11.173000000000002,0,1,29.116816,85.17444099999999,209.786256,1,1,1789158090.3821883,0.9936334835475881,-0.10188046899089509,0.03786693964198587,0.029647348843200645,177.05533834549453,-4.662873453498865,-11.588613877898055,-0.010816678039234858,0.08058761115110978,-0.11203093935626401,-0.11071708032608032,1.615351414642334,-9.93168495130539
2026-09-11T16:21:30.426,4.0767269120000265,-181.37110900878906,-16323.399810791016,-65293.59924316406,-124.23920967102052,-5.582233657836914,-4.221405029296875,-2.8916624450683597,-6.468464667744176,-2.695329876229261,0.0,-0.061981201171875,-507.75,-22.313232421875,0.0,0.0,-1315.526337944966,1,1789158090.0435343,38.99074193333333,-76.93779097333334,11.173000000000002,0,1,29.116816,85.17444099999999,209.786256,1,1,1789158090.4221883,0.9935075741864877,-0.10124521480570098,0.039880064351969634,0.03319167034529665,176.6696952515714,-4.9314199442795585,-11.49404149835048,-0.042072208816874505,0.12173339920102569,-0.10477159139844401,-0.7971825916481018,2.413318538303375,-11.125350408992768
2026-09-11T16:21:30.456,4.11014572800002,-181.5165252685547,-16336.487274169922,-65345.94909667969,-124.33881980895997,-5.681843795776367,-4.352375507354736,-2.9813772225379944,-6.669150909399586,-2.68455882666971,0.0,-0.06093788146972656,-499.203125,-21.937637329101562,0.0915527418255806,32.958987057209015,986.2404178895795,1,1789158090.0435343,38.99074193333333,-76.93779097333334,11.173000000000002,0,1,29.116816,85.17444099999999,209.786256,1,1,1789158090.4501882,0.9933393331842929,-0.10066070304382388,0.04286533775550179,0.036151830255386375,176.36133048515563,-5.3038669295142045,-11.404114184340083,-0.0656790086805742,0.15545525474465852,-0.08889694918692959,-0.17132217832565308,1.9708424830055238,-9.039770119094849
2026-09-11T16:21:30.487,4.143556512000032,-181.66806030273438,-16350.125427246094,-65400.501708984375,-124.44262130737306,-5.785645294189454,-4.536191463470459,-3.1072911524772646,-6.950812348955935,-3.7686613381843057,0.0,-0.05531120300292969,-453.109375,-19.912033081054688,0.2593994438648224,93.38379979133606,1808.5421980551614,1,1789158090.0435343,38.99074193333333,-76.93779097333334,11.173000000000002,0,1,29.116816,85.17444099999999,209.786256,1,1,1789158090.4821882,0.9933459792337552,-0.10043581898077975,0.04161081099380897,0.038012527069764754,176.1332515006354,-5.18106758230142,-11.371936422620307,-0.055432704240891105,0.06361533137301612,-0.0365065283651898,-2.181979660987854,0.38706848188400267,-9.455277886447906
2026-09-11T16:21:30.520,4.176966848000006,-181.81890869140625,-16363.701782226562,-65454.80712890625,-124.5459524536133,-5.888976440429688,-4.536901950836182,-3.107777836322785,-6.951901029712736,-0.014566864742712236,0.0,-0.03866767883300781,-316.765625,-13.920364379882812,0.5340576767921448,192.26076364517212,2959.472297851529,1,1789158090.0435343,38.99074193333333,-76.93779097333334,11.173000000000002,0,1,29.116816,85.17444099999999,209.786256,1,1,1789158090.5101883,0.9933367137631512,-0.10116107194766791,0.04074671169775124,0.03726011404225916,176.21350120818565,-5.076683766600647,-11.461948267745589,-0.06306049120380712,0.056253183522253634,0.011187385972358452,-0.201526660823822,0.7437363482666016,-9.474106654758453
2026-09-11T16:21:30.554,4.210369856000057,-181.9691619873047,-16377.224578857422,-65508.89831542969,-124.64887596130372,-5.991899948120118,-4.484645366668701,-3.0719820761680605,-6.871828194720958,1.071632834823452,0.0,-0.019285202026367188,-157.984375,-6.9426727294921875,0.5035400986671448,181.27443552017212,-328.9023588828729,1,1789158090.0435343,38.99074193333333,-76.93779097333334,11.173000000000002,0,1,29.116816,85.17444099999999,209.786256,1,1,1789158090.5501883,0.9932256842176871,-0.1030593452181953,0.039922652564851405,0.03588444489873252,176.37119660517345,-4.9738382541669015,-11.690220912947694,0.0014206980111233843,-0.023985885377232872,0.077256999339529,-0.9514411986923217,0.7380484911727905,-9.281994378089905
2026-09-11T16:21:30.589,4.243786848000013,-182.12228393554688,-16391.00555419922,-65564.02221679688,-124.75376449584962,-6.096788482666016,-4.510895729064941,-3.0899635744094853,-6.912051660722714,-0.5380944592932868,0.0,-0.01021575927734375,-83.6875,-3.67767333984375,0.13732916116714478,49.43849802017212,-3945.1766783847775,1,1789158090.0435343,38.99074193333333,-76.93779097333334,11.173000000000002,0,1,29.116816,85.17444099999999,209.786256,1,1,1789158090.5821092,0.9931336038535536,-0.10515201180562694,0.0375564375466758,0.034902912613200415,176.46630669189565,-4.699933005981342,-11.94274609471296,-0.04704587358628275,0.005457120972210671,0.11553748035644583,-2.4294014445686343,-0.15720060209274292,-10.36621761997223
2026-09-11T16:21:30.622,4.277211776000058,-182.27157592773438,-16404.441833496094,-65617.76733398438,-124.85602951049806,-6.199053497314454,-4.459720611572266,-3.0549086189270023,-6.833635958587596,1.0487668210515197,0.0,0.0006999970646575093,5.734375953674316,0.25199894327670336,0.24414068460464478,87.89064645767212,1150.4033288403289,1,1789158090.0435343,38.99074193333333,-76.93779097333334,11.173000000000002,0,1,29.116816,85.17444099999999,209.786256,1,1,1789158090.6101093,0.9929391233358266,-0.10755689182078598,0.037419940120995664,0.0332138593402391,176.6691124538199,-4.672273296431634,-12.228622316282241,0.043522926491132194,-0.0007342600163140145,0.12252769854360832,-2.3545767038345335,-1.3979379805564882,-7.060297783946991
2026-09-11T16:21:30.655,4.310632352000084,-182.42080688476562,-16417.872619628906,-65671.49047851562,-124.95825271606446,-6.30127670288086,-4.461320400238037,-3.0560044741630557,-6.836087316935962,-0.03278983689726139,0.0,-0.0072784423828125,-59.625,-2.6202392578125,-0.4577637016773224,-164.79493260383606,-7560.778696971361,1,1789158090.0435343,38.99074193333333,-76.93779097333334,11.173000000000002,0,1,29.116816,85.17444099999999,209.786256,1,1,1789158090.6501093,0.9925666082378619,-0.11034033742623799,0.041009267059583,0.030899484835292382,176.99091210771454,-5.06166060125856,-12.553641436229128,0.005739864311033752,0.028788856945796068,0.10528244927050275,0.999886050491333,-0.30557521903991697,-9.237079920349121
2026-09-11T16:21:30.688,4.344038016000013,-182.56410217285156,-16430.76919555664,-65723.07678222656,-125.05640998840333,-6.399433975219727,-4.332657337188721,-2.967870275974274,-6.638936730436361,2.638301043468826,0.0,-0.02935791015625,-240.5,-10.56884765625,-0.5798340439796448,-208.74025583267212,-1315.5051559199521,1,1789158090.0435343,38.99074193333333,-76.93779097333334,11.173000000000002,0,1,29.116816,85.17444099999999,209.786256,1,1,1789158090.6821094,0.9923567764114963,-0.11136001258255365,0.04425636698538252,0.029467777131161027,177.2001907073893,-5.416745447759075,-12.673157556261101,-0.026453257340777254,0.08184093208696691,0.03306124842175298,3.3198452792549134,-1.1559098545646669,-11.447891132812499
2026-09-11T16:21:30.723,4.377482496000084,-182.70382690429688,-16443.34442138672,-65773.37768554688,-125.15212142944337,-6.495145416259766,-4.151582717895508,-2.843834161758423,-6.361475845021519,3.708717080235296,0.0,-0.0517120361328125,-423.625,-18.6163330078125,-0.9307861924171448,-335.0830292701721,-3777.6868839710346,1,1789158090.0435343,38.99074193333333,-76.93779097333334,11.173000000000002,0,1,29.116816,85.17444099999999,209.786256,1,1,1789158090.7101092,0.9924287909828992,-0.11118582834855249,0.04459578131002307,0.02709285315384279,177.47496302087237,-5.424899689674489,-12.665198500912165,0.022955792052705818,0.06348757327177014,-0.04531921935728476,0.14886494945526124,-1.256133819217682,-10.06074046743393
2026-09-11T16:21:30.755,4.410905024000044,-182.8379669189453,-16455.417022705078,-65821.66809082031,-125.24400733947755,-6.587031326293946,-4.0223774909973145,-2.7553285813331607,-6.16349450011891,2.648081570172309,0.0,-0.06623649597167969,-542.609375,-23.845138549804688,-0.015258789993822575,-5.493164397776127,9861.30866201354,1,1789158090.0435343,38.99074193333333,-76.93779097333334,11.173000000000002,0,1,29.116816,85.17444099999999,209.786256,1,1,1789158090.7501092,0.992448786945979,-0.10944042703934977,0.04861390896455579,0.026549690658936916,177.57683508151712,-5.871909449881516,-12.461224191337195,-0.03708580314392671,0.07247916051219452,-0.12127839186503077,1.7543116474342346,-0.5838879506301881,-9.610321025505066
2026-09-11T16:21:30.788,4.44431484800009,-182.97047424316406,-16467.342681884766,-65869.37072753906,-125.33477485656739,-6.67779884338379,-3.998634099960327,-2.7390643584728243,-6.127112469740563,0.4868095940976576,0.0,-0.08816146850585938,-722.21875,-31.738128662109375,-0.4272461533546448,-153.80861520767212,-4439.276627428291,1,1789158090.0435343,38.99074193333333,-76.93779097333334,11.173000000000002,0,1,29.116816,85.17444099999999,209.786256,1,1,1789158090.7821093,0.9926944299798375,-0.10677113227788672,0.05023091089150808,0.025190267765801334,177.73594820493363,-6.033335799389494,-12.158582175285561,-0.03454949067492855,0.07675818423930902,-0.1618904582296868,1.5464106640052795,0.14886494945526124,-7.212889260463714
2026-09-11T16:21:30.821,4.477721056000064,-183.1002960205078,-16479.026641845703,-65916.10656738281,-125.42370277404787,-6.766726760864258,-3.8968448638916016,-2.6693387317657473,-5.971140684873265,2.0872056686928158,0.0,-0.09554290771484375,-782.6875,-34.39544677734375,-0.0610351599752903,-21.972657591104507,3946.450839816072,1,1789158090.0435343,38.99074193333333,-76.93779097333334,11.173000000000002,0,1,29.116816,85.17444099999999,209.786256,1,1,1789158090.8101091,0.9929349675452551,-0.1038736710544117,0.051884048755780315,0.02446336387929592,177.82079211250445,-6.206790098725214,-11.826128612398644,0.011700687305369986,0.12251268871204116,-0.21045511733105504,7.763238467540741,-3.70485436460495,-13.513465856380463
2026-09-11T16:21:30.855,4.511130144000049,-183.22933959960938,-16490.640563964844,-65962.56225585938,-125.51209762573244,-6.855121612548829,-3.924673080444336,-2.68840106010437,-6.013781898944988,-0.5705731428116655,0.0,-0.10096931457519531,-827.140625,-36.34895324707031,0.0305175818502903,10.986329466104507,986.5275896553636,1,1789158090.0435343,38.99074193333333,-76.93779097333334,11.173000000000002,0,1,29.116816,85.17444099999999,209.786256,1,1,1789158090.8501093,0.993276416943757,-0.09957168530262613,0.05271861758360561,0.026611771632868743,177.55697389029888,-6.316922561617392,-11.314231372396003,-0.029442657283593146,0.09403991089378128,-0.24030356366573688,-1.789909787521362,2.7003591885375977,-10.273642842445373
2026-09-11T16:21:30.890,4.544550464000054,-183.36355590820312,-16502.72003173828,-66010.88012695312,-125.60403579711915,-6.947059783935547,-4.029547214508057,-2.760239841938019,-6.174480677205655,-2.149553978945709,0.0,-0.09830474853515625,-805.3125,-35.38970947265625,0.1068115383386612,38.45215380191803,821.8300822915412,1,1789158090.0435343,38.99074193333333,-76.93779097333334,11.173000000000002,0,1,29.116816,85.17444099999999,209.786256,1,1,1789158090.8821092,0.9936126024123383,-0.09581578119745737,0.05173309912225003,0.029614504150993155,177.1783312271772,-6.22772424647225,-10.862667853206402,0.02027758431552052,0.08574959694680821,-0.22121803922932848,0.9056441424369812,1.940638000507355,-9.699953807983398
2026-09-11T16:21:30.922,4.577972032000048,-183.50131225585938,-16515.118103027344,-66060.47241210938,-125.69839889526368,-7.041422882080079,-4.10889196395874,-2.8145909953117374,-6.2960607447023405,-1.6262299056024985,0.0,-0.09543800354003906,-781.828125,-34.35768127441406,0.1068115383386612,38.45215380191803,0.0,1,1789158090.0435343,38.99074193333333,-76.93779097333334,11.173000000000002,0,1,29.116816,85.17444099999999,209.786256,1,1,1789158090.9101093,0.9938473137382293,-0.09266460393465593,0.05189010583701602,0.03143572918133591,176.9513098445407,-6.255808165158004,-10.486878739954312,-0.01980861434550964,0.055830639310345806,-0.21604802491907088,-3.1540148250198365,1.5453319324874877,-9.276992986507416
2026-09-11T16:21:30.956,4.611394816000029,-183.6415557861328,-16527.740020751953,-66110.96008300781,-125.79446571350098,-7.137489700317383,-4.161891460418701,-2.8508956503868106,-6.377271945210289,-1.086224746421291,0.0,-0.09023284912109375,-739.1875,-32.48382568359375,0.1525879055261612,54.93164598941803,493.06162489364317,1,1789158090.0435343,38.99074193333333,-76.93779097333334,11.173000000000002,0,1,29.116816,85.17444099999999,209.786256,1,1,1789158090.9501092,0.9940377011382441,-0.08912742210673656,0.05262316117209859,0.03429510537464914,176.6081276758254,-6.357518538450607,-10.058680165458682,-0.01280164099752801,0.0110187871666158,-0.17410531953269434,-1.0447024417304993,1.659873606376648,-9.159803517074584
2026-09-11T16:21:30.988,4.644799904000024,-183.7842559814453,-16540.583038330078,-66162.33215332031,-125.89221534729005,-7.235239334106446,-4.266585350036621,-2.9226109647750858,-6.5376945346615125,-2.146838062162445,0.0,-0.08443260192871094,-691.671875,-30.395736694335938,0.3051758110523224,109.86329197883606,1644.4095578920878,1,1789158090.0435343,38.99074193333333,-76.93779097333334,11.173000000000002,0,1,29.116816,85.17444099999999,209.786256,1,1,1789158090.9821093,0.9941557884029706,-0.08750238901443069,0.05194448309505108,0.03604678872830804,176.390216422519,-6.291691636399605,-9.861593620947806,-0.02063747120728175,0.025588795762264464,-0.16430355045349418,0.19485813871383667,0.7768828258132935,-8.56512825126648
2026-09-11T16:21:31.023,4.678207359999988,-183.9279022216797,-16553.511199951172,-66214.04479980469,-125.99061302185059,-7.333637008666993,-4.318174362182617,-2.957949438095093,-6.616744448136832,-1.057801986480073,0.0,-0.06421279907226562,-526.03125,-23.116607666015625,0.7629395127296448,274.6582245826721,4932.878834114635,1,1789158090.0435343,38.99074193333333,-76.93779097333334,11.173000000000002,0,1,29.116816,85.17444099999999,209.786256,1,1,1789158091.0101092,0.9944479209311707,-0.0859634946623078,0.0492292912169343,0.035497704536967496,176.4180399565814,-5.9704163665499035,-9.694268759354044,0.03595570245326038,-0.007272786993060372,-0.09290893753848894,-2.29897299741745,0.9818418141937256,-10.60442115240097
2026-09-11T16:21:31.056,4.71162473600009,-184.07479858398438,-16566.731872558594,-66266.92749023438,-126.0912370300293,-7.434261016845704,-4.344440460205078,-2.9759417152404786,-6.656992025860046,-0.5384108299027051,0.0,-0.0587615966796875,-481.375,-21.1541748046875,-0.2746582329273224,-98.87696385383606,-11177.873105158402,1,1789158091.0509694,38.990733346666666,-76.93777847166666,11.055999999999997,0,1,16.613775999999998,33.907329000000004,104.59152900000001,1,1,1789158091.0501091,0.994803835975352,-0.08496133685055272,0.04420717060385365,0.034534406560609264,176.47584869267223,-5.383586113247676,-9.597273131049342,0.035911196557334525,-0.06739850705963903,-0.056216008009186164,-1.8969003407859801,0.5317165717697143,-10.06760512254715
2026-09-11T16:21:31.089,4.745046623999997,-184.2191925048828,-16579.727325439453,-66318.90930175781,-126.19014686584474,-7.533170852661133,-4.346141815185547,-2.9771071434020997,-6.659599014410559,-0.03487020726131238,0.0,-0.055866241455078125,-457.65625,-20.111846923828125,0.1678466945886612,60.42481005191803,4766.390633174193,1,1789158091.0509694,38.990733346666666,-76.93777847166666,11.055999999999997,0,1,16.613775999999998,33.907329000000004,104.59152900000001,1,1,1789158091.0821092,0.9949659445280791,-0.08458352027930832,0.042109831227075234,0.03339400306243917,176.58504341124822,-5.131671146138035,-9.56515400749622,-0.031156396076126375,-0.04518779606460959,-0.0481106989629245,-1.0165573557662964,-0.8689672708320617,-8.602981920890809
2026-09-11T16:21:31.122,4.778450496000005,-184.3614959716797,-16592.534637451172,-66370.13854980469,-126.28762474060059,-7.630648727416993,-4.321566581726074,-2.9602731084823612,-6.6219423507568855,0.5039545990277532,0.0,-0.054882049560546875,-449.59375,-19.757537841796875,0.0762939602136612,27.46582567691803,-986.6815552098888,1,1789158091.0509694,38.990733346666666,-76.93777847166666,11.055999999999997,0,1,16.613775999999998,33.907329000000004,104.59152900000001,1,1,1789158091.1101093,0.9951761653063431,-0.08436625001908095,0.040025778010324024,0.030077781808977765,176.9444884438419,-4.861102768435447,-9.56162225545009,0.03825534827568811,-0.07603858498871176,-0.050341927878674045,-1.0218529468536377,0.9997879839897156,-17.836139181175234
2026-09-11T16:21:31.157,4.811854560000029,-184.50042724609375,-16605.038452148438,-66420.15380859375,-126.38279266357422,-7.725816650390626,-4.218808174133301,-2.8898835992813114,-6.46448550304516,2.1072139366335594,0.0,-0.05513191223144531,-451.640625,-19.847488403320312,0.0,0.0,-822.2300638897815,1,1789158091.0509694,38.990733346666666,-76.93777847166666,11.055999999999997,0,1,16.613775999999998,33.907329000000004,104.59152900000001,1,1,1789158091.1501093,0.9951364933526754,-0.08401884032990559,0.041653389469973066,0.030152764599964594,176.9493226154843,-5.046742311396138,-9.517539098363107,0.038036833053338416,-0.021654474562418844,-0.06662689699733233,0.5189679265594482,2.053904809875488,-15.903542633800507
2026-09-11T16:21:31.190,4.845270400000004,-184.63897705078125,-16617.507934570312,-66470.03173828125,-126.47769927978517,-7.820723266601563,-4.141695022583008,-2.8370610904693607,-6.346324916046344,1.580762560869039,0.0,-0.05652618408203125,-463.0625,-20.34942626953125,-0.0610351637005806,-21.972658932209015,-657.5521947742562,1,1789158091.0509694,38.990733346666666,-76.93777847166666,11.055999999999997,0,1,16.613775999999998,33.907329000000004,104.59152900000001,1,1,1789158091.1821094,0.9953322542229239,-0.08363157386935043,0.03909814597729145,0.0281211403891526,177.1564272510674,-4.734288109440841,-9.488280430113665,0.03344766431814453,-0.08587403892247539,-0.056003252373368055,-2.0987212011146545,1.2994792129325865,-8.700165823993682
2026-09-11T16:21:31.224,4.878683679999995,-184.77932739257812,-16630.13946533203,-66520.55786132812,-126.57383926391603,-7.916863250732423,-4.195213794708252,-2.873721449375153,-6.42833180336245,-1.0971792923592762,0.0,-0.056671142578125,-464.25,-20.401611328125,-0.015258791856467724,-5.493165068328381,493.20192043059643,1,1789158091.0509694,38.990733346666666,-76.93777847166666,11.055999999999997,0,1,16.613775999999998,33.907329000000004,104.59152900000001,1,1,1789158091.2221093,0.9953969305709616,-0.0836710262065296,0.03835006567211659,0.026709220250668953,177.3113593887531,-4.635508395536315,-9.500899427094911,-0.011863177458730658,-0.0711954708473527,-0.06275453498593252,-0.3349951695251465,0.7541313974380492,-12.271355546894075
2026-09-11T16:21:31.256,4.912095743999998,-184.9184112548828,-16642.657012939453,-66570.62805175781,-126.66911170959473,-8.012135696411134,-4.170569896697998,-2.856840379238129,-6.390569924924225,0.5052387705537138,0.0,-0.057331085205078125,-469.65625,-20.639190673828125,-0.0457763746380806,-16.479494869709015,-328.81326341824933,1,1789158091.0509694,38.990733346666666,-76.93777847166666,11.055999999999997,0,1,16.613775999999998,33.907329000000004,104.59152900000001,1,1,1789158091.2501092,0.9954231993249867,-0.08357468247381056,0.039108444606983137,0.024868780738751633,177.52874097833288,-4.704438078995018,-9.49694744831166,0.02535736510345002,-0.01556536986806103,-0.06535699543358126,1.2943797548484801,0.15661220308303833,-10.008667155075074
2026-09-11T16:21:31.290,4.945502944000054,-185.05596923828125,-16655.037231445312,-66620.14892578125,-126.76333892822267,-8.106362915039064,-4.171805381774902,-2.8576866865158084,-6.392463060387897,-0.02533308022456255,0.0,-0.05885887145996094,-482.171875,-21.189193725585938,-0.0457763746380806,-16.479494869709015,0.0,1,1789158091.0509694,38.990733346666666,-76.93777847166666,11.055999999999997,0,1,16.613775999999998,33.907329000000004,104.59152900000001,1,1,1789158091.2821093,0.9955193384535269,-0.08313810328941675,0.03778832594745739,0.02452233611585669,177.5540985780311,-4.549221722024172,-9.450482271744457,0.051894921847098596,-0.023672773309425087,-0.08001269969550284,-0.10179302867889405,-0.1536702080345154,-10.171457547760008
2026-09-11T16:21:31.324,4.978919232000067,-185.1951446533203,-16667.563018798828,-66670.25207519531,-126.85867408752442,-8.20169807434082,-4.095170021057129,-2.8051914644241336,-6.275034592931573,1.5709471408570475,0.0,-0.0609588623046875,-499.375,-21.9451904296875,-0.0915527418255806,-32.958987057209015,-493.1574742082064,1,1789158091.0509694,38.990733346666666,-76.93777847166666,11.055999999999997,0,1,16.613775999999998,33.907329000000004,104.59152900000001,1,1,1789158091.3221092,0.9956755532913213,-0.08182254911724751,0.038114060836819987,0.021967735443242924,177.84360140452836,-4.559446348433515,-9.309928049000037,0.012652938945258093,0.02173615597141218,-0.10745590778801128,-0.7329490330886841,0.0483467852973938,-7.6283970278167725
2026-09-11T16:21:31.357,5.012335775999986,-185.33200073242188,-16679.88006591797,-66719.52026367188,-126.952420501709,-8.29544448852539,-4.070828437805176,-2.7885174798965457,-6.237735951808658,0.4989739372099018,0.0,-0.06416893005371094,-525.671875,-23.100814819335938,-0.030517593026161194,-10.98633348941803,657.5381813225151,1,1789158091.0509694,38.990733346666666,-76.93777847166666,11.055999999999997,0,1,16.613775999999998,33.907329000000004,104.59152900000001,1,1,1789158091.3501093,0.9957988906311623,-0.0803793056924313,0.038476296113741426,0.021054958359417928,177.9447838190636,-4.589374585756003,-9.147274377081096,0.02134520221896545,0.007126179335892847,-0.1180697785681644,-0.4970010301971436,-0.568001177368164,-11.228810568199156
2026-09-11T16:21:31.389,5.045739487999981,-185.4657745361328,-16691.919708251953,-66767.67883300781,-127.04405555725099,-8.387079544067383,-4.098541736602783,-2.8075010895729067,-6.280201077247905,-0.5683083866955826,0.0,-0.06548309326171875,-536.4375,-23.57391357421875,-0.015258789993822575,-5.493164397776127,164.44786410692188,1,1789158091.0509694,38.990733346666666,-76.93777847166666,11.055999999999997,0,1,16.613775999999998,33.907329000000004,104.59152900000001,1,1,1789158091.3821092,0.9959039021215025,-0.07877029823105258,0.03952544143700495,0.020208842989299532,178.0435424014035,-4.698406822030006,-8.964436692374258,0.03848171747967177,0.020674995786199628,-0.1320160064891503,0.8822062485504151,0.6876423093414307,-10.682580154190065
2026-09-11T16:21:31.423,5.079145728000071,-185.60202026367188,-16704.18182373047,-66816.72729492188,-127.13738388061525,-8.48040786743164,-4.046942710876465,-2.7721557569503785,-6.201135819949838,1.0580458208536074,0.0,-0.06546211242675781,-536.265625,-23.566360473632812,0.0,0.0,164.43527909041183,1,1789158091.0509694,38.990733346666666,-76.93777847166666,11.055999999999997,0,1,16.613775999999998,33.907329000000004,104.59152900000001,1,1,1789158091.4101093,0.9960548157629435,-0.07727897074001323,0.039561312642283346,0.01837572362745307,178.24681395766532,-4.683447783589378,-8.801118503810853,-0.021798813291558777,0.03064082581508725,-0.12923552245779812,1.1424747438430787,-0.06688135410308838,-9.386239069309235
2026-09-11T16:21:31.456,5.11254697600009,-185.73556518554688,-16716.20086669922,-66864.80346679688,-127.22886215209962,-8.571886138916016,-3.994628667831421,-2.7363206374645235,-6.120974940641823,1.0728676810469897,0.0,-0.06453132629394531,-528.640625,-23.231277465820312,0.0610351599752903,21.972657591104507,657.8394193861398,1,1789158091.0509694,38.990733346666666,-76.93777847166666,11.055999999999997,0,1,16.613775999999998,33.907329000000004,104.59152900000001,1,1,1789158091.4501092,0.996248827137443,-0.07508117133954705,0.039311740531001026,0.01748368365002677,178.336565469894,-4.643400428658375,-8.552323018663762,-0.026041010571456195,0.03870756308487984,-0.11793242115603245,0.0951245065689087,-0.43433653566360475,-8.8240238155365
2026-09-11T16:21:31.491,5.145959296000001,-185.87118530273438,-16728.406677246094,-66913.62670898438,-127.32176193237305,-8.664785919189454,-3.995332717895508,-2.736802911758423,-6.122053757512571,-0.014434025949133324,0.0,-0.06267166137695312,-513.40625,-22.561798095703125,0.1373291164636612,49.43848192691803,822.026855240417,1,1789158091.0509694,38.990733346666666,-76.93777847166666,11.055999999999997,0,1,16.613775999999998,33.907329000000004,104.59152900000001,1,1,1789158091.4821093,0.9964222222657368,-0.0737169488890288,0.03773125724014371,0.01687953342308587,178.38630818640647,-4.455290060540492,-8.399479326408771,-0.023746600736784446,-0.005965186317466219,-0.09447187988364987,-0.5784942930412292,-0.10355822570800781,-8.072442147140503
2026-09-11T16:21:31.524,5.179371584000023,-186.00234985351562,-16740.211486816406,-66960.84594726562,-127.41160964965822,-8.75463363647461,-3.9431982040405273,-2.7010907697677613,-6.042167971026661,1.0688325801165677,0.0,-0.06129646301269531,-502.140625,-22.066726684570312,0.1068115383386612,38.45215380191803,-328.8110088417973,1,1789158091.0509694,38.990733346666666,-76.93777847166666,11.055999999999997,0,1,16.613775999999998,33.907329000000004,104.59152900000001,1,1,1789158091.5221093,0.9965066093450142,-0.07182107292852678,0.03942848781611107,0.016177310148256963,178.47200314636925,-4.640600899143826,-8.182767862018734,0.029774618907322463,0.08343127610138414,-0.06403700292029794,3.852052183532715,1.1085437342834472,-7.7992288736343385
2026-09-11T16:21:31.556,5.212778336000042,-186.13351440429688,-16752.01629638672,-67008.06518554688,-127.50145736694337,-8.844481353759766,-3.892573356628418,-2.6664127492904663,-5.964595448484394,1.038054237576741,0.0,-0.06066703796386719,-496.984375,-21.840133666992188,0.1220703199505806,43.945315182209015,164.43266859010615,1,1789158091.0509694,38.990733346666666,-76.93777847166666,11.055999999999997,0,1,16.613775999999998,33.907329000000004,104.59152900000001,1,1,1789158091.5501091,0.996622154563644,-0.07072837930117686,0.03901714447093537,0.014813501668516351,178.61991918190196,-4.580873290858798,-8.063531677897116,0.05145509887559603,0.01563273957718801,-0.07441944304163661,3.1545051575279235,0.43080614160537717,-13.331650562381745
2026-09-11T16:21:31.590,5.246184384000003,-186.2641143798828,-16763.770294189453,-67055.08117675781,-127.59091835021974,-8.933942337036134,-3.9195756912231445,-2.6849093484878543,-6.005971162508615,-0.5536901341161261,0.0,-0.0607452392578125,-497.625,-21.8682861328125,0.015258791856467724,5.493165068328381,-1151.0535491634882,1,1789158091.0509694,38.990733346666666,-76.93777847166666,11.055999999999997,0,1,16.613775999999998,33.907329000000004,104.59152900000001,1,1,1789158091.5821092,0.9967468245346623,-0.06964088708109162,0.03778802585386711,0.014764136571211325,178.6109153270019,-4.438361075189281,-7.93948241025729,0.009034871405873847,-0.018643432536878227,-0.09351055253165139,-0.8891689701652526,0.23379053985595702,-7.255744321670532
2026-09-11T16:21:31.625,5.279598240000041,-186.3934783935547,-16775.413055419922,-67101.65222167969,-127.67953269958497,-9.022556686401368,-3.816387176513672,-2.6142252159118655,-5.847855261077001,2.115413814433981,0.0,-0.06057929992675781,-496.265625,-21.808547973632812,-0.015258795581758022,-5.493166409432888,-328.7956791861636,1,1789158091.0509694,38.990733346666666,-76.93777847166666,11.055999999999997,0,1,16.613775999999998,33.907329000000004,104.59152900000001,1,1,1789158091.6221092,0.9967815272823433,-0.06825738166548131,0.03957428129330974,0.014191299340431616,178.68414870733676,-4.6363416766556815,-7.781473715009827,0.019054283042797694,-0.028425828461381246,-0.08972563151577649,1.3401768111038208,-0.1358221047401428,-11.586262966594695
2026-09-11T16:21:31.657,5.313015936000056,-186.52069091796875,-16786.862182617188,-67147.44873046875,-127.7666732788086,-9.109697265625,-3.7656350135803223,-2.5794599843025208,-5.770087652788381,1.0403240130417477,0.0,-0.06097412109375,-499.5,-21.95068359375,0.0,0.0,164.37896883825937,1,1789158091.0509694,38.990733346666666,-76.93777847166666,11.055999999999997,0,1,16.613775999999998,33.907329000000004,104.59152900000001,1,1,1789158091.6501093,0.9969526770065593,-0.06691676062489062,0.0377456333108425,0.013519398022453867,178.7411037823441,-4.420201620705413,-7.631428698737179,0.026588171291956418,-0.09450102688215817,-0.08606916673284837,2.094504341545105,0.15288567602157593,-7.53758744731903
2026-09-11T16:21:31.690,5.346423424000022,-186.64698791503906,-16798.228912353516,-67192.91564941406,-127.85318672180176,-9.196210708618164,-3.79305100440979,-2.5982399380207064,-5.8120972128236925,-0.5621480345425747,0.0,-0.06108665466308594,-500.421875,-21.991195678710938,-0.015258795581758022,-5.493166409432888,-164.42919651541743,1,1789158091.0509694,38.990733346666666,-76.93777847166666,11.055999999999997,0,1,16.613775999999998,33.907329000000004,104.59152900000001,1,1,1789158091.6821094,0.9969668054411309,-0.06572136543511663,0.039226616824980055,0.014112530117467138,178.67878967285344,-4.592604248318349,-7.490130467305055,0.022676190306536326,0.035330176449345614,-0.08269108196561334,-1.6556567468070984,2.3867425163650515,-10.090846883430482
2026-09-11T16:21:31.724,5.379832736000026,-186.7715606689453,-16809.440460205078,-67237.76184082031,-127.93851905822756,-9.281543045043946,-3.7168385982513428,-2.54603443980217,-5.695316839213867,1.5626032113002253,0.0,-0.060882568359375,-498.75,-21.917724609375,0.0,0.0,164.4202194116517,1,1789158091.0509694,38.990733346666666,-76.93777847166666,11.055999999999997,0,1,16.613775999999998,33.907329000000004,104.59152900000001,1,1,1789158091.7221093,0.997023094399829,-0.06435416962168551,0.04023882622092788,0.01357670615631319,178.74125602256956,-4.702702265076277,-7.334528556529423,-0.05914711395498543,0.0223452758803582,-0.06704647414951177,0.030106415996551512,0.7861991434669495,-7.8625798336792
