timestamp,time_s,drive_pos_turns,drive_encoder_count,drive_wheel_angle_deg,drive_distance_m,drive_distance_since_start_m,drive_velocity_turns_s,drive_velocity_mps,drive_velocity_mph,drive_acceleration_mps2,drive_iq_A,steer_pos_turns,steer_encoder_count,steer_angle_deg,steer_velocity_turns_s,steer_velocity_deg_s,steer_acceleration_deg_s2,gps_received,gps_ros_stamp_s,gps_latitude_deg,gps_longitude_deg,gps_altitude_m,gps_status,gps_service,gps_cov_x_m2,gps_cov_y_m2,gps_cov_z_m2,gps_covariance_type,imu_received,imu_ros_stamp_s,imu_qx,imu_qy,imu_qz,imu_qw,imu_roll_deg,imu_pitch_deg,imu_yaw_deg,imu_gyro_x_rad_s,imu_gyro_y_rad_s,imu_gyro_z_rad_s,imu_accel_x_mps2,imu_accel_y_mps2,imu_accel_z_mps2
2026-09-11T16:30:31.868,8.32000000627886e-06,-1115.1087646484375,-100359.78881835938,-401439.1552734375,-763.8495037841798,-0.0029266357421875,-0.8872458934783936,-0.6077634370326996,-1.3595280892821648,0.0,0.0,-0.06643867492675781,-544.265625,-23.917922973632812,0.0,0.0,0.0,0,nan,nan,nan,nan,-999,-999,nan,nan,nan,-999,1,1789158631.8611734,-0.8655894519826085,0.5002542722101521,-0.009388884040401417,-0.020307944465507256,178.52273549949615,-2.0958949412528467,-60.023200667613864,-0.019625878372825836,0.015059573450833072,-0.03706992064773356,-1.5590612427139283,0.8697518028450013,-11.009043538074495
2026-09-11T16:30:31.902,0.033429055999931734,-1115.12939453125,-100361.6455078125,-401446.58203125,-763.8636352539063,-0.01705810546875,-0.6810581684112549,-0.46652484536170963,-1.043586357734675,4.226076639105286,0.0,-0.066131591796875,-541.75,-23.807373046875,0.0,0.0,0.0,0,nan,nan,nan,nan,-999,-999,nan,nan,nan,-999,1,1789158631.8891733,-0.8656527460213921,0.5001973168012552,-0.008982367368676832,-0.019164671844355965,178.6128145465673,-1.9899075408965392,-60.01685007350254,0.013321923647547518,-0.023493178929394874,-0.01941242460530693,-1.931125549850464,-0.29802409841537475,-9.092333763961792
2026-09-11T16:30:31.936,0.06684892800012676,-1115.1572265625,-100364.150390625,-401456.6015625,-763.8827001953125,-0.036123046875,-0.864639401435852,-0.5922779899835587,-1.3248881307792548,-3.762825441734644,0.0,-0.064422607421875,-527.75,-23.192138671875,0.0,0.0,0.0,0,nan,nan,nan,nan,-999,-999,nan,nan,nan,-999,1,1789158631.9291732,-0.8657110322052995,0.5000878363405385,-0.00945544017171434,-0.01916140165626413,178.63999345337618,-2.0364987873682225,-60.00256162699817,0.0015981979960512076,0.02368411794956305,-0.012418366693790055,1.2702553954505922,0.3609827924537659,-9.398595448513031
2026-09-11T16:30:31.969,0.10027132799996252,-1115.181884765625,-100366.36962890625,-401465.478515625,-763.8995910644531,-0.053013916015625,-0.7096513509750366,-0.4861111754179001,-1.0873997302655234,3.176516784138193,0.0,-0.064300537109375,-526.75,-23.148193359375,0.0,0.0,0.0,0,nan,nan,nan,nan,-999,-999,nan,nan,nan,-999,1,1789158631.9611733,-0.8657751425637975,0.4999070340670097,-0.009517723645488824,-0.02087517055187673,178.47294114077803,-2.14059306600233,-59.97658362361277,0.008114908357147635,0.026590265687058807,-0.026071553833366096,-0.7199061883735657,1.1688546327781677,-8.910616536464692
2026-09-11T16:30:32.003,0.13369446399997287,-1115.20703125,-100368.6328125,-401474.53125,-763.9168164062501,-0.07023925781250001,-0.7617483139038086,-0.5217975950241089,-1.1672279774161336,-1.0677160756608173,0.0,-0.064300537109375,-526.75,-23.148193359375,0.0,0.0,0.0,0,nan,nan,nan,nan,-999,-999,nan,nan,nan,-999,1,1789158632.0011733,-0.8658860400847335,0.4996930954006822,-0.010228223222707505,-0.02106085100299479,178.49464431419915,-2.221391026790043,-59.948334726156006,0.0010925761117484504,0.025263989988468318,-0.01747353833926643,0.2891981132698059,0.9579135877990723,-8.742236353187561
2026-09-11T16:30:32.037,0.16711382400012553,-1115.2392578125,-100371.533203125,-401486.1328125,-763.9388916015625,-0.092314453125,-0.8677654266357422,-0.5944193172454835,-1.3296781434446197,-2.1730434760283495,0.0,-0.064300537109375,-526.75,-23.148193359375,0.0,0.0,0.0,0,nan,nan,nan,nan,-999,-999,nan,nan,nan,-999,1,1789158632.0291734,-0.8659062693029865,0.4995900906437016,-0.009904145253038002,-0.022759218334742162,178.30711086364258,-2.286289043585216,-59.93235354602109,0.00508798383541387,0.02216603056617838,-0.01148356834642189,2.0421368296813966,1.3816589412879943,-9.53382915424347
2026-09-11T16:30:32.070,0.2005375040000672,-1115.267333984375,-100374.06005859375,-401496.240234375,-763.9581237792969,-0.11154663085937501,-0.8940579295158386,-0.6124296817183496,-1.3699661813671011,-0.5388504339706912,0.0,-0.064300537109375,-526.75,-23.148193359375,0.0,0.0,0.0,1,1789158632.0382955,38.99074852166667,-76.93789443166666,-5.859999999999999,0,1,9.284209,10.989225,121.24212099999998,1,1,1789158632.0611734,-0.8661211128898537,0.4991668987125005,-0.008379510731008679,-0.024421483085480235,178.05362737516165,-2.2291466567780898,-59.87393940361496,0.00013404128655316452,-0.004550247892874416,-0.042763359200664264,-1.763529898586273,1.5302296912384035,-9.409775029697418
2026-09-11T16:30:32.104,0.23396265600013066,-1115.3040771484375,-100377.36694335938,-401509.4677734375,-763.9832928466798,-0.13671569824218752,-1.0518763065338135,-0.7205352699756623,-1.611791495113774,-3.234258688101329,0.0,-0.06460762023925781,-529.265625,-23.258743286132812,0.0,0.0,0.0,1,1789158632.0382955,38.99074852166667,-76.93789443166666,-5.859999999999999,0,1,9.284209,10.989225,121.24212099999998,1,1,1789158632.1011734,-0.8665530066415165,0.49831405446129184,-0.007828910146587396,-0.026602593347515604,177.8031193428508,-2.2971002778028797,-59.758332675514275,0.001940631595292495,0.09127216776596866,-0.06750427401230989,-1.1983726497650147,1.2544666886901856,-9.693677551879883
2026-09-11T16:30:32.137,0.2673829120001301,-1115.3360595703125,-100380.24536132812,-401520.9814453125,-764.0052008056641,-0.15862365722656252,-0.9737308025360107,-0.6670055997371674,-1.4920490330555805,1.6017133512829997,0.0,-0.07050132751464844,-577.546875,-25.380477905273438,-0.3051758110523224,-109.86329197883606,-3287.326463891777,1,1789158632.0382955,38.99074852166667,-76.93789443166666,-5.859999999999999,0,1,9.284209,10.989225,121.24212099999998,1,1,1789158632.1291733,-0.8668706149884303,0.497813238308322,-0.011124186096489363,-0.024363273964171955,178.21244472331804,-2.495629527320028,-59.69552544782662,0.13094070913699657,0.09357512971397518,-0.03671055735474793,-3.4610610415840153,-1.6593832738685608,-9.971990283470154
2026-09-11T16:30:32.170,0.3008030720000079,-1115.365234375,-100382.87109375,-401531.484375,-764.025185546875,-0.1786083984375,-0.8190900087356567,-0.5610766559839249,-1.255092734394963,3.169612106992603,0.0,-0.075592041015625,-619.25,-27.213134765625,-0.09155276417732239,-32.95899510383606,2301.1349100447515,1,1789158632.0382955,38.99074852166667,-76.93789443166666,-5.859999999999999,0,1,9.284209,10.989225,121.24212099999998,1,1,1789158632.1611733,-0.867001545465533,0.4976446284941297,-0.01313128279027385,-0.022038904319379285,178.55764019995215,-2.562248558178558,-59.677972326987444,0.07134015864234301,0.0598649678763307,-0.019819958985647604,-0.09355544254302979,0.20956811395645142,-9.299450215377808
2026-09-11T16:30:32.204,0.3342234560000179,-1115.3941650390625,-100385.47485351562,-401541.8994140625,-764.0450030517578,-0.1984259033203125,-0.8711559772491455,-0.5967418444156647,-1.3348734887608806,-1.0671687204949272,0.0,-0.07916069030761719,-648.484375,-28.497848510742188,0.0,0.0,986.1943867499003,1,1789158632.0382955,38.99074852166667,-76.93789443166666,-5.859999999999999,0,1,9.284209,10.989225,121.24212099999998,1,1,1789158632.2011733,-0.8672383916847065,0.4972122225957223,-0.011898767492629725,-0.023151609484042334,178.3754161240362,-2.502367139445024,-59.61824175181173,-0.03508076889923563,0.034407420873816215,-0.02998824720776657,-0.6546919647979736,1.2527995581626892,-8.721838520851135
2026-09-11T16:30:32.237,0.36764185600009114,-1115.4288330078125,-100388.59497070312,-401554.3798828125,-764.0687506103516,-0.2221734619140625,-0.9773116111755371,-0.6694584536552429,-1.4975359110040314,-2.175945264866627,0.0,-0.07868766784667969,-644.609375,-28.327560424804688,0.0457763709127903,16.479493528604507,493.12634741843993,1,1789158632.0382955,38.99074852166667,-76.93789443166666,-5.859999999999999,0,1,9.284209,10.989225,121.24212099999998,1,1,1789158632.2291734,-0.8674762935627273,0.4968063718833598,-0.010140011905981808,-0.023780015166363796,178.211595493094,-2.362433799329497,-59.562924286038005,-0.030594225524059004,-0.05143171146361931,-0.044257535573296605,2.104801324214935,0.44512385084152223,-10.41809479932785
2026-09-11T16:30:32.270,0.40105596800003696,-1115.4605712890625,-100391.45141601562,-401565.8056640625,-764.0904913330079,-0.24391418457031253,-0.9512631297111511,-0.6516152438521385,-1.4576217874287263,0.5340022144874992,0.0,-0.07423973083496094,-608.171875,-26.726303100585938,0.2288818508386612,82.39746630191803,1972.7584792144232,1,1789158632.0382955,38.99074852166667,-76.93789443166666,-5.859999999999999,0,1,9.284209,10.989225,121.24212099999998,1,1,1789158632.2611732,-0.8677496566696332,0.49638081200356776,-0.007756358722209114,-0.023589440938369424,178.09388358520428,-2.1135388752225164,-59.50673593940478,-0.036527821382064125,-0.0673161275189449,-0.03909956403487777,-0.22241482566833495,0.3225407238197327,-7.8458104619026185
2026-09-11T16:30:32.304,0.43447014399998807,-1115.4957275390625,-100394.61547851562,-401578.4619140625,-764.1145733642579,-0.2679962158203125,-0.9794730544090271,-0.6709390422701836,-1.5008478934103948,-0.5783113855051633,0.0,-0.06711769104003906,-549.828125,-24.162368774414062,0.2136230617761612,76.90430223941803,-164.39621502287045,1,1789158632.0382955,38.99074852166667,-76.93789443166666,-5.859999999999999,0,1,9.284209,10.989225,121.24212099999998,1,1,1789158632.3011732,-0.8679521965467833,0.49618164459640834,-0.006074801453561331,-0.020636299632379486,178.29184103658372,-1.777828425780581,-59.484052331625314,0.0092952745302714,-0.027952669701165583,-0.02147837084089262,-0.414625168838501,0.41452710233688356,-9.115379391841888
2026-09-11T16:30:32.337,0.4678864320001139,-1115.526611328125,-100397.39501953125,-401589.580078125,-764.1357287597657,-0.289151611328125,-0.9274070858955383,-0.6352738538384438,-1.4210671390444773,1.0672995286491873,0.0,-0.06355094909667969,-520.609375,-22.878341674804688,0.030517593026161194,10.98633348941803,-1972.6298968261144,1,1789158632.0382955,38.99074852166667,-76.93789443166666,-5.859999999999999,0,1,9.284209,10.989225,121.24212099999998,1,1,1789158632.3291733,-0.8678980815368106,0.49629183207448857,-0.004941058584706025,-0.02056510201612723,178.23470372779727,-1.6611946809128884,-59.49900542420376,0.009746267608986735,0.002316750049097273,0.0022649137703130416,0.007158854618072509,0.6600856223869324,-10.329246548862457
2026-09-11T16:30:32.370,0.5013020799999595,-1115.5628662109375,-100400.65795898438,-401602.6318359375,-764.1605633544923,-0.3139862060546875,-1.0326193571090698,-0.7073442596197129,-1.5822840453196854,-2.156786119533048,0.0,-0.053310394287109375,-436.71875,-19.191741943359375,0.3509521782398224,126.34278416633606,3452.168597103108,1,1789158632.0382955,38.99074852166667,-76.93789443166666,-5.859999999999999,0,1,9.284209,10.989225,121.24212099999998,1,1,1789158632.3611734,-0.8677676569283125,0.4964703140555703,-0.005239516454323404,-0.021657985087139165,178.14324360721568,-1.7534362552241205,-59.521364009976104,-0.002593210202613175,0.02735035657630234,-0.00454605910266963,-0.2531096406745911,0.4523807719612121,-9.552069523544311
2026-09-11T16:30:32.404,0.5347341120000237,-1115.599365234375,-100403.94287109375,-401615.771484375,-764.1855651855469,-0.33898803710937503,-1.1378744840621948,-0.7794440215826035,-1.7435666195029587,-2.156607231135456,0.0,-0.03713798522949219,-304.234375,-13.369674682617188,0.5187988877296448,186.76759958267212,1807.3928445695396,1,1789158632.0382955,38.99074852166667,-76.93789443166666,-5.859999999999999,0,1,9.284209,10.989225,121.24212099999998,1,1,1789158632.4011734,-0.8674485629180915,0.49683847663595976,-0.005866810550410192,-0.025497046090919927,177.79762215221749,-2.0352383042373265,-59.56545085720645,-0.01140415586545615,0.04708880868588181,0.03198612560252448,1.8925854147148131,1.6747797146224974,-8.958963321762086
2026-09-11T16:30:32.438,0.5681446400001278,-1115.6414794921875,-100407.73315429688,-401630.9326171875,-764.2144134521485,-0.3678363037109375,-1.241227626800537,-0.850240924358368,-1.901934780687113,-2.118999818726122,0.0,-0.023468017578125,-192.25,-8.448486328125,0.22888189554214478,82.39748239517212,-3123.8691345187676,1,1789158632.0382955,38.99074852166667,-76.93789443166666,-5.859999999999999,0,1,9.284209,10.989225,121.24212099999998,1,1,1789158632.4291732,-0.8671950266054712,0.497171526337939,-0.005525224807833991,-0.027617587156796845,177.56793330012223,-2.1229649681302196,-59.60708227923415,-0.0189605588619656,0.08188718331214476,0.02545143835013251,-0.9119203985404969,1.3792072787475584,-10.659142260303497
2026-09-11T16:30:32.471,0.6015591360001054,-1115.6865234375,-100411.787109375,-401647.1484375,-764.2452685546875,-0.39869140625000005,-1.345496416091919,-0.9216650450229645,-2.061705988329822,-2.1375190176336787,0.0,-0.01776123046875,-145.5,-6.39404296875,0.13732916116714478,49.43849802017212,-986.3678439148717,1,1789158632.0382955,38.99074852166667,-76.93789443166666,-5.859999999999999,0,1,9.284209,10.989225,121.24212099999998,1,1,1789158632.4611733,-0.8668222239375526,0.49771288308711514,-0.004446427109306279,-0.02968749539837623,177.3018520669571,-2.1353477239761176,-59.6769571929589,-0.0028509953331327374,0.12482856609651244,0.03836931827584334,0.006668522109985352,1.1154083893966673,-10.184402325973512
2026-09-11T16:30:32.505,0.634987744,-1115.7333984375,-100416.005859375,-401664.0234375,-764.2773779296875,-0.43080078125000004,-1.3978056907653809,-0.957496898174286,-2.1418595610555764,-1.0718918703235962,0.0,-0.016326904296875,-133.75,-5.877685546875,0.0,0.0,-1478.927809986222,1,1789158632.0382955,38.99074852166667,-76.93789443166666,-5.859999999999999,0,1,9.284209,10.989225,121.24212099999998,1,1,1789158632.5011733,-0.8663289057779834,0.49832871547137614,-0.005342768542790566,-0.03337923268243786,176.98729350334534,-2.437229368733675,-59.752547612710444,0.003887022777116571,0.1227472609635092,0.032067108879817015,1.880229035511017,2.916988090610504,-9.6915200888443
2026-09-11T16:30:32.538,0.6684001599999192,-1115.789794921875,-100421.08154296875,-401684.326171875,-764.3160095214845,-0.469432373046875,-1.658177375793457,-1.135851502418518,-2.540827448144499,-5.337973891042885,0.0,-0.016326904296875,-133.75,-5.877685546875,0.0,0.0,0.0,1,1789158632.0382955,38.99074852166667,-76.93789443166666,-5.859999999999999,0,1,9.284209,10.989225,121.24212099999998,1,1,1789158632.5291734,-0.8660396224446986,0.4985930250719811,-0.005338215999989888,-0.03676780052372587,176.65069267818242,-2.631405758704528,-59.78251446658988,-0.05373554607625181,0.10806345690063052,0.026516961858475047,-0.751091335887909,3.5865861636543275,-8.640051058502198
2026-09-11T16:30:32.571,0.7018194879999555,-1115.851318359375,-100426.61865234375,-401706.474609375,-764.3581530761719,-0.511575927734375,-1.7873390913009644,-1.2243272775411607,-2.738742120483982,-2.647443273621373,0.0,-0.013601303100585938,-111.421875,-4.8964691162109375,0.2288818508386612,82.39746630191803,2465.5632304105116,1,1789158632.0382955,38.99074852166667,-76.93789443166666,-5.859999999999999,0,1,9.284209,10.989225,121.24212099999998,1,1,1789158632.5611734,-0.8656272402743422,0.4993782513138716,-0.006223291890490805,-0.03566670222731235,176.81314417818757,-2.6592755823683514,-59.88709743448704,0.09133011269713487,0.08597945680929586,0.06108041516741955,0.015788706760406494,-0.27537073654174804,-11.880462471446991
2026-09-11T16:30:32.605,0.7352390400001241,-1115.912353515625,-100432.11181640625,-401728.447265625,-764.3999621582032,-0.553385009765625,-1.8399345874786377,-1.2603551924228669,-2.819334270809917,-1.0780490080035932,0.0,0.0012760163517668843,10.453125953674316,0.45936588663607836,0.7324219346046448,263.6718964576721,5424.202878447917,1,1789158632.0382955,38.99074852166667,-76.93789443166666,-5.859999999999999,0,1,9.284209,10.989225,121.24212099999998,1,1,1789158632.6011734,-0.8650356425401756,0.5003851601847843,-0.005176141611689169,-0.03607265113585606,176.71593864523632,-2.582366065912416,-60.020954828735356,0.003222052332106732,-0.06333764948902382,0.055048382739601956,0.192210343170166,2.044098159713745,-9.75751884443283
2026-09-11T16:30:32.638,0.7686538240000118,-1115.978759765625,-100438.08837890625,-401752.353515625,-764.4454504394532,-0.598873291015625,-1.996645212173462,-1.3677019703388216,-3.0594621741652204,-3.2125533990079176,0.0,0.010076523758471012,82.54688262939453,3.6275485530495644,-0.0457763746380806,-16.479494869709015,-8384.055133449985,1,1789158632.0382955,38.99074852166667,-76.93789443166666,-5.859999999999999,0,1,9.284209,10.989225,121.24212099999998,1,1,1789158632.6291733,-0.8644615527776129,0.5013737974226803,-0.002544796779138936,-0.036387676988679556,176.53664040967215,-2.3433294622888914,-60.15523213533053,-0.004160690403829282,-0.13334402751699276,0.08790123884866681,0.14435389038085938,1.1817013444900513,-9.188438935546875
2026-09-11T16:30:32.671,0.8020690880000529,-1116.0478515625,-100444.306640625,-401777.2265625,-764.4927783203126,-0.646201171875,-2.075284242630005,-1.4215697062015535,-3.179960867487366,-1.6120697374309434,0.0,0.01974678225815296,161.76564025878906,7.108841612935066,0.3051758408546448,109.86330270767212,3780.9905550117937,1,1789158632.0382955,38.99074852166667,-76.93789443166666,-5.859999999999999,0,1,9.284209,10.989225,121.24212099999998,1,1,1789158632.6611733,-0.8636665916887261,0.50276767401472,0.000496144706569867,-0.036117007171655495,176.39230429458817,-2.032129787577085,-60.346074648114815,-0.0050787335903783,-0.12092025030252153,0.1024960311196938,0.013925443229675294,1.8278615236473084,-9.30435354045868
2026-09-11T16:30:32.705,0.835496608000085,-1116.1209716796875,-100450.88745117188,-401803.5498046875,-764.542865600586,-0.6962884521484376,-2.179410457611084,-1.4928961634635927,-3.339513608320488,-2.133764552738905,0.0,0.031232835724949837,255.85939025878906,11.243820860981941,0.2746582627296448,98.87697458267212,-328.66117872308433,1,1789158632.0382955,38.99074852166667,-76.93789443166666,-5.859999999999999,0,1,9.284209,10.989225,121.24212099999998,1,1,1789158632.7011733,-0.8622889477645922,0.5051768859003712,0.004738954057574788,-0.03509454130596201,176.2538765468659,-1.563521233937731,-60.67716029053933,-0.0015955800021732161,-0.09795032108287458,0.1384772153800333,0.552310537109375,1.3985263795661924,-9.788409792442321
2026-09-11T16:30:32.738,0.8689140799999677,-1116.1966552734375,-100457.69897460938,-401830.7958984375,-764.5947088623047,-0.7481317138671876,-2.258319616317749,-1.5469489371776581,-3.4604262195276854,-1.6175003816642712,0.0,0.0390777625143528,320.1250305175781,14.067994505167007,0.21362310647964478,76.90431833267212,-657.5200018145324,1,1789158632.0382955,38.99074852166667,-76.93789443166666,-5.859999999999999,0,1,9.284209,10.989225,121.24212099999998,1,1,1789158632.7291734,-0.8611174344732775,0.5071557700354842,0.007267703051220577,-0.03488508933964366,176.1313334188481,-1.3103344571988158,-60.94772494694252,0.014422353740929943,-0.062663952397754,0.14682599785694816,-0.688622974357605,1.5220901716041564,-9.486364967460633
2026-09-11T16:30:32.772,0.90233788799992,-1116.2767333984375,-100464.90600585938,-401859.6240234375,-764.6495623779298,-0.8029852294921875,-2.362874984741211,-1.6185693645477297,-3.620636552764245,-2.1427967564370243,0.0,0.0409240759909153,335.2500305175781,14.732667356729507,0.0,0.0,-2300.884397516344,1,1789158632.0382955,38.99074852166667,-76.93789443166666,-5.859999999999999,0,1,9.284209,10.989225,121.24212099999998,1,1,1789158632.7611732,-0.8596838454684518,0.5094696798938098,0.007953299099526835,-0.036346611161254566,175.95060868408154,-1.3385710656298686,-61.25671529948825,0.027965236071779944,0.016395622993234733,0.1644007652928303,0.5636862512969971,2.126081755065918,-10.738674193115234
2026-09-11T16:30:32.805,0.9357651200000419,-1116.363037109375,-100472.67333984375,-401890.693359375,-764.708680419922,-0.862103271484375,-2.5714871883392334,-1.761468724012375,-3.940293316062037,-4.274938453298325,0.0,0.040769580751657486,333.9844055175781,14.677049070596695,0.0457763709127903,16.479493528604507,492.9960556873038,1,1789158632.0382955,38.99074852166667,-76.93789443166666,-5.859999999999999,0,1,9.284209,10.989225,121.24212099999998,1,1,1789158632.8011732,-0.85772753503628,0.5125863471061987,0.008426849040546004,-0.03857072226648757,175.7086106362399,-1.4374595584735779,-61.672042656342775,-0.018734538723832333,0.029965906993341042,0.16691700647543048,1.5589631762123108,1.9470123231124878,-9.354661655788423
2026-09-11T16:30:32.838,0.9691802879999614,-1116.4515380859375,-100480.63842773438,-401922.5537109375,-764.7693035888673,-0.9227264404296875,-2.6501948833465576,-1.8153834950923922,-4.060897224168732,-1.6134819696296923,0.0,0.040739063173532486,333.7344055175781,14.666062742471695,0.0,0.0,-493.17404385470115,1,1789158632.0382955,38.99074852166667,-76.93789443166666,-5.859999999999999,0,1,9.284209,10.989225,121.24212099999998,1,1,1789158632.8291733,-0.8559201440183436,0.5155692281815407,0.009409762926687576,-0.03873673163254806,175.6392798862725,-1.3657697947340657,-62.07387691595989,-0.006903126257487972,-0.008961567577290086,0.1711976009988718,0.3175393322372436,1.231421060810089,-8.433621072597504
2026-09-11T16:30:32.872,1.0025997760001246,-1116.544921875,-100489.04296875,-401956.171875,-764.833271484375,-0.9866943359375001,-2.7818846702575684,-1.9055909991264344,-4.262685663758125,-2.6992485352738362,0.0,0.04066086187958717,333.0937805175781,14.637910276651382,0.0457763709127903,16.479493528604507,493.11029326732967,1,1789158632.0382955,38.99074852166667,-76.93789443166666,-5.859999999999999,0,1,9.284209,10.989225,121.24212099999998,1,1,1789158632.8611734,-0.8539449489226533,0.5187620741573705,0.007771722629264287,-0.0400441625309316,175.61345135922082,-1.6201703676157095,-62.494377623047406,-0.023413068316728333,-0.0781801039809088,0.17797000209538538,0.8997601523399353,1.231617193813324,-9.57315382139206
2026-09-11T16:30:32.905,1.0360257279999132,-1116.6392822265625,-100497.53540039062,-401990.1416015625,-764.8979083251953,-1.0513311767578126,-2.8344058990478516,-1.9415680408477785,-4.343164014065355,-1.0763206301969088,0.0,0.040739063173532486,333.7344055175781,14.666062742471695,0.0,0.0,-493.0149342854538,1,1789158632.0382955,38.99074852166667,-76.93789443166666,-5.859999999999999,0,1,9.284209,10.989225,121.24212099999998,1,1,1789158632.9011734,-0.8514253770480651,0.5230792948745695,0.008554933210161795,-0.037278569042452796,175.8452069869164,-1.3999623223070898,-63.07878558719452,-0.025630858197237528,-0.08102167453608076,0.16502280063824104,0.27409587202072144,0.9615420483589172,-8.905615144882203
2026-09-11T16:30:32.939,1.069442656000092,-1116.7364501953125,-100506.28051757812,-402025.1220703125,-764.9644683837892,-1.1178912353515627,-2.9139139652252197,-1.9960310661792757,-4.464994332004459,-1.6298034735929599,0.0,0.04014206305146217,328.8437805175781,14.451142698526382,-0.0610351637005806,-21.972658932209015,-657.53078595649,1,1789158632.0382955,38.99074852166667,-76.93789443166666,-5.859999999999999,0,1,9.284209,10.989225,121.24212099999998,1,1,1789158632.9291732,-0.8500487421148881,0.5253897017293919,0.0076811931621537915,-0.03638401595759821,175.98889726918617,-1.4424474168446646,-63.38742821553569,-0.018822328785207648,-0.09855211060896221,0.15767793154707332,-0.8667117412948608,0.1477862179374695,-9.826557661571503
2026-09-11T16:30:32.972,1.102862623999954,-1116.830810546875,-100514.77294921875,-402059.091796875,-765.0291052246095,-1.182528076171875,-2.8370602130889893,-1.9433862459659579,-4.34723122308061,1.5752504674311887,0.0,0.0328826941549778,269.3750305175781,11.837769895792007,-0.3051758110523224,-109.86329197883606,-2629.883818170927,1,1789158632.0382955,38.99074852166667,-76.93789443166666,-5.859999999999999,0,1,9.284209,10.989225,121.24212099999998,1,1,1789158632.9611733,-0.8485953384462683,0.5278815658227775,0.006370097151600421,-0.034444533587130476,176.261344769821,-1.4642956964118876,-63.72081158683092,-0.03500205454997068,-0.0606653758712953,0.13649591761316934,1.2203395461273192,0.37373143766403194,-9.98895578824997
2026-09-11T16:30:33.006,1.136283935999927,-1116.927978515625,-100523.51806640625,-402094.072265625,-765.0956652832032,-1.249088134765625,-2.8911383152008057,-1.980429745912552,-4.430095172495861,-1.10837958565552,0.0,0.020206455141305923,165.53128051757812,7.2743238508701324,-0.3509521782398224,-126.34278416633606,-493.0833411780261,1,1789158632.0382955,38.99074852166667,-76.93789443166666,-5.859999999999999,0,1,9.284209,10.989225,121.24212099999998,1,1,1789158633.0011733,-0.8470596739284403,0.5305870526363081,0.00568176462656202,-0.030577866663462128,176.6837618015204,-1.307766697331475,-64.08711831262794,0.004105014400690663,-0.023220383967308158,0.10829680742162215,-0.92172704870224,0.10983448181152343,-9.350444796218872
2026-09-11T16:30:33.039,1.1697040960000322,-1117.0216064453125,-100531.94458007812,-402127.7783203125,-765.1598004150392,-1.3132232666015626,-2.788130283355713,-1.9098692440986635,-4.272255825202804,2.1113154997961217,0.0,0.011560443788766861,94.70315551757812,4.16175976395607,-0.015258817933499813,-5.493174456059933,3616.0691543635885,1,1789158632.0382955,38.99074852166667,-76.93789443166666,-5.859999999999999,0,1,9.284209,10.989225,121.24212099999998,1,1,1789158633.0291734,-0.8460712160584696,0.5322535421773859,0.0045925535051225645,-0.02913027032607965,176.89327539295564,-1.331566317755555,-64.31092828368575,0.013683730401485943,-0.012483467474889444,0.09150482015525951,-1.618097276687622,-1.3010482769584657,-8.5506144090271
2026-09-11T16:30:33.073,1.2031424320000497,-1117.1187744140625,-100540.68969726562,-402162.7587890625,-765.2263604736329,-1.3797833251953127,-2.867676019668579,-1.9643580734729769,-4.394143865141765,-1.6295317259293314,0.0,0.006204608827829361,50.828155517578125,2.23365917801857,-0.2746582329273224,-98.87696385383606,-2792.716401848687,1,1789158633.0482292,38.990754216666666,-76.93789382666667,-5.847999999999999,0,1,7.974975999999999,8.726116000000001,59.382436000000006,1,1,1789158633.0611734,-0.8452680232923251,0.5336054851657952,0.0029721705161395843,-0.02789840860846284,177.11390158673314,-1.4181538232652653,-64.49152421015464,0.017220640130652453,0.0055890678636614415,0.10104583704421172,2.983084912700653,0.6498867062187195,-9.850583954467774
2026-09-11T16:30:33.106,1.236564448000081,-1117.212890625,-100549.16015625,-402196.640625,-765.290830078125,-1.4442529296875002,-2.8163740634918213,-1.9292162334918976,-4.315533807918521,1.0514578169385786,0.0,-0.0068035125732421875,-55.734375,-2.4492645263671875,-0.4425049424171448,-159.30177927017212,-1807.9344889392476,1,1789158633.0482292,38.990754216666666,-76.93789382666667,-5.847999999999999,0,1,7.974975999999999,8.726116000000001,59.382436000000006,1,1,1789158633.1011734,-0.8447240772436345,0.5345326633370233,0.0015423018452853435,-0.026714910737951125,177.3176899720004,-1.4872414790642148,-64.61559023424884,0.005410346148257222,0.07730115616960445,0.028051280803903265,1.6713473870658875,-0.06580262258529664,-11.262447378253936
2026-09-11T16:30:33.139,1.2699766400000954,-1117.3101806640625,-100557.91625976562,-402231.6650390625,-765.3574737548829,-1.5108966064453127,-2.896225690841675,-1.9839145982265474,-4.4378905651094875,-1.6370780083697074,0.0,-0.023630142211914062,-193.578125,-8.506851196289062,-0.4425049424171448,-159.30177927017212,0.0,1,1789158633.0482292,38.990754216666666,-76.93789382666667,-5.847999999999999,0,1,7.974975999999999,8.726116000000001,59.382436000000006,1,1,1789158633.1291733,-0.8444454581701334,0.5349511669126001,0.0005651774037614639,-0.02718083459320673,177.3331472161935,-1.6117317164025864,-64.67051126750594,-0.014079745608763456,0.0752591209447711,-0.0013728759896187396,1.1238421085357666,-0.02441855890274048,-10.179989333400727
2026-09-11T16:30:33.173,1.3033912959999725,-1117.4058837890625,-100566.52954101562,-402266.1181640625,-765.4230303955079,-1.5764532470703125,-2.897677421569824,-1.9849090337753297,-4.440115054078667,-0.029760460463395748,0.0,-0.032848358154296875,-269.09375,-11.825408935546875,-0.3814697861671448,-137.32912302017212,657.5754139165996,1,1789158633.0482292,38.990754216666666,-76.93789382666667,-5.847999999999999,0,1,7.974975999999999,8.726116000000001,59.382436000000006,1,1,1789158633.1611733,-0.8444841650509256,0.5349792040479843,-0.0011072713017974561,-0.025347981471716744,177.61324373242917,-1.661319478876189,-64.67376033324338,0.005684013774969934,0.027468864432512754,-0.029928382414423162,-0.8269948081398011,-0.4372785307121277,-9.64150617301941
2026-09-11T16:30:33.206,1.3368123519999244,-1117.503173828125,-100575.28564453125,-402301.142578125,-765.4896740722656,-1.6430969238281252,-2.8978896141052246,-1.985054385662079,-4.440440196989256,-0.004349111133698631,0.0,-0.04178619384765625,-342.3125,-15.04302978515625,-0.18310552835464478,-65.91799020767212,2136.710845181035,1,1789158633.0482292,38.990754216666666,-76.93789382666667,-5.847999999999999,0,1,7.974975999999999,8.726116000000001,59.382436000000006,1,1,1789158633.2011733,-0.8449308620945729,0.5343181698727003,-0.001117066908253798,-0.02438613920923577,177.7057738092877,-1.6014882332152154,-64.58489093561656,0.0030661944299036382,0.006999642965123259,-0.037950090189514306,-1.6175088776779176,1.3071284000587462,-7.701260438518523
2026-09-11T16:30:33.239,1.370232576000035,-1117.599853515625,-100583.98681640625,-402335.947265625,-765.5558996582032,-1.709322509765625,-2.8721489906311035,-1.9674220585823061,-4.400997804631138,0.5275945212011336,0.0,-0.04268836975097656,-349.703125,-15.367813110351562,0.015258795581758022,5.493166409432888,2136.764751094097,1,1789158633.0482292,38.990754216666666,-76.93789382666667,-5.847999999999999,0,1,7.974975999999999,8.726116000000001,59.382436000000006,1,1,1789158633.2291734,-0.8451809142306499,0.5339586244528003,-0.002220151098981745,-0.023504904207719148,177.85799009436073,-1.653450578916486,-64.53589648101101,0.08977781686041111,-0.055955953950639,-0.035293873600904135,0.7066672106552124,1.1206059139823914,-12.845338780860901
2026-09-11T16:30:33.273,1.4036484480000126,-1117.6993408203125,-100592.94067382812,-402371.7626953125,-765.6240484619141,-1.7774713134765627,-2.9758353233337402,-2.038447196483612,-4.559876513250738,-2.1254910810453587,0.0,-0.04351997375488281,-356.515625,-15.667190551757812,0.0,0.0,-164.38794143802517,1,1789158633.0482292,38.990754216666666,-76.93789382666667,-5.847999999999999,0,1,7.974975999999999,8.726116000000001,59.382436000000006,1,1,1789158633.2611732,-0.8452635642841051,0.5337513475205726,-0.0019175766252076485,-0.0252057297769811,177.67416105627817,-1.727666510268988,-64.50658886619978,0.023252672558470053,-0.003054849789765675,-0.01943895360993724,0.8423912488937378,0.9208444501876831,-10.56009509366989
2026-09-11T16:30:33.307,1.4370753279999917,-1117.7996826171875,-100601.97143554688,-402407.8857421875,-765.6927825927735,-1.8462054443359377,-2.9506924152374268,-2.0212243044376375,-4.521350000978962,0.5152407896275543,0.0,-0.043914794921875,-359.75,-15.809326171875,0.0,0.0,0.0,1,1789158633.0482292,38.990754216666666,-76.93789382666667,-5.847999999999999,0,1,7.974975999999999,8.726116000000001,59.382436000000006,1,1,1789158633.3011732,-0.8454959253812184,0.5333185127118502,-0.0035869255282973806,-0.026365472266422916,177.66273304105778,-1.9592013404574482,-64.44551786529684,-0.02058877652115111,-0.009399296153690263,-0.041385072690364344,2.7630236830711365,0.29959316244125367,-11.16300794561386
2026-09-11T16:30:33.340,1.4704932800000279,-1117.89892578125,-100610.9033203125,-402443.61328125,-765.7607641601563,-1.91418701171875,-2.9772279262542725,-2.039401129484177,-4.56201040059989,-0.5439239677679778,0.0,-0.04401588439941406,-360.578125,-15.845718383789062,0.0,0.0,0.0,1,1789158633.0482292,38.990754216666666,-76.93789382666667,-5.847999999999999,0,1,7.974975999999999,8.726116000000001,59.382436000000006,1,1,1789158633.3291733,-0.8456742921098288,0.5330090111830212,-0.003931083278454606,-0.026850181498377246,177.63598860007883,-2.021333628834747,-64.40286122090794,0.00042778019966381017,-0.051200280804804855,-0.025957234767360466,2.354674770336151,0.6285082088661194,-9.536771149291992
2026-09-11T16:30:33.373,1.5039104320001115,-1118.0009765625,-100620.087890625,-402480.3515625,-765.8306689453126,-1.9840917968750003,-3.0305380821228027,-2.07591858625412,-4.643697624942103,-1.0927758526475173,0.0,-0.04422187805175781,-362.265625,-15.919876098632812,0.0,0.0,0.0,1,1789158633.0482292,38.990754216666666,-76.93789382666667,-5.847999999999999,0,1,7.974975999999999,8.726116000000001,59.382436000000006,1,1,1789158633.3691733,-0.8460119971759805,0.5325199977533969,-0.0024409823838235836,-0.02608053358412899,177.61865761022705,-1.8284474658007523,-64.33850168161513,0.00014817845349431857,-0.08998202038289446,-0.02631083847381452,-0.3876568808937073,0.5154375325012207,-9.843719299354552
2026-09-11T16:30:33.407,1.5373393600000327,-1118.10302734375,-100629.2724609375,-402517.08984375,-765.9005737304689,-2.05399658203125,-3.0577526092529297,-2.094560537338257,-4.685398481876912,-0.5576592550075458,0.0,-0.04422187805175781,-362.265625,-15.919876098632812,0.0,0.0,0.0,1,1789158633.0482292,38.990754216666666,-76.93789382666667,-5.847999999999999,0,1,7.974975999999999,8.726116000000001,59.382436000000006,1,1,1789158633.4011734,-0.8462038322425048,0.5322634634599751,-0.0013272392062855113,-0.02515786556486085,177.63978714938057,-1.6633843170467233,-64.30563971635014,0.013189278624395949,-0.01154552753486769,-0.020430824223845623,2.5167786975097655,-0.2163347025680542,-12.25007511604309
2026-09-11T16:30:33.440,1.5707567679999102,-1118.2032470703125,-100638.29223632812,-402553.1689453125,-765.9692242431641,-2.1226470947265628,-3.0061428546905518,-2.059207855463028,-4.606316784768759,1.0579121479247704,0.0,-0.044036865234375,-360.75,-15.853271484375,0.0,0.0,0.0,1,1789158633.0482292,38.990754216666666,-76.93789382666667,-5.847999999999999,0,1,7.974975999999999,8.726116000000001,59.382436000000006,1,1,1789158633.4291732,-0.8462898562667894,0.5321216922958741,-0.003383413926072343,-0.02507062580624514,177.77328845891512,-1.8571636814911174,-64.2848054641334,0.018204307697076455,0.06831113972550687,-0.012938823876734763,2.319861162261963,0.2464411185646057,-9.22031054857254
2026-09-11T16:30:33.474,1.6041738240000996,-1118.3035888671875,-100647.32299804688,-402589.2919921875,-766.0379583740234,-2.1913812255859377,-3.0066986083984375,-2.05958854675293,-4.607168366931209,-0.011392125323650101,0.0,-0.043914794921875,-359.75,-15.809326171875,0.0,0.0,0.0,1,1789158633.0482292,38.990754216666666,-76.93789382666667,-5.847999999999999,0,1,7.974975999999999,8.726116000000001,59.382436000000006,1,1,1789158633.4691734,-0.8464210141929005,0.5319186511712446,-0.006377265355986357,-0.02435868952560995,178.02437797312427,-2.103765529364356,-64.25691762874641,-0.008120318877828818,0.04561086387529301,-0.019715064697602747,2.0153646747398377,0.255365170211792,-9.145976140346527
2026-09-11T16:30:33.507,1.6375928320001094,-1118.4000244140625,-100656.00219726562,-402624.0087890625,-766.1040167236329,-2.2574395751953125,-2.9027953147888184,-1.9884147906303407,-4.44795720881876,2.129738743967749,0.0,-0.044158935546875,-361.75,-15.897216796875,0.0,0.0,0.0,1,1789158633.0482292,38.990754216666666,-76.93789382666667,-5.847999999999999,0,1,7.974975999999999,8.726116000000001,59.382436000000006,1,1,1789158633.5011733,-0.8465342431850452,0.5318405323875736,-0.0074194677960081,-0.02168812399561285,178.34702533664256,-2.0419332043696095,-64.24924844638713,-0.015115947585672489,0.04329376476034534,-0.016733518736420833,-0.8160113599586487,-0.8208166185379028,-9.742514669685363
2026-09-11T16:30:33.540,1.67101116799995,-1118.4976806640625,-100664.79125976562,-402659.1650390625,-766.1709112548829,-2.3243341064453125,-2.904437780380249,-1.9895398795604706,-4.450473961078356,-0.03366681483289105,0.0,-0.044036865234375,-360.75,-15.853271484375,0.0,0.0,0.0,1,1789158633.0482292,38.990754216666666,-76.93789382666667,-5.847999999999999,0,1,7.974975999999999,8.726116000000001,59.382436000000006,1,1,1789158633.5291734,-0.8464787508556019,0.5318794750130734,-0.010549727647050394,-0.02160212157012213,178.54623446907507,-2.340592860793305,-64.25617224883783,-0.01114829059711378,0.05476563940077887,-0.0018776252092954997,1.0037106440544128,0.246735318069458,-10.771624537658692
2026-09-11T16:30:33.574,1.7044300479999492,-1118.5938720703125,-100673.44848632812,-402693.7939453125,-766.2368023681641,-2.3902252197265628,-2.9053492546081543,-1.990164239406586,-4.451870614277433,-0.018682847723063174,0.0,-0.038909912109375,-318.75,-14.007568359375,0.2288818657398224,82.39747166633606,2465.5964432781075,1,1789158633.0482292,38.990754216666666,-76.93789382666667,-5.847999999999999,0,1,7.974975999999999,8.726116000000001,59.382436000000006,1,1,1789158633.5691733,-0.846337723655521,0.5320768159061247,-0.01087187482034506,-0.02210252996110809,178.51783324713816,-2.4027175977213124,-64.28254185586002,-0.0081259039314352,0.006094689747964199,0.0049588294707662885,1.331841158466339,0.4367881982040406,-11.783376634845734
2026-09-11T16:30:33.607,1.7378575679999813,-1118.6895751953125,-100682.06176757812,-402728.2470703125,-766.3023590087892,-2.455781860351563,-2.8547561168670654,-1.95550794005394,-4.374346680507198,1.0367595128987381,0.0,-0.030103683471679688,-246.609375,-10.837326049804688,0.2593994438648224,93.38379979133606,328.66117872308433,1,1789158633.0482292,38.990754216666666,-76.93789382666667,-5.847999999999999,0,1,7.974975999999999,8.726116000000001,59.382436000000006,1,1,1789158633.6011734,-0.8460541900506325,0.5325072572595786,-0.010852308007412293,-0.022595483499171464,178.47001031932504,-2.4316637483192767,-64.34022164014503,-0.012675977291384418,-0.028486042320575052,0.027958778353547563,-0.09424190805435181,0.7022542180824279,-9.56972149383545
2026-09-11T16:30:33.640,1.7712759999999435,-1118.7852783203125,-100690.67504882812,-402762.7001953125,-766.3679156494142,-2.5213385009765625,-2.9088187217712402,-1.9925408244132996,-4.457186883530103,-1.1081574491406896,0.0,-0.023275375366210938,-190.671875,-8.379135131835938,0.10681155323982239,38.45215916633606,-1643.7527836453291,1,1789158633.0482292,38.990754216666666,-76.93789382666667,-5.847999999999999,0,1,7.974975999999999,8.726116000000001,59.382436000000006,1,1,1789158633.6291733,-0.845730137053752,0.5330773327126418,-0.010473898860611907,-0.021433386798986084,178.5612896027022,-2.3249839250027704,-64.41858739499365,-0.0011208504456307585,-0.005539151447054403,0.032427868436204245,0.15690640258789063,0.8640639457511902,-9.355053921794891
2026-09-11T16:30:33.674,1.8046992960000807,-1118.882568359375,-100699.43115234375,-402797.724609375,-766.4345593261719,-2.587982177734375,-2.883697271347046,-1.9753326308727266,-4.4186932508784995,0.5148562709226026,0.0,-0.018589019775390625,-152.28125,-6.692047119140625,0.07629397511482239,27.46583104133606,-328.70271456635754,1,1789158633.0482292,38.990754216666666,-76.93789382666667,-5.847999999999999,0,1,7.974975999999999,8.726116000000001,59.382436000000006,1,1,1789158633.6691732,-0.8451695738037586,0.5339654015823424,-0.008759122476047916,-0.02219502653367736,178.38496816720718,-2.2069282316841714,-64.53705053739064,-0.017789791999727803,-0.0023190189771248653,0.05496268707332903,-0.8954452262687683,0.5636862512969971,-10.367198284988405
2026-09-11T16:30:33.708,1.838116639999953,-1118.9815673828125,-100708.34106445312,-402833.3642578125,-766.5023736572266,-2.655796508789063,-2.963057041168213,-2.029694073200226,-4.540296334109305,-1.6267433560161855,0.0,-0.015468597412109375,-126.71875,-5.568695068359375,0.030517607927322388,10.98633885383606,-493.14189025803597,1,1789158633.0482292,38.990754216666666,-76.93789382666667,-5.847999999999999,0,1,7.974975999999999,8.726116000000001,59.382436000000006,1,1,1789158633.7011733,-0.844637328815004,0.5347379723061497,-0.00869834889422364,-0.023820631240099203,178.22573003167022,-2.3021617891706714,-64.6399625336619,0.0003316125578789226,0.01967020973582649,0.06557673238640735,-0.7744311632728577,-0.1608290626525879,-10.252166278591156
2026-09-11T16:30:33.741,1.8715395520000584,-1119.078857421875,-100717.09716796875,-402868.388671875,-766.5690173339844,-2.7224401855468754,-2.9376020431518555,-2.012257399559021,-4.501291606028585,0.5216982183105413,0.0,-0.013212203979492188,-108.234375,-4.7563934326171875,0.1068115383386612,38.45215380191803,821.7660671815572,1,1789158633.0482292,38.990754216666666,-76.93789382666667,-5.847999999999999,0,1,7.974975999999999,8.726116000000001,59.382436000000006,1,1,1789158633.7291734,-0.8441442600889054,0.5354819980767402,-0.007933620859758045,-0.024830536739065927,178.083027393801,-2.2916888406178355,-64.73956393277744,-0.009634392003933899,0.015726463758020105,0.06604744768567022,-0.09826263462066649,0.7391272226905823,-10.206369222335814
2026-09-11T16:30:33.774,1.9049590720001106,-1119.180908203125,-100726.28173828125,-402905.126953125,-766.6389221191407,-2.7923449707031254,-3.0434865951538086,-2.084788317680359,-4.663538649070232,-2.17031597465268,0.0,-0.009199142456054688,-75.359375,-3.3116912841796875,0.2136230617761612,76.90430223941803,1150.589488940593,1,1789158633.0482292,38.990754216666666,-76.93789382666667,-5.847999999999999,0,1,7.974975999999999,8.726116000000001,59.382436000000006,1,1,1789158633.7691734,-0.8434342109232941,0.536508343599649,-0.006647549065324529,-0.027080236032671737,177.78902828928878,-2.3079873709277767,-64.87632125991504,-0.014674728350768322,0.005561491661479931,0.07403913579762705,-0.6064432460021972,0.4304138755989075,-9.80370816669464
2026-09-11T16:30:33.808,1.938406784000108,-1119.2841796875,-100735.576171875,-402942.3046875,-766.7096630859376,-2.8630859375,-3.0964853763580322,-2.121092482805252,-4.744748753590842,-1.0854005537029265,0.0,0.0012989045353606343,10.640625953674316,0.46760563272982836,0.3967285454273224,142.82227635383606,1970.7767788249055,1,1789158633.0482292,38.990754216666666,-76.93789382666667,-5.847999999999999,0,1,7.974975999999999,8.726116000000001,59.382436000000006,1,1,1789158633.8011732,-0.8427141143659248,0.537515937876283,-0.005253180170384311,-0.02969750958468509,177.45278451532062,-2.3371486272772497,-65.01067166128915,-0.014960264216394596,-0.04559759937297786,0.09004101251161187,0.8354285272789002,1.0332286610412598,-11.132215064105988
2026-09-11T16:30:33.841,1.9718278079999436,-1119.3880615234375,-100744.92553710938,-402979.7021484375,-766.7808221435547,-2.934244995117188,-3.1224710941314697,-2.138892699480057,-4.784566704277144,-0.532605364661841,0.0,0.006134033668786287,50.250003814697266,2.2082521207630634,0.0,0.0,-4273.426103118164,1,1789158633.0482292,38.990754216666666,-76.93789382666667,-5.847999999999999,0,1,7.974975999999999,8.726116000000001,59.382436000000006,1,1,1789158633.8291733,-0.8420950979111437,0.5384593091654084,-0.005011416633836352,-0.030204373035286423,177.39149762629236,-2.347940875432776,-65.13852213812864,-0.017386446409591912,-0.07167822891845432,0.08979945894313585,1.0883420349502564,0.37049524311065674,-9.522551506557464
2026-09-11T16:30:33.875,2.005248416000086,-1119.493896484375,-100754.45068359375,-403017.802734375,-766.853319091797,-3.0067419433593754,-3.148085594177246,-2.156438632011414,-4.823815837534474,-0.5250033910598662,0.0,0.006071091163903475,49.734378814697266,2.185592819005251,0.0,0.0,0.0,1,1789158633.0482292,38.990754216666666,-76.93789382666667,-5.847999999999999,0,1,7.974975999999999,8.726116000000001,59.382436000000006,1,1,1789158633.8691733,-0.8411749979088727,0.5398184369575985,-0.0037529021205006934,-0.03172686147946417,177.17046963741188,-2.324966449396382,-65.32266663373228,-0.005989097328218542,-0.012062668592233608,0.08257868276178491,0.6194860907173158,0.7768828258132935,-9.952278916645051
2026-09-11T16:30:33.908,2.0386683839999478,-1119.6009521484375,-100764.08569335938,-403056.3427734375,-766.9266522216798,-3.0800750732421878,-3.200166940689087,-2.1921143543720247,-4.9036201556281815,-1.06749720289254,0.0,0.005910873878747225,48.421878814697266,2.127914596349001,-0.0762939527630806,-27.465822994709015,-821.8386981945196,1,1789158633.0482292,38.990754216666666,-76.93789382666667,-5.847999999999999,0,1,7.974975999999999,8.726116000000001,59.382436000000006,1,1,1789158633.9011734,-0.8405768722076784,0.5408424161111521,-0.001650738288722886,-0.03028659617239329,177.18209495733802,-2.036474193169491,-65.46583497274833,0.018280054986613007,-0.008614770654918811,0.06933303000254955,-0.014906108245849611,0.25212897565841674,-10.029261120414734
2026-09-11T16:30:33.941,2.0720844479999414,-1119.7083740234375,-100773.75366210938,-403095.0146484375,-767.0002362060548,-3.1536590576171877,-3.2269463539123535,-2.2104582524299623,-4.944654286931728,-0.5489544806336575,0.0,0.0007762913592159748,6.359378814697266,0.27946488931775093,-0.2441406399011612,-87.89063036441803,-1808.2562736808416,1,1789158633.0482292,38.990754216666666,-76.93789382666667,-5.847999999999999,0,1,7.974975999999999,8.726116000000001,59.382436000000006,1,1,1789158633.9291732,-0.8400484352952522,0.5415178493520743,-0.001841821860173899,-0.032766642845091364,176.95639732812438,-2.2111278639070435,-65.55508728959994,-0.019312591772092855,0.07412011907491958,0.06288159495547771,1.2910454937934874,1.2564280187225343,-8.287894251194
2026-09-11T16:30:33.975,2.1055039679999936,-1119.81689453125,-100783.5205078125,-403134.08203125,-767.0745727539063,-3.22799560546875,-3.2540066242218018,-2.228994537591934,-4.986118775930413,-0.5546544403373526,0.0,-0.0061321258544921875,-50.234375,-2.2075653076171875,-0.1373291313648224,-49.43848729133606,1150.589328423086,1,1789158633.0482292,38.990754216666666,-76.93789382666667,-5.847999999999999,0,1,7.974975999999999,8.726116000000001,59.382436000000006,1,1,1789158633.9691734,-0.8395543922249203,0.542161107637287,-0.0009472756360805815,-0.03476864291605632,176.7095568952519,-2.251787574695315,-65.64183645331113,-0.018204307697076455,0.10890191307328859,0.034244930720455535,-0.3317589749717712,1.1917041276550293,-9.62728653028488
2026-09-11T16:30:34.008,2.138921248000088,-1119.9266357421875,-100793.39721679688,-403173.5888671875,-767.1497454833985,-3.3031683349609375,-3.255235433578491,-2.2298362720012666,-4.988001682178919,-0.025188597316416973,0.0,-0.011358261108398438,-93.046875,-4.0889739990234375,-0.06103518605232239,-21.97266697883606,821.9047245144588,1,1789158633.0482292,38.990754216666666,-76.93789382666667,-5.847999999999999,0,1,7.974975999999999,8.726116000000001,59.382436000000006,1,1,1789158634.0011733,-0.8391411815107346,0.542564035012478,-0.0031364279796703295,-0.03816422701005682,176.51925510817426,-2.6753606374270658,-65.68973900794508,-0.030810646351306297,0.06999677871708299,0.02627715361925103,0.6132098346138001,0.9207463836860657,-7.952997148170471
2026-09-11T16:30:34.042,2.172334112000044,-1120.0367431640625,-100803.30688476562,-403213.2275390625,-767.2251690673829,-3.378591918945313,-3.3080267906188965,-2.2659983515739444,-5.068893950371201,-1.0822801533183497,0.0,-0.012117385864257812,-99.265625,-4.3622589111328125,0.0,0.0,657.6110021237579,1,1789158633.0482292,38.990754216666666,-76.93789382666667,-5.847999999999999,0,1,7.974975999999999,8.726116000000001,59.382436000000006,1,1,1789158634.0291734,-0.8388721372774011,0.5428970273094825,-0.003775251062523454,-0.03926961315810163,176.45345042339338,-2.8070471381553395,-65.73294286637791,-0.021486224822526594,0.05810567599032041,0.024738296817767628,0.8975046228027345,1.0851058403968812,-9.81900654094696
2026-09-11T16:30:34.075,2.2057524159999957,-1120.148193359375,-100813.33740234375,-403253.349609375,-767.3015124511719,-3.454935302734375,-3.3077781200408936,-2.2658280122280123,-5.068512912106321,0.0050971870365495294,0.0,-0.012117385864257812,-99.265625,-4.3622589111328125,0.0,0.0,0.0,1,1789158634.0405202,38.99076434333333,-76.93789261166667,-5.768999999999998,0,1,7.980625000000001,8.732025,59.382436000000006,1,1,1789158634.0691733,-0.8384225402174146,0.543616542968323,-0.0034675565000889495,-0.03894450305840471,176.46803809654713,-2.7602207060395845,-65.83203072976245,0.02089630353535251,0.0360721159143684,0.03833336449325226,-1.5063995313453673,0.994884658908844,-8.547182081470488
2026-09-11T16:30:34.108,2.2391741120000006,-1120.2626953125,-100823.642578125,-403294.5703125,-767.3799462890626,-3.533369140625,-3.3867027759552,-2.319891401529312,-5.1894492697058645,-1.6176135795529925,0.0,-0.010858535766601562,-88.953125,-3.9090728759765625,0.0762939527630806,27.465822994709015,821.7962067126995,1,1789158634.0405202,38.99076434333333,-76.93789261166667,-5.768999999999998,0,1,7.980625000000001,8.732025,59.382436000000006,1,1,1789158634.1011734,-0.8378348900906933,0.5445015469715259,-0.004419283873808564,-0.03913096245141046,176.51230904166331,-2.867073944227625,-65.9516655473371,-0.0039515999594403614,-0.009518502141601475,0.07030884358733958,2.52462401763916,1.561316772251129,-10.11153891527176
2026-09-11T16:30:34.142,2.2725911039999573,-1120.378662109375,-100834.07958984375,-403336.318359375,-767.4593835449219,-3.612806396484375,-3.4653100967407227,-2.373737416267395,-5.309899374255978,-1.6113363745651472,0.0,-0.0019016265869140625,-15.578125,-0.6845855712890625,0.6103516221046448,219.72658395767212,5753.383217831576,1,1789158634.0405202,38.99076434333333,-76.93789261166667,-5.768999999999998,0,1,7.980625000000001,8.732025,59.382436000000006,1,1,1789158634.1291733,-0.8370493255113184,0.5456905833422652,-0.0037795473461379055,-0.03944526504516864,176.44618850856162,-2.830253427690042,-66.11458085837837,-0.06514406526483794,-0.0587584291305663,0.07453742729907142,-0.07511894023895264,-0.06982334915161133,-13.037254924526213
2026-09-11T16:30:34.175,2.306005568000046,-1120.4981689453125,-100844.83520507812,-403379.3408203125,-767.5412457275391,-3.6946685791015628,-3.5703794956207275,-2.4457099545001983,-5.470897357060209,-2.153933644801618,0.0,0.008430481888353825,69.06250762939453,3.034973479807377,0.03051757998764515,10.986328795552254,-6247.0029494283135,1,1789158634.0405202,38.99076434333333,-76.93789261166667,-5.768999999999998,0,1,7.980625000000001,8.732025,59.382436000000006,1,1,1789158634.1691732,-0.8358519204411432,0.5476273132386762,0.0016122583904693056,-0.038122086940825445,176.24187188189893,-2.2384378841451023,-66.38999349719144,0.030857246642334545,-0.11079978410190722,0.12026435556962208,-1.4685458617210387,0.9584039203071594,-7.218479051055907
2026-09-11T16:30:34.209,2.339425599999913,-1120.62158203125,-100855.9423828125,-403423.76953125,-767.6257836914064,-3.7792065429687502,-3.6755802631378174,-2.517772480249405,-5.632096636205714,-2.1562674072093357,0.0,0.008172989822924137,66.95313262939453,2.9422763362526894,0.1068115308880806,38.452151119709015,821.8371042931944,1,1789158634.0405202,38.99076434333333,-76.93789261166667,-5.768999999999998,0,1,7.980625000000001,8.732025,59.382436000000006,1,1,1789158634.2011733,-0.8346203471483693,0.5495013027663024,0.005508375699330855,-0.03777369694942473,176.03522129152665,-1.85204110796096,-66.65648424016058,-0.054848193474398205,-0.1008969604590166,0.14292675777506764,0.6359612629890442,1.3777362812232972,-7.488652263011932
2026-09-11T16:30:34.242,2.3728408960000706,-1120.7503662109375,-100867.53295898438,-403470.1318359375,-767.7140008544923,-3.8674237060546877,-3.8335413932800293,-2.6259758543968204,-5.874140690758808,-3.2381390291112613,0.0,0.008981705643236637,73.57813262939453,3.2334140315651894,0.0915527418255806,32.958987057209015,-164.39070485786252,1,1789158634.0405202,38.99076434333333,-76.93789261166667,-5.768999999999998,0,1,7.980625000000001,8.732025,59.382436000000006,1,1,1789158634.2291734,-0.833374214006461,0.5513512501093852,0.005916175648186784,-0.03826509241634237,175.96655049749023,-1.8529382630097297,-66.9111161914704,-0.021474182050687834,-0.027343200726369164,0.16266067202859194,1.9805510666656494,2.966511673927307,-16.016515243663786
2026-09-11T16:30:34.276,2.406260255999996,-1120.8812255859375,-100879.31030273438,-403517.2412109375,-767.8036395263672,-3.9570623779296876,-3.9129011631011963,-2.6803372967243195,-5.995743773989613,-1.6266452238349478,0.0,0.008270264603197575,67.75000762939453,2.977295257151127,0.03051757998764515,10.986328795552254,-657.482915941714,1,1789158634.0405202,38.99076434333333,-76.93789261166667,-5.768999999999998,0,1,7.980625000000001,8.732025,59.382436000000006,1,1,1789158634.2691734,-0.8315904669657973,0.5539698723822851,0.003955684095550628,-0.03948453251208755,175.98021065180436,-2.1300294544653706,-67.26493907356733,0.007689920684287016,0.05125333881406548,0.1558364346532941,0.2879232487487793,1.927104823284149,-12.825921613540649
2026-09-11T16:30:34.309,2.4396744959999523,-1121.0133056640625,-100891.19750976562,-403564.7900390625,-767.8941143798829,-4.047537231445313,-3.9394378662109375,-2.698514938354492,-6.036406000256105,-0.5440088306720839,0.0,0.008951188065111637,73.32813262939453,3.2224277034401894,-0.0305175818502903,-10.986329466104507,-657.5836607890955,1,1789158634.0405202,38.99076434333333,-76.93789261166667,-5.768999999999998,0,1,7.980625000000001,8.732025,59.382436000000006,1,1,1789158634.3011732,-0.8301863858973623,0.5559341276101785,0.002329501553516032,-0.04150161263731917,175.89627871369586,-2.4229862783836658,-67.52964587470561,-0.01824218134184473,0.09505883411109556,0.15500094554036442,1.4620734726142883,1.3476298652267455,-7.912397616500854
2026-09-11T16:30:34.342,2.4730879680000726,-1121.1490478515625,-100903.41430664062,-403613.6572265625,-767.9870977783204,-4.140520629882813,-4.0185699462890625,-2.752720413208008,-6.157660194183976,-1.6222640632293652,0.0,0.0092353830114007,75.65625762939453,3.324737884104252,-0.0457763746380806,-16.479494869709015,-164.39971887940112,1,1789158634.0405202,38.99076434333333,-76.93789261166667,-5.768999999999998,0,1,7.980625000000001,8.732025,59.382436000000006,1,1,1789158634.3291733,-0.8289895882037989,0.557743480326663,0.0029532056974656946,-0.04110658559045777,175.8993862652114,-2.3473488703573975,-67.78121748462289,0.03364471199069469,0.11342912262003668,0.15831550032282685,-1.1187426504516602,0.5703547734069825,-9.954142180175781
2026-09-11T16:30:34.376,2.5065105280000353,-1121.2880859375,-100915.927734375,-403663.7109375,-768.0823388671876,-4.23576171875,-4.123263835906982,-2.824435727596283,-6.3180827836352,-2.145715779651685,0.0,0.015317917801439762,125.48438262939453,5.514450408518314,0.1525879204273224,54.93165135383606,2136.6150954213203,1,1789158634.0405202,38.99076434333333,-76.93789261166667,-5.768999999999998,0,1,7.980625000000001,8.732025,59.382436000000006,1,1,1789158634.3691733,-0.8267331298480498,0.5608692235505883,0.0009361389532266804,-0.04401329037084176,175.7614521580163,-2.7411317377281144,-68.2057602847154,-0.0073562137313057,0.0035775759007379768,0.1908269700302016,-0.5627055862808228,0.5751600319862366,-10.927844474735261
2026-09-11T16:30:34.409,2.5399182399999063,-1121.4271240234375,-100928.44116210938,-403713.7646484375,-768.1775799560547,-4.331002807617188,-4.149519920349121,-2.842421145439148,-6.358315017535668,-0.5383612575124734,0.0,0.026012422516942024,213.09376525878906,9.364472106099129,0.3204346299171448,115.35646677017212,1808.7085825144009,1,1789158634.0405202,38.99076434333333,-76.93789261166667,-5.768999999999998,0,1,7.980625000000001,8.732025,59.382436000000006,1,1,1789158634.4011734,-0.8248642122681805,0.5636408592168481,0.0022805968556233697,-0.043621233573449256,175.72112643108187,-2.6027567944353587,-68.59339678467843,0.0514645236535568,-0.052822040745757984,0.21190670766993874,-2.434402836151123,0.8869134406280518,-9.769286824626922
2026-09-11T16:30:34.442,2.5733306239999365,-1121.5653076171875,-100940.87768554688,-403763.5107421875,-768.2722357177735,-4.425658569335938,-4.123635768890381,-2.8246905016899113,-6.318652697051513,0.530660839682101,0.0,0.04265022650361061,349.3906555175781,15.35408154129982,0.5035400986671448,181.27443552017212,1972.860384638833,1,1789158634.0405202,38.99076434333333,-76.93789261166667,-5.768999999999998,0,1,7.980625000000001,8.732025,59.382436000000006,1,1,1789158634.4291732,-0.822972884077109,0.5666200442982802,0.002646626518923639,-0.040624534967059076,175.9902738379998,-2.388845897477651,-69.01149061213599,0.014120062714484525,-0.10851584624274745,0.2572966128619293,-2.2234617911720274,-0.014317709236145018,-8.319863930721283
2026-09-11T16:30:34.476,2.6067482880000625,-1121.707275390625,-100953.65478515625,-403814.619140625,-768.3694836425782,-4.522906494140625,-4.1764702796936035,-2.8608821415901184,-6.39961108981325,-1.083009270189282,0.0,0.05266189947724342,431.4062805175781,18.958283811807632,0.4272461533546448,153.80861520767212,-821.8952800649507,1,1789158634.0405202,38.99076434333333,-76.93789261166667,-5.768999999999998,0,1,7.980625000000001,8.732025,59.382436000000006,1,1,1789158634.4691734,-0.8195105482010833,0.5716764238067664,0.0014692603331767837,-0.03982924961306244,176.15697074508947,-2.471976037744126,-69.71497972589931,0.04008043907449858,-0.09032550117968695,0.3228869588165022,-1.8121708833885193,-0.14611908740997315,-9.946394926548004
2026-09-11T16:30:34.509,2.6401709439999195,-1121.8485107421875,-100966.36596679688,-403865.4638671875,-768.4662298583985,-4.6196527099609375,-4.255767345428467,-2.9152006316185,-6.521118091487332,-1.6251996857644777,0.0,0.06310463696718216,516.9531860351562,22.717669308185577,0.2899170517921448,104.37013864517212,-1479.1905395762565,1,1789158634.0405202,38.99076434333333,-76.93789261166667,-5.768999999999998,0,1,7.980625000000001,8.732025,59.382436000000006,1,1,1789158634.5011733,-0.8163198224896041,0.5761861639869912,0.0022093849880501044,-0.04033076317740359,176.0747725252926,-2.4569614649153078,-70.34726954551796,0.01144360030655122,-0.10147326817802513,0.3582735094006872,3.277774750061035,1.3222306413078309,-9.291997161254884
2026-09-11T16:30:34.543,2.6735887039999398,-1121.9935302734375,-100979.41772460938,-403917.6708984375,-768.5655682373048,-4.718991088867188,-4.333919048309326,-2.9687345480918887,-6.640870052102464,-1.601960049786583,0.0,0.07546425610780716,618.2031860351562,27.167132198810577,0.5340576767921448,192.26076364517212,2630.0573407657084,1,1789158634.0405202,38.99076434333333,-76.93789261166667,-5.768999999999998,0,1,7.980625000000001,8.732025,59.382436000000006,1,1,1789158634.5291734,-0.8132698382619405,0.5805279387292828,0.0011404602152936443,-0.039726337342177176,176.21542275996518,-2.5372843658058497,-70.95613655022336,-0.013360495424016593,-0.06317428667103715,0.38736675176803104,1.7083184581756592,0.26605441888809206,-10.15047131641388
2026-09-11T16:30:34.577,2.7070129920000454,-1122.13818359375,-100992.4365234375,-403969.74609375,-768.6646557617188,-4.8180786132812505,-4.3347296714782715,-2.9692898249626163,-6.642112171086732,-0.016612975292870372,0.0,0.07736016064882278,633.7344360351562,27.849657833576202,0.0,0.0,-5752.12742436172,1,1789158634.0405202,38.99076434333333,-76.93789261166667,-5.768999999999998,0,1,7.980625000000001,8.732025,59.382436000000006,1,1,1789158634.5691733,-0.8088642976368748,0.5866902534434056,0.0038958471803287147,-0.03896045299614902,176.12090242939684,-2.2587843369536467,-71.83219898783305,0.009131213580583932,-0.006880960575987644,0.4005410205608599,1.2855537697029116,0.47444573482513425,-10.297669135341645
2026-09-11T16:30:34.609,2.7404282879999755,-1122.28515625,-101005.6640625,-404022.65625,-768.7653320312501,-4.9187548828125,-4.413851737976074,-3.023488440513611,-6.763351021191856,-1.621970236358462,0.0,0.0774383619427681,634.3750610351562,27.877810299396515,0.015258789993822575,5.493164397776127,164.39071489259345,1,1789158634.0405202,38.99076434333333,-76.93789261166667,-5.768999999999998,0,1,7.980625000000001,8.732025,59.382436000000006,1,1,1789158634.6011734,-0.8052478263831211,0.5916998533686123,0.005536257633738851,-0.03790213028623115,176.12175253245562,-2.0594962744803005,-72.54750226023651,-0.02406669412160021,-0.04509564268010429,0.3896496424296396,-1.4062736331939698,0.7206907203865052,-7.956331409225465
2026-09-11T16:30:34.643,2.7738414719999582,-1122.4290771484375,-101018.61694335938,-404074.4677734375,-768.8639178466798,-5.0173406982421875,-4.311512470245361,-2.9533860421180727,-6.606536422060821,2.0980460406160177,0.0,0.07723236829042435,632.6875610351562,27.803652584552765,0.015258789993822575,5.493164397776127,0.0,1,1789158634.0405202,38.99076434333333,-76.93789261166667,-5.768999999999998,0,1,7.980625000000001,8.732025,59.382436000000006,1,1,1789158634.6291733,-0.8020880526059171,0.5960626984160058,0.007872852227325405,-0.036083702992959196,176.14101294414093,-1.7413067234423028,-73.17627312402935,-0.010136697762657867,-0.12802129689718567,0.3953607088080155,-1.140709546813965,-0.2634066233444214,-8.021937898807526
2026-09-11T16:30:34.677,2.8072639360000267,-1122.5726318359375,-101031.53686523438,-404126.1474609375,-768.9622528076172,-5.115675659179688,-4.261349678039551,-2.9190245294570927,-6.529671907339588,1.0280963324819385,0.0,0.07783890515565872,637.6563110351562,28.02200585603714,0.1068115308880806,38.452151119709015,986.1327615422192,1,1789158634.0405202,38.99076434333333,-76.93789261166667,-5.768999999999998,0,1,7.980625000000001,8.732025,59.382436000000006,1,1,1789158634.6691732,-0.7973271617925811,0.6025174286443368,0.00872815995328712,-0.034146221920347775,176.27353411054332,-1.5602990335985478,-74.10384433175342,0.04561435453379701,-0.04776180764545082,0.40198510598396003,-4.249025382080078,1.443146637802124,-10.23941763338089
2026-09-11T16:30:34.710,2.8406903679999687,-1122.712158203125,-101044.09423828125,-404176.376953125,-769.0578283691407,-5.211251220703125,-4.133135795593262,-2.8311980199813847,-6.333209600888917,2.6274569022461156,0.0,0.0788879469037056,646.2500610351562,28.399660885334015,0.0,0.0,-1150.3516474559935,1,1789158634.0405202,38.99076434333333,-76.93789261166667,-5.768999999999998,0,1,7.980625000000001,8.732025,59.382436000000006,1,1,1789158634.7011733,-0.7934127782296301,0.6077141190039831,0.010305920069827893,-0.03276432383960775,176.2998369607296,-1.344797377264107,-74.85714176113194,-0.028551666700450038,-0.032045117731241884,0.42422112425314334,-1.6772313771629332,-0.22153222715377807,-8.115003008842468
2026-09-11T16:30:34.743,2.8741037120000783,-1122.85107421875,-101056.5966796875,-404226.38671875,-769.1529858398438,-5.306408691406251,-4.1086626052856445,-2.8144338846206667,-6.295709298095614,0.5017197728148058,0.0,0.08152962476015091,667.8906860351562,29.350664913654327,0.1220703274011612,43.94531786441803,1315.202628754363,1,1789158634.0405202,38.99076434333333,-76.93789261166667,-5.768999999999998,0,1,7.980625000000001,8.732025,59.382436000000006,1,1,1789158634.7411733,-0.7884128494928353,0.6142329136929263,0.008212110397120512,-0.03249104082222395,176.48307912438224,-1.5451718036203748,-75.79510504959181,0.0007311184236604246,-0.006855129703058128,0.4276327193420167,0.12974198163986206,-1.756469110469818,-8.214442441482545
2026-09-11T16:30:34.776,2.9075255679999827,-1122.981689453125,-101068.35205078125,-404273.408203125,-769.2424572753907,-5.395880126953125,-3.9804275035858154,-2.7265928399562838,-6.099214477353885,2.628251544876325,0.0,0.08395958691835403,687.7969360351562,30.225451290607452,0.0762939527630806,27.465822994709015,-493.0753956260279,1,1789158634.0405202,38.99076434333333,-76.93789261166667,-5.768999999999998,0,1,7.980625000000001,8.732025,59.382436000000006,1,1,1789158634.7691734,-0.7850013036991567,0.6185905898725619,0.008454427408014685,-0.032359820286012905,176.4863339393466,-1.5335033713791129,-76.43004240775178,-0.047020915377979235,0.06191590428034924,0.4019269865198686,-2.6049404824638365,1.0656886730766297,-7.125708140525818
2026-09-11T16:30:34.810,2.9409396159999233,-1123.1116943359375,-101080.05249023438,-404320.2099609375,-769.3315106201172,-5.484933471679688,-3.9280285835266113,-2.690699579715729,-6.0189235408816355,1.074196704350772,0.0,0.08295822888612747,679.5938110351562,29.86496239900589,-0.0762939602136612,-27.46582567691803,-1643.968688610396,1,1789158634.0405202,38.99076434333333,-76.93789261166667,-5.768999999999998,0,1,7.980625000000001,8.732025,59.382436000000006,1,1,1789158634.8011732,-0.7810915667907463,0.6234896777121784,0.007061413742086846,-0.033267439196665596,176.51406761442678,-1.7450745824725364,-77.14263460130284,-0.019931660057775243,0.022166379632028783,0.39594312517940605,-0.06492002407073974,1.2149458885383606,-9.510783526363372
2026-09-11T16:30:34.844,2.9743523520000963,-1123.2427978515625,-101091.85180664062,-404367.4072265625,-769.4213165283204,-5.574739379882813,-3.902250289916992,-2.67304144859314,-5.97942342652366,0.5284850400307757,0.0,0.08259392529726028,676.6094360351562,29.733813107013702,-0.015258817933499813,-5.493174456059933,657.6130497288314,1,1789158634.0405202,38.99076434333333,-76.93789261166667,-5.768999999999998,0,1,7.980625000000001,8.732025,59.382436000000006,1,1,1789158634.8411734,-0.7762003104491368,0.62960829384872,0.004518986440222154,-0.032955320315855144,176.73902252406143,-1.9760996872828909,-78.03763099562619,-0.033013775466098745,0.042581844958456856,0.41205146697776246,1.2738838560104369,-1.1847414060401917,-9.887162759571076
2026-09-11T16:30:34.877,3.0077781120000964,-1123.3714599609375,-101103.43139648438,-404413.7255859375,-769.5094500732422,-5.662872924804688,-3.8508729934692383,-2.6378480005264286,-5.900697925300702,1.0528840052316306,0.0,0.08260918408632278,676.7344360351562,29.739306271076202,-0.015258789993822575,-5.493164397776127,0.0003009141394495486,1,1789158634.0405202,38.99076434333333,-76.93789261166667,-5.768999999999998,0,1,7.980625000000001,8.732025,59.382436000000006,1,1,1789158634.8691733,-0.7730093086348148,0.6335628175209129,0.004019937034598992,-0.032227397119933915,176.84996074508058,-1.98404877461911,-78.62192204266734,-0.06542820486706262,0.0543265145609771,0.38201138349121166,0.3731430386543274,-0.868575004825592,-11.934693246841432
2026-09-11T16:30:34.910,3.041192255999931,-1123.49853515625,-101114.8681640625,-404459.47265625,-769.5964965820314,-5.7499194335937505,-3.8257455825805664,-2.620635724067688,-5.862195159421272,0.5151194793086927,0.0,0.08207321912050247,672.3438110351562,29.54635888338089,-0.015258789993822575,-5.493164397776127,0.0,1,1789158634.0405202,38.99076434333333,-76.93789261166667,-5.768999999999998,0,1,7.980625000000001,8.732025,59.382436000000006,1,1,1789158634.9011734,-0.7693367603925378,0.6379763114447422,0.003518746731398607,-0.033087664854384066,176.8219827688308,-2.1091953931419254,-79.27625897823074,-0.03511323202332272,0.014322520907715868,0.377789955629413,0.2084893824386597,0.9219231817054748,-10.16988848373413
2026-09-11T16:30:34.943,3.0746022079999875,-1123.6285400390625,-101126.56860351562,-404506.2744140625,-769.6855499267579,-5.838972778320313,-3.8785746097564697,-2.656823607683182,-5.943145149613411,-1.0831468304843128,0.0,0.08148384839296341,667.5156860351562,29.334185421466827,0.0,0.0,164.41700957148515,1,1789158634.0405202,38.99076434333333,-76.93789261166667,-5.768999999999998,0,1,7.980625000000001,8.732025,59.382436000000006,1,1,1789158634.9411733,-0.7649509960360598,0.6431098907317758,0.0038802337347902944,-0.03527868892924929,176.61702897830398,-2.260318624330245,-80.0421431861648,-0.03792652824461237,0.0010068804454755288,0.350628094612326,1.3735194216537474,0.8270928746414185,-7.019600185775757
2026-09-11T16:30:34.978,3.1080262079999557,-1123.759521484375,-101138.35693359375,-404553.427734375,-769.7752722167969,-5.928695068359375,-3.879284620285034,-2.6573099648952487,-5.944233099711985,-0.014551137268640582,0.0,0.0771331861615181,631.8750610351562,27.767947018146515,-0.1373291164636612,-49.43848192691803,-1479.1312208881386,1,1789158634.0405202,38.99076434333333,-76.93789261166667,-5.768999999999998,0,1,7.980625000000001,8.732025,59.382436000000006,1,1,1789158634.9691734,-0.7620511927254611,0.6465173075265627,0.0066359358068348966,-0.03534565164590887,176.41722514683107,-2.039547702303893,-80.55814631581579,-0.032033773091103925,-0.0339496210110181,0.3303529537577583,0.5359334313392639,1.132079694671631,-9.548441062984466
2026-09-11T16:30:35.010,3.1414423359999546,-1123.8887939453125,-101149.99145507812,-404599.9658203125,-769.8638238525391,-6.017246704101563,-3.8807411193847656,-2.6583076667785646,-5.946464895263425,-0.0298568967450645,0.0,0.07259941846132278,594.7344360351562,26.135790646076202,-0.1678466945886612,-60.42481005191803,-328.7732236661396,1,1789158634.0405202,38.99076434333333,-76.93789261166667,-5.768999999999998,0,1,7.980625000000001,8.732025,59.382436000000006,1,1,1789158635.0011733,-0.7589150212962513,0.6501765062169407,0.00924364683506421,-0.03511490008004443,176.25298422863406,-1.812652735152645,-81.11525032868312,0.0036669367584400863,-0.08001043076747524,0.30688682743176937,-2.316428834705353,-0.2206496286392212,-9.90491279636383
2026-09-11T16:30:35.044,3.174855455999932,-1124.0216064453125,-101161.94458007812,-404647.7783203125,-769.9548004150391,-6.108223266601563,-3.933617353439331,-2.694527887105942,-6.027487220619943,-1.084011918892993,0.0,0.0678405836224556,555.7500610351562,24.422610104084015,-0.0915527492761612,-32.95898973941803,822.007053292795,1,1789158634.0405202,38.99076434333333,-76.93789261166667,-5.768999999999998,0,1,7.980625000000001,8.732025,59.382436000000006,1,1,1789158635.0411732,-0.7551750782487202,0.6543984985383403,0.0136771645212814,-0.03586281463386114,175.86590734435677,-1.5058970893058004,-81.766909793064,-0.04402261425597818,-0.09416697086332645,0.2899199581743569,-0.22261095867156983,1.2089638319396974,-9.255222223148346
2026-09-11T16:30:35.078,3.2083835519999866,-1124.1551513671875,-101173.96362304688,-404695.8544921875,-770.0462786865235,-6.199701538085938,-3.986435651779175,-2.730708421468735,-6.108420771001995,-1.0791109152972513,0.0,0.06354904919862747,520.5938110351562,22.87765771150589,-0.0915527492761612,-32.95898973941803,0.0,1,1789158635.0438366,38.990776563333334,-76.93788773166666,-5.843,0,1,9.066121,9.511056,93.528241,1,1,1789158635.0691733,-0.7528133729691747,0.6571441501149718,0.016486622747036165,-0.03408493389816594,175.81357353167837,-1.1445438263128727,-82.19473519314454,-0.019128808601857852,-0.08117543804318147,0.27542447513776835,-0.7970845251464844,1.2439735730171202,-9.493523822078705
2026-09-11T16:30:35.111,3.241799551999975,-1124.2877197265625,-101185.89477539062,-404743.5791015625,-770.1370880126954,-6.290510864257813,-3.9881091117858887,-2.731854741573334,-6.110985016046285,-0.034304527908772475,0.0,0.05825997143983841,477.26568603515625,20.973589718341827,-0.2441406399011612,-87.89063036441803,-1643.8724151609756,1,1789158635.0438366,38.990776563333334,-76.93788773166666,-5.843,0,1,9.066121,9.511056,93.528241,1,1,1789158635.1011734,-0.7500157600532279,0.6603109725265682,0.016868290160711293,-0.034369172522049136,175.76505942098137,-1.15090418080592,-82.67857709215392,-0.028208534969507953,-0.07038336914639974,0.2711042616403068,-3.470965758247375,0.5554486651611329,-10.581963923530578
2026-09-11T16:30:35.145,3.275214080000069,-1124.4217529296875,-101197.95776367188,-404791.8310546875,-770.228900756836,-6.382323608398438,-4.015652179718018,-2.7507217431068423,-6.153189296498835,-0.5646346862495003,0.0,0.04722977429628372,386.90631103515625,17.00271874666214,-0.3204346001148224,-115.35645604133606,-821.9725766241805,1,1789158635.0438366,38.990776563333334,-76.93788773166666,-5.843,0,1,9.066121,9.511056,93.528241,1,1,1789158635.1411734,-0.7470221892026533,0.6637541670448784,0.019326618579074455,-0.03185492715003279,175.79900526644047,-0.7685230521219883,-83.21613122535275,0.0007665486074759096,-0.00019879300180215416,0.22980366288573897,-2.372522873630524,-0.05638823843002319,-8.794309665546416
2026-09-11T16:30:35.178,3.3086430719999953,-1124.5560302734375,-101210.04272460938,-404840.1708984375,-770.3208807373047,-6.474303588867188,-4.017518520355225,-2.752000186443329,-6.156049092795557,-0.03824355028382425,0.0,0.0415649488568306,340.50006103515625,14.963381588459015,-0.3356933891773224,-120.84962010383606,-164.32335328902792,1,1789158635.0438366,38.990776563333334,-76.93788773166666,-5.843,0,1,9.066121,9.511056,93.528241,1,1,1789158635.1691732,-0.7449024860850825,0.6659807322757668,0.019499954588582426,-0.03478077389507373,175.53780054594242,-0.9898636960863891,-83.55810360496442,-0.06916809638823608,0.07726380612361178,0.218467923926961,-0.4338462031555176,1.0289137349700928,-9.093804761486053
2026-09-11T16:30:35.211,3.342068096000048,-1124.6910400390625,-101222.19360351562,-404888.7744140625,-770.4133624267579,-6.566785278320313,-4.070363521575928,-2.788199012279511,-6.237023560038269,-1.0829857844267987,0.0,0.03056526929140091,250.39068603515625,11.003496944904327,-0.2899170219898224,-104.37012791633606,493.0285820430206,1,1789158635.0438366,38.990776563333334,-76.93788773166666,-5.843,0,1,9.066121,9.511056,93.528241,1,1,1789158635.2011733,-0.7428795520731746,0.6681607768841562,0.018939141351412593,-0.036502825506962884,175.43671712104404,-1.1826981442103763,-83.89057455826106,0.0013978341979222584,0.09928078557166985,0.19099836136274748,1.7273433594894407,1.0577452864456176,-8.866584677238466
2026-09-11T16:30:35.244,3.375483327999973,-1124.82568359375,-101234.3115234375,-404937.24609375,-770.5055932617188,-6.65901611328125,-4.019490718841553,-2.753351142406464,-6.159071095218461,1.0428737969895114,0.0,0.019653327763080597,161.00006103515625,7.075197994709015,-0.2136230766773224,-76.90430760383606,821.9550985778525,1,1789158635.0438366,38.990776563333334,-76.93788773166666,-5.843,0,1,9.066121,9.511056,93.528241,1,1,1789158635.2411733,-0.7407083289738625,0.6705328012462982,0.020193772046758523,-0.03645744659276372,175.347947851983,-1.0873350323545528,-84.26232958145904,-0.024418377965877067,0.015484386590768492,0.1789440703509234,-0.8810294505310059,-0.40138619112014773,-8.916304393558502
2026-09-11T16:30:35.278,3.4089071359999252,-1124.9608154296875,-101246.47338867188,-404985.8935546875,-770.598158569336,-6.751581420898438,-4.019983768463135,-2.7536888813972475,-6.159826595824187,-0.010104743025815358,0.0,0.017179496586322784,140.73443603515625,6.184618771076202,0.0,0.0,2300.884076522517,1,1789158635.0438366,38.990776563333334,-76.93788773166666,-5.843,0,1,9.066121,9.511056,93.528241,1,1,1789158635.2691734,-0.7391720868470848,0.6721751833470618,0.020711629472857058,-0.03709686405949462,175.25616669894313,-1.103141744000993,-84.51870384540527,-0.013224708808211433,-0.000568802803224952,0.1751338420608946,0.7846300794410705,-0.13935249879837036,-9.516373316955567
2026-09-11T16:30:35.311,3.442316767999955,-1125.0975341796875,-101258.77807617188,-405035.1123046875,-770.691810913086,-6.845233764648438,-4.072071075439453,-2.7893686866760254,-6.239640047145719,-1.067949664298786,0.0,0.017509467899799347,143.43756103515625,6.303408443927765,0.03051757998764515,10.986328795552254,328.8371687405125,1,1789158635.0438366,38.990776563333334,-76.93788773166666,-5.843,0,1,9.066121,9.511056,93.528241,1,1,1789158635.3011732,-0.7372950353275705,0.6742304496941731,0.02170717858667603,-0.036580459050098074,175.22604002320804,-0.9923052897036371,-84.84227926490553,-0.024023235423225552,-0.010680542357579299,0.1934470583032955,1.268882464427948,0.5176930620384216,-10.531557741699219
2026-09-11T16:30:35.345,3.4757318720000967,-1125.235595703125,-101271.20361328125,-405084.814453125,-770.7863830566407,-6.939805908203126,-4.124582290649414,-2.825338869094849,-6.320103053630203,-1.07646477529057,0.0,0.022636421024799347,185.43756103515625,8.149111568927765,0.1373291313648224,49.43848729133606,1150.741847028843,1,1789158635.0438366,38.990776563333334,-76.93788773166666,-5.843,0,1,9.066121,9.511056,93.528241,1,1,1789158635.3411734,-0.7346597170934941,0.6769707279482061,0.023693071636524527,-0.03774085237259054,174.97766853001662,-0.9331725819433112,-85.27867399515816,-0.02518073778314819,-0.04857635280735658,0.2012930114227108,-0.7612902520561219,1.4089214287376404,-9.870785653800965
2026-09-11T16:30:35.378,3.509159711999928,-1125.3756103515625,-101283.80493164062,-405135.2197265625,-770.8822930908203,-7.035715942382813,-4.177093505859375,-2.8613090515136723,-6.400566060114686,-1.0760546424478865,0.0,0.027240760624408722,223.15631103515625,9.80667382478714,0.07629397511482239,27.46583104133606,-657.3160649958539,1,1789158635.0438366,38.990776563333334,-76.93788773166666,-5.843,0,1,9.066121,9.511056,93.528241,1,1,1789158635.3691733,-0.73261121919423,0.6791987834188561,0.023160501785983043,-0.037860339012100966,175.01193125869798,-1.0023895446848847,-85.62310876464016,0.0011623892818282235,-0.06490478062438954,0.2212812201482507,-1.2137690905189515,1.0101830331611634,-10.038773571071626
2026-09-11T16:30:35.411,3.5425731200000428,-1125.5162353515625,-101296.46118164062,-405185.8447265625,-770.9786212158203,-7.132044067382813,-4.2039055824279785,-2.8796753239631654,-6.441650241506716,-0.5496677396519951,0.0,0.029792793095111847,244.06256103515625,10.725405514240265,0.06103518605232239,21.97266697883606,-164.39999363372644,1,1789158635.0438366,38.990776563333334,-76.93788773166666,-5.843,0,1,9.066121,9.511056,93.528241,1,1,1789158635.4011734,-0.7300955544431083,0.6818783613282661,0.02499243072194489,-0.037118191514372484,174.93464192027574,-0.8094133496873277,-86.0525546774722,0.025388781029985912,-0.06583085232549772,0.2438919606078372,1.2033740413475036,1.141886344833374,-9.007996572570802
2026-09-11T16:30:35.445,3.5759824960000515,-1125.6630859375,-101309.677734375,-405238.7109375,-771.0792138671876,-7.23263671875,-4.360893249511719,-2.9872118759155275,-6.682202657291348,-3.218753680174514,0.0,0.030670173466205597,251.25006103515625,11.041262447834015,0.0,0.0,-657.6796579149019,1,1789158635.0438366,38.990776563333334,-76.93788773166666,-5.843,0,1,9.066121,9.511056,93.528241,1,1,1789158635.4411733,-0.7266993709987426,0.6853641394713194,0.026331385984308345,-0.03860930754255192,174.70879189865568,-0.8395774489261395,-86.60773201280112,0.012179431119192029,-0.02143072335231317,0.24879371781206328,1.6537934832763672,2.028211386451721,-10.394951104946136
2026-09-11T16:30:35.478,3.6094098240000676,-1125.814208984375,-101323.27880859375,-405293.115234375,-771.1827331542969,-7.336156005859376,-4.517212390899658,-3.094290487766266,-6.921730690243072,-3.2033254901704034,0.0,0.031454093754291534,257.67193603515625,11.323473751544952,-0.015258791856467724,-5.493165068328381,-164.3315633342195,1,1789158635.0438366,38.990776563333334,-76.93788773166666,-5.843,0,1,9.066121,9.511056,93.528241,1,1,1789158635.4691734,-0.7241437024311032,0.6879108968228141,0.028572265020459692,-0.03972558285798142,174.44202267687768,-0.7605935081940461,-87.02334731391272,-0.07222312071092696,-0.008765392569365921,0.28232498340137835,0.2169231015777588,2.881880283031464,-12.02442409582138
2026-09-11T16:30:35.512,3.6428304959999878,-1125.969482421875,-101337.25341796875,-405349.013671875,-771.2890954589844,-7.442518310546876,-4.648326396942139,-3.184103581905365,-7.12263686002452,-2.6873515331862166,0.0,0.03200531750917435,262.18756103515625,11.521914303302765,0.1373291164636612,49.43848192691803,1643.6428027353143,1,1789158635.0438366,38.990776563333334,-76.93788773166666,-5.843,0,1,9.066121,9.511056,93.528241,1,1,1789158635.5011733,-0.7212692815693418,0.690767730551258,0.030212355774972718,-0.041204119357618495,174.19247389816883,-0.7644895447511453,-87.48630301928155,-0.01845162085208405,0.06359456195491739,0.2925882175348058,0.7454034787940979,2.325156753349304,-12.667544213428497
2026-09-11T16:30:35.545,3.676250687999982,-1126.1278076171875,-101351.50268554688,-405406.0107421875,-771.3975482177735,-7.550971069335938,-4.727077960968018,-3.2380484032630923,-7.243307988688011,-1.6141385829781179,0.0,0.03405953198671341,279.01568603515625,12.261431515216827,0.0610351599752903,21.972657591104507,-821.8332299173609,1,1789158635.0438366,38.990776563333334,-76.93788773166666,-5.843,0,1,9.066121,9.511056,93.528241,1,1,1789158635.5411732,-0.7176787034428006,0.6944885528744149,0.031051673098454337,-0.040727412744348004,174.16893053488315,-0.6875197242702907,-88.08336832576674,-0.022941654885764662,0.012576668056945938,0.28513845415559325,-2.3425145241355896,1.4213758744430542,-8.739784690647125
2026-09-11T16:30:35.578,3.709678943999961,-1126.28759765625,-101365.8837890625,-405463.53515625,-771.5070043945314,-7.660427246093751,-4.781195163726807,-3.2751186871528626,-7.3262318520777985,-1.1089505803052762,0.0,0.036863334476947784,301.98443603515625,13.270800411701202,0.0762939602136612,27.46582567691803,164.32709160229405,1,1789158635.0438366,38.990776563333334,-76.93788773166666,-5.843,0,1,9.066121,9.511056,93.528241,1,1,1789158635.5691733,-0.7151131443192318,0.6971607544743703,0.03080144548332225,-0.04038990218763153,174.21928706094283,-0.7026628186395384,-88.50794868849619,0.03665435775283372,0.002115164520491928,0.2992052843278919,0.004314926071166993,0.27291907400131227,-9.072328197631837
2026-09-11T16:30:35.612,3.7430923199999597,-1126.4476318359375,-101380.28686523438,-405521.1474609375,-771.6166278076172,-7.770050659179688,-4.756106853485107,-3.2579331946372987,-7.287789000172904,0.5143297257830101,0.0,0.03864670544862747,316.59381103515625,13.91281396150589,0.061035171151161194,21.97266161441803,-164.40015108022095,1,1789158635.0438366,38.990776563333334,-76.93788773166666,-5.843,0,1,9.066121,9.511056,93.528241,1,1,1789158635.6011734,-0.7120058871104429,0.7002787260947891,0.03272148157317706,-0.03983248853369034,174.11370635009888,-0.5266652729733905,-89.02141256631604,-0.040067349105108625,0.019478048985181916,0.29638727571762186,-1.46697679769516,0.0542307753944397,-7.75294148487091
2026-09-11T16:30:35.646,3.7765068799999426,-1126.60595703125,-101394.5361328125,-405578.14453125,-771.7250805664063,-7.8785034179687505,-4.757713794708252,-3.259033949375153,-7.2902513183946605,-0.03294236817287603,0.0,0.03947640210390091,323.39068603515625,14.211504757404327,0.045776382088661194,16.47949755191803,-164.3943257820188,1,1789158635.0438366,38.990776563333334,-76.93788773166666,-5.843,0,1,9.066121,9.511056,93.528241,1,1,1789158635.6411734,-0.707943318248078,0.7045417262423064,0.029269110320791346,-0.039755921727973535,174.40230497882348,-0.8352685102542672,-89.68320212241814,0.022813373185743082,0.003578623098289173,0.2981603557047229,2.4999112592315673,-0.8367033917999267,-9.949533054599762
2026-09-11T16:30:35.679,3.8099310079999213,-1126.7601318359375,-101408.41186523438,-405633.6474609375,-771.8306903076173,-7.984113159179688,-4.602973937988281,-3.1530371475219727,-7.053143225487584,3.1712660343224957,0.0,0.03974152356386185,325.56256103515625,14.306948482990265,0.030517585575580597,10.986330807209015,-164.34734646517956,1,1789158635.0438366,38.990776563333334,-76.93788773166666,-5.843,0,1,9.066121,9.511056,93.528241,1,1,1789158635.6691732,-0.7053911560768172,0.707244526709896,0.028779106907947112,-0.03742003972589449,174.6346416253834,-0.7064279676721995,-90.11724275337414,0.007745073088650037,-0.005166523651753615,0.28890225668751895,0.17181251083374025,-0.13395884120941162,-7.454230920944214
2026-09-11T16:30:35.712,3.8433535680001114,-1126.9140625,-101422.265625,-405689.0625,-771.9361328125001,-8.0895556640625,-4.6031813621521,-3.1531792330741886,-7.053461061815912,-0.004251186989118567,0.0,0.04110909253358841,336.76568603515625,14.799273312091827,0.030517585575580597,10.986330807209015,0.0,1,1789158635.0438366,38.990776563333334,-76.93788773166666,-5.843,0,1,9.066121,9.511056,93.528241,1,1,1789158635.7011733,-0.7022278830090521,0.7102337167304998,0.02881395785655486,-0.04017242557334306,174.41265430623568,-0.9509068195296602,-90.60309520681254,-0.05804825465792981,-0.07030517839591038,0.3104984372529212,2.3483985142326356,1.2149458885383606,-10.496646067123413
2026-09-11T16:30:35.746,3.8767744960000527,-1127.0687255859375,-101436.18530273438,-405744.7412109375,-772.0420770263672,-8.195499877929688,-4.628795623779297,-3.1707250022888185,-7.092709829744128,-0.5249934775796983,0.0,0.041807182133197784,342.48443603515625,15.050585567951202,0.0305175818502903,10.986329466104507,-4.012768608485805e-05,1,1789158635.0438366,38.990776563333334,-76.93788773166666,-5.843,0,1,9.066121,9.511056,93.528241,1,1,1789158635.7411733,-0.6982458067670767,0.7140646283404142,0.03211719920697129,-0.03915335745960999,174.2290994809969,-0.6339710235453229,-91.25149393240586,-0.044637144685605375,-0.10143382373693005,0.32107600518463286,-1.8742469789123537,0.44247605529785156,-10.390636178874969
2026-09-11T16:30:35.779,3.9102004159999524,-1127.22412109375,-101450.1708984375,-405800.68359375,-772.1485229492188,-8.301945800781251,-4.629437446594238,-3.1711646509170537,-7.093693295716379,-0.013152925281832808,0.0,0.04383087903261185,359.06256103515625,15.779116451740265,0.1068115383386612,38.45215380191803,821.692397274211,1,1789158635.0438366,38.990776563333334,-76.93788773166666,-5.843,0,1,9.066121,9.511056,93.528241,1,1,1789158635.7691734,-0.6953837441363085,0.7169022728071641,0.032171827309691974,-0.038177914590073934,174.3051866738421,-0.5727459440841184,-91.71737084991966,0.006625793439346074,-0.10108423428775558,0.31466907603348687,-0.2552671037101746,-1.0068487721061705,-5.486134299983978
2026-09-11T16:30:35.812,3.9436250240000845,-1127.3753662109375,-101463.78295898438,-405855.1318359375,-772.2521258544922,-8.405548706054688,-4.5268964767456055,-3.10092408657074,-6.936569628155728,2.1014626213727348,0.0,0.0449676588177681,368.37506103515625,16.188357174396515,0.10681155323982239,38.45215916633606,0.0001604930723425073,1,1789158635.0438366,38.990776563333334,-76.93788773166666,-5.843,0,1,9.066121,9.511056,93.528241,1,1,1789158635.8001733,-0.6919325447641413,0.7202037110647576,0.033248410870138544,-0.03782209988064095,174.24726620103993,-0.4851817785266165,-92.26945492930538,-0.023581841655396184,0.025866303113331563,0.30477829516243504,0.8745570614242554,-4.986387407741546,4.311984076118469
2026-09-11T16:30:35.846,3.977037216000099,-1127.5225830078125,-101477.03247070312,-405908.1298828125,-772.3529693603516,-8.506392211914063,-4.424248695373535,-3.0306103563308717,-6.779282293152444,2.104433323016881,0.0,0.0459289625287056,376.25006103515625,16.534426510334015,-0.0457763709127903,-16.479493528604507,-1644.0601291563573,1,1789158635.0438366,38.990776563333334,-76.93788773166666,-5.843,0,1,9.066121,9.511056,93.528241,1,1,1789158635.8411734,-0.6876879521428508,0.7243757325917511,0.03124362578763906,-0.03726814131906575,174.4607387036583,-0.6314434567580024,-92.94606347793432,0.007750658142256418,0.030960744666977808,0.29129946641513316,-1.5159119820022582,-1.6031911684417723,-8.78509141439438
2026-09-11T16:30:35.879,4.0104615360000935,-1127.6689453125,-101490.205078125,-405960.8203125,-772.4532275390626,-8.606650390625001,-4.373873710632324,-2.9961034917831424,-6.702092635520622,1.0323879303373975,0.0,0.0459442213177681,376.37506103515625,16.539919674396515,0.0457763746380806,16.479494869709015,986.0780532952899,1,1789158635.0438366,38.990776563333334,-76.93788773166666,-5.843,0,1,9.066121,9.511056,93.528241,1,1,1789158635.8691733,-0.6846898640539889,0.7272808295169672,0.02884756149886736,-0.03781802843104729,174.6200990531152,-0.8884289080120321,-93.41377294499105,-0.008014028326382363,0.07498772224608596,0.31371089027414195,-1.0850077738952637,-0.8226798820686341,-8.67349173555374
2026-09-11T16:30:35.913,4.043876191999971,-1127.810791015625,-101502.97119140625,-406011.884765625,-772.5503918457032,-8.703814697265626,-4.270871639251709,-2.925547072887421,-6.54426242145539,2.111541082331685,0.0,0.04654312878847122,381.28131103515625,16.75552636384964,0.061035171151161194,21.97266161441803,164.39393374958618,1,1789158635.0438366,38.990776563333334,-76.93788773166666,-5.843,0,1,9.066121,9.511056,93.528241,1,1,1789158635.9011734,-0.6814357825393651,0.7304135964458659,0.027610252761495122,-0.037133897511910555,174.78144437267053,-0.9521265784454622,-93.93025797912675,0.06817186245119772,0.08028985798071954,0.3021973022645858,-2.231699377307892,-0.04971971632003784,-13.377545685138703
2026-09-11T16:30:35.946,4.077284608000127,-1127.9503173828125,-101515.52856445312,-406062.1142578125,-772.6459674072266,-8.799390258789064,-4.142313480377197,-2.83748473405838,-6.347272579765518,2.6359327789928075,0.0,0.0482330396771431,395.12506103515625,17.363894283771515,0.061035171151161194,21.97266161441803,0.0,1,1789158635.0438366,38.990776563333334,-76.93788773166666,-5.843,0,1,9.066121,9.511056,93.528241,1,1,1789158635.9411733,-0.677297029125102,0.7343959633130777,0.025319323301249207,-0.03591984514630283,175.07450504976788,-1.0578188882255812,-94.58687738745837,0.038309453482499936,0.06081407792356522,0.3029139344554546,-2.852362266044617,-0.2107449119758606,-7.315564887657166
2026-09-11T16:30:35.980,4.110736064000093,-1128.0894775390625,-101528.05297851562,-406112.2119140625,-772.7412921142578,-8.894714965820313,-4.144412994384766,-2.838922901153565,-6.350489667934775,-0.042992660623982534,0.0,0.050580985844135284,414.35943603515625,18.209154903888702,0.1220703274011612,43.94531786441803,656.8520141551461,1,1789158635.0438366,38.990776563333334,-76.93788773166666,-5.843,0,1,9.066121,9.511056,93.528241,1,1,1789158635.9691734,-0.6742321348208824,0.7371416157875679,0.02346301002613312,-0.03850654242441059,175.03523204685118,-1.4400242827688523,-95.04190433275659,-0.06676373081068869,0.0033873350122705947,0.31309862877254235,1.585833397655487,-0.2330060078430176,-8.643679519062042
2026-09-11T16:30:36.013,4.144145600000002,-1128.2259521484375,-101540.33569335938,-406161.3427734375,-772.8347772216797,-8.988200073242188,-4.0942606925964355,-2.8045685744285587,-6.273641227694514,1.0282790735286025,0.0,0.05238724499940872,429.15631103515625,18.85940819978714,0.045776382088661194,16.47949755191803,-822.0952339049372,1,1789158635.0438366,38.990776563333334,-76.93788773166666,-5.843,0,1,9.066121,9.511056,93.528241,1,1,1789158636.0091734,-0.6701706220078768,0.7409704549192186,0.022874443993823327,-0.03620610647881154,175.27065659863345,-1.3176755516786318,-95.69006048267299,0.014538069070337167,-0.02628151694238101,0.3107707086162323,0.9386925534820557,-1.0674538701057434,-9.33220442691803
2026-09-11T16:30:36.047,4.177561120000064,-1128.35888671875,-101552.2998046875,-406209.19921875,-772.9258374023439,-9.07926025390625,-4.017370700836182,-2.7518989300727847,-6.155822588745485,1.5762030444438904,0.0,0.0526428297162056,431.25006103515625,18.951418697834015,0.0,0.0,-493.16896914629183,1,1789158636.0439541,38.99078782666667,-76.93787733,-5.966000000000001,0,1,13.535040999999998,14.107535999999998,76.09072900000001,1,1,1789158636.0411732,-0.666694035512289,0.7441924842946368,0.022541376197822295,-0.03447456585402609,175.43809364772335,-1.2179148552408605,-96.23955680286501,0.09626869634857803,-0.03185295698059731,0.2876723231636386,-2.1225513610076905,-0.2718403424835205,-5.871731784343719
2026-09-11T16:30:36.080,4.21098598399999,-1128.492919921875,-101564.36279296875,-406257.451171875,-773.0176501464845,-9.171072998046876,-3.99261474609375,-2.734941101074219,-6.11788900562414,0.5073417500996705,0.0,0.05215645581483841,427.26568603515625,18.776324093341827,0.015258791856467724,5.493165068328381,164.3436774594072,1,1789158636.0439541,38.99078782666667,-76.93787733,-5.966000000000001,0,1,13.535040999999998,14.107535999999998,76.09072900000001,1,1,1789158636.0691733,-0.6636099184558482,0.7469109001451341,0.024310581931924403,-0.03398498164688794,175.32893652029867,-1.0601481432626911,-96.71633091899503,-0.020350190012403485,-0.09605384631765752,0.3102862052158787,-0.4660120156860352,1.012830828704834,-8.603864519405365
2026-09-11T16:30:36.113,4.244400640000094,-1128.627685546875,-101576.49169921875,-406305.966796875,-773.1099645996094,-9.263387451171877,-4.0719170570373535,-2.7892631840705873,-6.239404044538708,-1.6256963111096674,0.0,0.05166054517030716,423.20318603515625,18.597796261310577,-0.1068115308880806,-38.452151119709015,-1315.1509381961,1,1789158636.0439541,38.99078782666667,-76.93787733,-5.966000000000001,0,1,13.535040999999998,14.107535999999998,76.09072900000001,1,1,1789158636.1091733,-0.6592945224384027,0.7507363446536384,0.024972509521980647,-0.033197097267486445,175.3378272971979,-0.9692649269840562,-97.38152084424641,0.023765624825631188,-0.058384230538938715,0.2963932098370786,-9.767619694099427,0.28184312564849856,-15.284644942092894
2026-09-11T16:30:36.147,4.277815231999966,-1128.763427734375,-101588.70849609375,-406354.833984375,-773.202947998047,-9.356370849609375,-4.046859264373779,-2.772098596096039,-6.20100795476028,0.5136853975237576,0.0,0.0525360181927681,430.37506103515625,18.912966549396515,0.1220703199505806,43.945315182209015,2465.9126857581878,1,1789158636.0439541,38.99078782666667,-76.93787733,-5.966000000000001,0,1,13.535040999999998,14.107535999999998,76.09072900000001,1,1,1789158636.1411734,-0.6559563355041335,0.7536291724584792,0.025889341117126784,-0.03307715749664267,175.271935143433,-0.9105408568844413,-97.89000240434643,0.07581884803588568,-0.046388931655832084,0.3094255833617203,0.08502365690231324,0.30204482498168944,-9.171571497268676
2026-09-11T16:30:36.180,4.311240448000035,-1128.90087890625,-101601.0791015625,-406404.31640625,-773.2971020507813,-9.450524902343751,-4.09899377822876,-2.8078107380867006,-6.280893741246191,-1.0684191836064179,0.0,0.055830009281635284,457.35943603515625,20.098803341388702,0.0610351637005806,21.972658932209015,-657.3676666728137,1,1789158636.0439541,38.99078782666667,-76.93787733,-5.966000000000001,0,1,13.535040999999998,14.107535999999998,76.09072900000001,1,1,1789158636.1691732,-0.6526918951424481,0.756400734002334,0.029168637485022887,-0.031629261821255535,175.09989424133528,-0.5599334740281673,-98.39477026914173,-0.06856438699997125,-0.15175184060485175,0.3172882916419547,0.26526988687515257,0.6938204989433288,-8.114512676334382
2026-09-11T16:30:36.214,4.3446611839999605,-1129.04052734375,-101613.6474609375,-406454.58984375,-773.3927612304689,-9.546184082031251,-4.178141117095947,-2.862026665210724,-6.402171316237296,-1.622224212062367,0.0,0.05778122693300247,473.34381103515625,20.80124169588089,0.04577639698982239,16.47950291633606,-164.36370569113762,1,1789158636.0439541,38.99078782666667,-76.93787733,-5.966000000000001,0,1,13.535040999999998,14.107535999999998,76.09072900000001,1,1,1789158636.2091732,-0.6479575606133527,0.760320932513734,0.03340011958597989,-0.03078167047256073,174.797236401052,-0.2019208733686921,-99.1145006272857,0.009668076858497389,-0.06034406075600315,0.29392321987965625,-1.3243881043434143,0.9722312970352174,-6.501220658226013
2026-09-11T16:30:36.247,4.378075264000017,-1129.181640625,-101626.34765625,-406505.390625,-773.489423828125,-9.642846679687501,-4.232157230377197,-2.89902770280838,-6.484940280083163,-1.107348686469692,0.0,0.05646134167909622,462.53131103515625,20.32608300447464,-0.1373291015625,-49.4384765625,-1972.760569158986,1,1789158636.0439541,38.99078782666667,-76.93787733,-5.966000000000001,0,1,13.535040999999998,14.107535999999998,76.09072900000001,1,1,1789158636.2411437,-0.6437375010334951,0.7638710523891313,0.03394869904327863,-0.030830681444635945,174.7466917757771,-0.19441806173951642,-99.74735301621006,0.06380976105168829,-0.05874080130512116,0.35653551053155125,3.631500621395111,2.0712625806617737,-19.86974422521591
2026-09-11T16:30:36.281,4.411502240000118,-1129.3228759765625,-101639.05883789062,-406556.2353515625,-773.5861700439453,-9.739592895507814,-4.2332587242126465,-2.899782226085663,-6.486628100585317,-0.022572286445555482,0.0,0.05555153638124466,455.07818603515625,19.998553097248077,-0.3662109673023224,-131.83594822883606,-2464.9992768142665,1,1789158636.0439541,38.99078782666667,-76.93787733,-5.966000000000001,0,1,13.535040999999998,14.107535999999998,76.09072900000001,1,1,1789158636.2691436,-0.6403068546535174,0.7667127908636336,0.035249666370895494,-0.03026696599525707,174.6745361244518,-0.07281917013809594,-100.26389766802987,0.2061849947831257,-0.012283278209685692,0.2746408223036229,-4.580490157546997,1.124822773551941,-4.667573210983276
2026-09-11T16:30:36.314,4.444923263999954,-1129.465087890625,-101651.85791015625,-406607.431640625,-773.6835852050782,-9.837008056640625,-4.286910057067871,-2.9365333890914918,-6.568838110888262,-1.0996420398731461,0.0,0.054876334965229034,449.54693603515625,19.755480587482452,-0.061035171151161194,-21.97266161441803,3287.2507621238196,1,1789158636.0439541,38.99078782666667,-76.93787733,-5.966000000000001,0,1,13.535040999999998,14.107535999999998,76.09072900000001,1,1,1789158636.3091435,-0.6353681242381092,0.7707038143975828,0.03807004128227126,-0.02955755625773057,174.4772089780945,0.1613874548673381,-101.00345290244503,0.09853361011889107,-0.21944234124834944,0.30452051003191544,2.9161054920959475,3.4807724084091185,-8.643581452560424
2026-09-11T16:30:36.347,4.478389568000011,-1129.611572265625,-101665.04150390625,-406660.166015625,-773.7839270019532,-9.937349853515625,-4.313282012939453,-2.9545981788635256,-6.609247894737657,-0.5397904044618329,0.0,0.053937919437885284,441.85943603515625,19.417650997638702,0.0762939527630806,27.465822994709015,1477.2615646185989,1,1789158636.0439541,38.99078782666667,-76.93787733,-5.966000000000001,0,1,13.535040999999998,14.107535999999998,76.09072900000001,1,1,1789158636.3411436,-0.631856123468961,0.7734761694160185,0.04302135266837173,-0.025330175579396888,174.34297379350363,0.8699000009887682,-101.55190172030456,0.07354224055958426,-0.18706072403732307,0.3111216943288084,-1.6597755398750307,0.20289959184646605,-9.834010715694427
2026-09-11T16:30:36.382,4.511812288000101,-1129.754638671875,-101677.91748046875,-406711.669921875,-773.8819274902345,-10.035350341796876,-4.262875556945801,-2.920069756507874,-6.532010013662918,1.033082357018193,0.0,0.05160713940858841,422.76568603515625,18.578570187091827,-0.1678466945886612,-60.42481005191803,-2629.6672756254247,1,1789158636.0439541,38.99078782666667,-76.93787733,-5.966000000000001,0,1,13.535040999999998,14.107535999999998,76.09072900000001,1,1,1789158636.3691437,-0.6287450487501468,0.7761112817946655,0.04254817238119675,-0.02281655035794929,174.56299306604632,1.036396285830572,-102.02580572417091,0.10381602363297711,-0.10941870506480411,0.2836648726681344,2.571892071418762,-0.9072132064628601,-8.976909491558075
2026-09-11T16:30:36.415,4.545232224000074,-1129.8936767578125,-101690.43090820312,-406761.7236328125,-773.9771685791017,-10.130591430664063,-4.160132884979248,-2.849691026210785,-6.374577277672651,2.1058906365693164,0.0,0.04518318921327591,370.14068603515625,16.265948116779327,-0.1678467094898224,-60.42481541633606,-0.000160515508760684,1,1789158636.0439541,38.99078782666667,-76.93787733,-5.966000000000001,0,1,13.535040999999998,14.107535999999998,76.09072900000001,1,1,1789158636.4091437,-0.6250643306827651,0.7791021711436409,0.04209763905954378,-0.02285121906998143,174.59602796599236,0.9752554300901222,-102.56671877802815,0.07720411586319358,-0.06439549354865758,0.2389650706623824,0.14562875490188598,0.2774301330757141,-16.277862470474243
2026-09-11T16:30:36.447,4.5786402240000825,-1130.0360107421875,-101703.24096679688,-406812.9638671875,-774.0746673583985,-10.228090209960937,-4.2400078773498535,-2.90440539598465,-6.496969837116694,-1.637762505203874,0.0,0.0384979322552681,315.37506103515625,13.859255611896515,-0.2746582329273224,-98.87696385383606,-1150.9862439382832,1,1789158636.0439541,38.99078782666667,-76.93787733,-5.966000000000001,0,1,13.535040999999998,14.107535999999998,76.09072900000001,1,1,1789158636.4411435,-0.6222565818138057,0.7811972220042425,0.043159996676246225,-0.02578490661528832,174.28780332500133,0.7693329286382007,-102.96077768157511,0.0017058848108992576,0.019651534712830154,0.25491388936710657,2.154030708026886,1.5089492603874206,-9.834795247707365
2026-09-11T16:30:36.481,4.612058687999934,-1130.1787109375,-101716.083984375,-406864.3359375,-774.1724169921876,-10.325839843750002,-4.267021656036377,-2.9229098343849182,-6.538363086938339,-0.553718997987178,0.0,0.02510262280702591,205.64068603515625,9.036944210529327,-0.5645752549171448,-203.24709177017212,-3123.1276194142533,1,1789158636.0439541,38.99078782666667,-76.93787733,-5.966000000000001,0,1,13.535040999999998,14.107535999999998,76.09072900000001,1,1,1789158636.4691436,-0.6206072384296945,0.7823320924338177,0.0455749445490165,-0.026945819455841773,173.98632087956923,0.8254958630150318,-103.19493759228912,-0.00039933133285630264,-0.012331798362891134,0.18149015666373275,-0.661360486907959,0.7722737002372742,-10.157434038028718
2026-09-11T16:30:36.515,4.645476959999996,-1130.319580078125,-101728.76220703125,-406915.048828125,-774.2689123535157,-10.422335205078125,-4.190328121185303,-2.8703747630119327,-6.420845479178439,1.5720463156469324,0.0,0.010322578251361847,84.56256103515625,3.716128170490265,-0.061035215854644775,-21.97267770767212,5424.410156879452,1,1789158636.0439541,38.99078782666667,-76.93787733,-5.966000000000001,0,1,13.535040999999998,14.107535999999998,76.09072900000001,1,1,1789158636.5091436,-0.618704344460734,0.7838807735055526,0.04367514681861876,-0.028781046265241073,174.0252440113431,0.5112105303762026,-103.45976263862705,-0.003360107875939483,0.040491638646268445,0.15914906957357933,0.36608225053787236,-0.9719370975303651,-9.54294933889389
2026-09-11T16:30:36.548,4.67887798400011,-1130.4544677734375,-101740.90209960938,-406963.6083984375,-774.3613104248047,-10.514733276367188,-4.061542510986328,-2.782156620025635,-6.223507113514746,2.6411807909241984,0.0,0.009588249027729034,78.54693603515625,3.4517696499824524,-0.01525880303233862,-5.493169091641903,493.3833350730275,1,1789158636.0439541,38.99078782666667,-76.93787733,-5.966000000000001,0,1,13.535040999999998,14.107535999999998,76.09072900000001,1,1,1789158636.5411437,-0.6172652984073954,0.7850114074555011,0.04253397808476584,-0.03052052186721213,174.00400559223604,0.26307917684014764,-103.65686126848588,-0.03059160753018101,-0.09382296646775837,0.11414750014015754,2.213360941505432,1.2447581050300598,-8.200615064754487
2026-09-11T16:30:36.581,4.712285216000055,-1130.5892333984375,-101753.03100585938,-407012.1240234375,-774.4536248779298,-10.607047729492189,-4.00995397567749,-2.746818473339081,-6.1444579306976514,1.0577993018581147,0.0,0.00976753979921341,80.01568603515625,3.5163143277168274,0.04577639698982239,16.47950291633606,657.722016837975,1,1789158636.0439541,38.99078782666667,-76.93787733,-5.966000000000001,0,1,13.535040999999998,14.107535999999998,76.09072900000001,1,1,1789158636.5691435,-0.6164570739598956,0.7856592230560703,0.04226541092385755,-0.03055971582284739,174.02521399398867,0.23437350394011836,-103.77416548540167,-0.0029211575690629094,-0.01737492723652875,0.11134607215778144,-3.81939603849411,-0.8232682810783386,-9.839404373283385
2026-09-11T16:30:36.614,4.745687904000079,-1130.723388671875,-101765.10498046875,-407060.419921875,-774.5455212402344,-10.698944091796875,-3.983699083328247,-2.7288338720798495,-6.1042275234427485,0.5384177841980476,0.0,0.009244926273822784,75.73443603515625,3.3281734585762024,0.0,0.0,-493.35858588160124,1,1789158636.0439541,38.99078782666667,-76.93787733,-5.966000000000001,0,1,13.535040999999998,14.107535999999998,76.09072900000001,1,1,1789158636.6091437,-0.6146882764840096,0.7869819337043928,0.043075904020561384,-0.031019756105159373,173.91891637332415,0.23677726556326759,-104.02789500389225,-0.022486996615620144,-0.08961445404242445,0.1160701548441545,-1.1785632164382933,0.34539021869659425,-9.80792502626419
2026-09-11T16:30:36.648,4.779094175999944,-1130.8563232421875,-101777.06909179688,-407108.2763671875,-774.6365814208986,-10.790004272460939,-3.9836461544036865,-2.7287976157665255,-6.104146420379658,0.0010853145578229011,0.0,0.00979042798280716,80.20318603515625,3.5245540738105774,0.0762939527630806,27.465822994709015,822.175638000539,1,1789158636.0439541,38.99078782666667,-76.93787733,-5.966000000000001,0,1,13.535040999999998,14.107535999999998,76.09072900000001,1,1,1789158636.6411436,-0.6131383966208515,0.7881780223528503,0.04278928860382864,-0.03171416796858462,173.89551944840466,0.1420186918556422,-104.24754671225772,-0.04224045855676676,-0.04935686404884844,0.1427501304547658,2.2988749309158325,0.20329185785293577,-8.104313760166168
2026-09-11T16:30:36.681,4.812509247999969,-1130.9871826171875,-101788.84643554688,-407155.3857421875,-774.7262200927735,-10.879642944335938,-3.907644748687744,-2.6767366528511047,-5.987689363034855,1.5580084015794247,0.0,0.01529122143983841,125.26568603515625,5.504839718341827,0.2441406548023224,87.89063572883606,1808.3101162876856,1,1789158636.0439541,38.99078782666667,-76.93787733,-5.966000000000001,0,1,13.535040999999998,14.107535999999998,76.09072900000001,1,1,1789158636.6691437,-0.6117574529440022,0.7893707542902954,0.04233048787578539,-0.02923629311036303,174.11099986937194,0.3228882585686776,-104.46568241693402,0.009977349201950784,-0.07036835931483258,0.17150565161184878,-1.5332697527885435,-0.5223021876144409,-9.94502199552536
2026-09-11T16:30:36.715,4.8459240320000845,-1131.1158447265625,-101800.42602539062,-407201.7041015625,-774.8143536376954,-10.967776489257814,-3.8565220832824707,-2.6417176270484926,-5.909354033304603,1.048009940824144,0.0,0.020299918949604034,166.29693603515625,7.307970821857452,0.030517607927322388,10.98633885383606,-2301.5051324208794,1,1789158636.0439541,38.99078782666667,-76.93787733,-5.966000000000001,0,1,13.535040999999998,14.107535999999998,76.09072900000001,1,1,1789158636.7091436,-0.6096892187425467,0.7910940884508709,0.04206072505639308,-0.026078634452738045,174.35568335372585,0.574493442767621,-104.7860735321225,0.018045657268070173,0.003408977094995324,0.1918432752536379,-0.07855126779556275,-0.6210551547431945,-10.658848060798645
2026-09-11T16:30:36.748,4.879331072000014,-1131.242431640625,-101811.81884765625,-407247.275390625,-774.9010656738282,-11.054488525390626,-3.8311681747436523,-2.624350199699402,-5.870504204767804,0.5198732766844151,0.0,0.022735603153705597,186.25006103515625,8.184817135334015,0.0,0.0,-328.8629837860335,1,1789158636.0439541,38.99078782666667,-76.93787733,-5.966000000000001,0,1,13.535040999999998,14.107535999999998,76.09072900000001,1,1,1789158636.7411437,-0.6076203348991743,0.7927497156112187,0.04176599866956188,-0.024515676015178043,174.49001633205603,0.6810422563205341,-105.09447554788987,0.06098372392685907,0.04685859975754376,0.20166930440944078,-1.4042142366600037,0.8590625541687011,-10.703958651542663
2026-09-11T16:30:36.781,4.912740896000059,-1131.3680419921875,-101823.12377929688,-407292.4951171875,-774.9871087646485,-11.140531616210938,-3.780215263366699,-2.589447455406189,-5.792428989366021,1.0446850690732532,0.0,0.025409705936908722,208.15631103515625,9.14749413728714,-0.03051757998764515,-10.986328795552254,-328.8352789747471,1,1789158636.0439541,38.99078782666667,-76.93787733,-5.966000000000001,0,1,13.535040999999998,14.107535999999998,76.09072900000001,1,1,1789158636.7691436,-0.6058794966857225,0.7940807412197156,0.042313336733923984,-0.023566787100587325,174.50454123171446,0.7933256827888817,-105.35118688704561,0.04122956385401165,0.027076339883739232,0.16819546015251632,0.09031924798965453,0.46483521766662594,-9.601593106861115
2026-09-11T16:30:36.815,4.9461457279999195,-1131.4947509765625,-101834.52758789062,-407338.1103515625,-775.0739044189454,-11.227327270507814,-3.7815396785736084,-2.590354679822922,-5.794458392588849,-0.027158478651734125,0.0,0.028980262577533722,237.40631103515625,10.43289452791214,-0.03051757998764515,-10.986328795552254,0.0,1,1789158636.0439541,38.99078782666667,-76.93787733,-5.966000000000001,0,1,13.535040999999998,14.107535999999998,76.09072900000001,1,1,1789158636.8091435,-0.6027641287096187,0.7964191432299282,0.040911111352132136,-0.026799895629923,174.40621415250448,0.3799655306243327,-105.77856913580796,0.13273508214097196,0.16824921629347778,0.2125636496003894,-0.35500073585510256,1.5619051712608336,-12.298519967842102
2026-09-11T16:30:36.849,4.979561696000019,-1131.6219482421875,-101845.97534179688,-407383.9013671875,-775.1610345458985,-11.314457397460938,-3.756979465484619,-2.5735309338569645,-5.756824744669295,0.503464270911064,0.0,0.030429847538471222,249.28131103515625,10.95474511384964,0.1068115383386612,38.45215380191803,1479.4867710348312,1,1789158636.0439541,38.99078782666667,-76.93787733,-5.966000000000001,0,1,13.535040999999998,14.107535999999998,76.09072900000001,1,1,1789158636.8411436,-0.6002199194742887,0.798340653405065,0.03858045384670888,-0.02999663261158236,174.39844187408335,-0.09061610658117404,-106.12136197644209,0.10222236349298108,0.17599202045410023,0.23289132486544217,2.058513935451508,-0.2642892218589783,-14.033708647460939
2026-09-11T16:30:36.882,5.012980896000045,-1131.7454833984375,-101857.09350585938,-407428.3740234375,-775.2456561279297,-11.399078979492188,-3.7065608501434326,-2.5389941823482514,-5.67956823180979,1.0334404027830277,0.0,0.02993965893983841,245.26568603515625,10.778277218341827,0.030517593026161194,10.98633348941803,-821.8575044429205,1,1789158636.0439541,38.99078782666667,-76.93787733,-5.966000000000001,0,1,13.535040999999998,14.107535999999998,76.09072900000001,1,1,1789158636.8691437,-0.5984959661333648,0.7996689925829018,0.03759902141138375,-0.030305022891324043,174.4675787912275,-0.19837264940341426,-106.36587568723368,0.029042453286110843,0.16800452113234815,0.1837580374937742,0.23388860635757447,0.43247327213287357,-8.11304167881012
2026-09-11T16:30:36.915,5.046383008000021,-1131.870849609375,-101868.37646484375,-407473.505859375,-775.3315319824219,-11.484954833984377,-3.7603108882904053,-2.5758129584789278,-5.761929488365526,-1.1022888651682488,0.0,0.029594428837299347,242.43756103515625,10.653994381427765,-0.015258789993822575,-5.493164397776127,-493.36694300066836,1,1789158636.0439541,38.99078782666667,-76.93787733,-5.966000000000001,0,1,13.535040999999998,14.107535999999998,76.09072900000001,1,1,1789158636.9091437,-0.5953535406234476,0.8018143525851811,0.03770252397323311,-0.0350203561029799,174.13606944310143,-0.6455644067255487,-106.77857477936665,-0.06439828607546078,0.10030302491456293,0.19478467864202395,-1.6518321532440186,1.1406114803123473,-8.651524839191437
2026-09-11T16:30:36.948,5.0797834879999755,-1131.9989013671875,-101879.90112304688,-407519.6044921875,-775.4192474365235,-11.572670288085938,-3.839458465576172,-2.630029048919678,-5.883207428685744,-1.6232129131324964,0.0,0.029697425663471222,243.28131103515625,10.69107323884964,-0.1220703274011612,-43.94531786441803,-1151.2455349951251,1,1789158636.0439541,38.99078782666667,-76.93787733,-5.966000000000001,0,1,13.535040999999998,14.107535999999998,76.09072900000001,1,1,1789158636.9411435,-0.5929304806952889,0.803520043417533,0.039883408753333495,-0.03461644977397329,173.96429582883476,-0.47749967318792097,-107.12638966248925,-0.0022636920398366456,-0.00964608570992226,0.21541115427501814,-4.360723127422333,-0.4257066835212707,-11.685310133228302
2026-09-11T16:30:36.982,5.113190911999936,-1132.1275634765625,-101891.48071289062,-407565.9228515625,-775.5073809814454,-11.660803833007813,-3.866943120956421,-2.6488560378551487,-5.925322203505605,-0.5635570385640233,0.0,0.03487587720155716,285.70318603515625,12.555315792560577,0.10681155323982239,38.45215916633606,2466.4421007393616,1,1789158636.0439541,38.99078782666667,-76.93787733,-5.966000000000001,0,1,13.535040999999998,14.107535999999998,76.09072900000001,1,1,1789158636.9691436,-0.5905461392822213,0.8051415428446148,0.041965157336242884,-0.03523178869147863,173.73134171003477,-0.4107243086888244,-107.4597453099602,-0.04133742520178489,-0.09445320486065352,0.2283217038178706,0.5420135544395447,0.7483454738426208,-7.713420684719085
2026-09-11T16:30:37.016,5.14660652800012,-1132.2568359375,-101903.115234375,-407612.4609375,-775.5959326171876,-11.74935546875,-3.8681623935699463,-2.6496912395954135,-5.92719049658959,-0.024994354144489195,0.0,0.03910065442323685,320.31256103515625,14.076235592365265,0.015258817933499813,5.493174456059933,-986.3347935915559,1,1789158636.0439541,38.99078782666667,-76.93787733,-5.966000000000001,0,1,13.535040999999998,14.107535999999998,76.09072900000001,1,1,1789158637.0131435,-0.5867224261137017,0.8077895316786587,0.04491124204297823,-0.03486900548886014,173.48431145702875,-0.20814281497907997,-108.00403276824841,-0.018091035828622024,-0.14082503228981608,0.23963353176589627,-0.34578248470306394,0.6246836153030396,-10.594712568740844
2026-09-11T16:30:37.048,5.180007552000006,-1132.3856201171875,-101914.70581054688,-407658.8232421875,-775.6841497802735,-11.837572631835938,-3.8693392276763916,-2.6504973709583286,-5.9289937610914585,-0.02413492960329072,0.0,0.0399017408490181,326.87506103515625,14.364626705646515,0.0762939527630806,27.465822994709015,657.8435600873798,1,1789158637.0394013,38.99079655333333,-76.93786404333333,-5.837,0,1,18.541636,37.785609,153.23964099999998,1,1,1789158637.0411437,-0.5841478519450378,0.8095647017567399,0.046549196757075105,-0.034777191071016234,173.33872594683825,-0.11032572974789101,-108.36831495223235,-0.0029773571709771265,-0.1285920195625878,0.23701082549892438,-0.6004611894035339,0.8032627147483825,-8.802743384685517
2026-09-11T16:30:37.082,5.213414975999967,-1132.5166015625,-101926.494140625,-407705.9765625,-775.7738720703126,-11.927294921875001,-3.895595073699951,-2.668482625484467,-5.969225629662813,-0.5383610100006323,0.0,0.0400695875287056,328.25006103515625,14.425051510334015,0.0,0.0,-822.1472866253074,1,1789158637.0394013,38.99079655333333,-76.93786404333333,-5.837,0,1,18.541636,37.785609,153.23964099999998,1,1,1789158637.0691435,-0.5813848375148357,0.8114060017481827,0.04837656068681742,-0.035660614282298074,173.1095536824972,-0.09280059145374925,-108.75005681086647,-0.011695625850539201,-0.10091912614051692,0.2468838040116059,-0.591144871749878,1.288691897754669,-10.592849305210114
2026-09-11T16:30:37.116,5.246819008000102,-1132.648193359375,-101938.33740234375,-407753.349609375,-775.8640124511719,-12.017435302734375,-3.92146897315979,-2.6862062466144563,-6.0088722409951085,-0.5305832879670861,0.0,0.03963661938905716,324.70318603515625,14.269182980060577,0.015258789993822575,5.493164397776127,164.44614823006788,1,1789158637.0394013,38.99079655333333,-76.93786404333333,-5.837,0,1,18.541636,37.785609,153.23964099999998,1,1,1789158637.1091437,-0.5779991287874695,0.8136593798165532,0.05246112190432988,-0.033514943622317606,172.87026249371337,0.349819780586233,-109.24411383703558,0.029424331326447204,-0.06646615217322366,0.23529516684421395,-0.6438065831184387,0.7163757943153382,-9.570898291854858
2026-09-11T16:30:37.149,5.280227967999963,-1132.7833251953125,-101950.49926757812,-407801.9970703125,-775.9565777587891,-12.110000610351564,-4.026643753051758,-2.758250970840454,-6.170031699267294,-2.156449174900938,0.0,0.039587028324604034,324.29693603515625,14.251330196857452,0.030517593026161194,10.98633348941803,164.4220320436441,1,1789158637.0394013,38.99079655333333,-76.93786404333333,-5.837,0,1,18.541636,37.785609,153.23964099999998,1,1,1789158637.1411436,-0.5751806591189801,0.8154460931195138,0.054953133711944734,-0.03456923034743752,172.5654959793735,0.39174986297519776,-109.63045162292275,0.02642655380322174,-0.02651870718772704,0.22895246580954134,-0.617524760684967,1.760784036540985,-9.791155654487609
2026-09-11T16:30:37.182,5.313632736000045,-1132.920654296875,-101962.85888671875,-407851.435546875,-776.0506481933594,-12.204071044921877,-4.132206439971924,-2.830561411380768,-6.331785548006364,-2.1646742327363557,0.0,0.0390930250287056,320.25006103515625,14.073489010334015,0.0,0.0,-328.885190562946,1,1789158637.0394013,38.99079655333333,-76.93786404333333,-5.837,0,1,18.541636,37.785609,153.23964099999998,1,1,1789158637.1691437,-0.5726807190756226,0.8169836972762372,0.05734037570479538,-0.03586800381831084,172.2542460314037,0.4049874993143964,-109.96884278896368,-0.03448386629505357,0.007415903991723906,0.22168718373226454,-1.3506699267768858,2.015462741241455,-10.996491025867462
2026-09-11T16:30:37.216,5.3470391680000375,-1133.0672607421875,-101976.05346679688,-407904.2138671875,-776.1510736083985,-12.304496459960939,-4.366852283477783,-2.991293814182282,-6.691333693142176,-4.811420830621778,0.0,0.03787613660097122,310.28131103515625,13.63540917634964,-0.0610351599752903,-21.972657591104507,-657.7373360647867,1,1789158637.0394013,38.99079655333333,-76.93786404333333,-5.837,0,1,18.541636,37.785609,153.23964099999998,1,1,1789158637.2091436,-0.5689450878096668,0.8191241634199343,0.061345211753565096,-0.03967186602307844,171.62550732309455,0.2756937811637585,-110.45424741082917,-0.09270403588430481,0.01730144887501979,0.23166278760496337,-0.9717409645271301,3.1192012169456484,-11.42612036945343
2026-09-11T16:30:37.250,5.3804508160001205,-1133.2198486328125,-101989.78637695312,-407959.1455078125,-776.2555963134766,-12.409019165039064,-4.524242877960205,-3.099106371402741,-6.932503515127813,-3.2267955540592097,0.0,0.037687309086322784,308.73443603515625,13.567431271076202,0.0,0.0,657.6346545686678,1,1789158637.0394013,38.99079655333333,-76.93786404333333,-5.837,0,1,18.541636,37.785609,153.23964099999998,1,1,1789158637.2411437,-0.5660309279048181,0.8208470937392557,0.06399509996926497,-0.04151703909182117,171.2535795522907,0.245692496845922,-110.84088355308025,0.04976247856701192,0.018827913838814027,0.24096870864367192,-0.22241482566833495,1.8703243188476562,-8.368602982025147
2026-09-11T16:30:37.283,5.413863327999934,-1133.37548828125,-102003.7939453125,-408015.17578125,-776.3622094726563,-12.515632324218751,-4.628666400909424,-3.1706364846229556,-7.092511821364871,-2.140818182739868,0.0,0.03765297681093216,308.45318603515625,13.555071651935577,0.030517585575580597,10.986330807209015,328.8088847456414,1,1789158637.0394013,38.99079655333333,-76.93786404333333,-5.837,0,1,18.541636,37.785609,153.23964099999998,1,1,1789158637.2811437,-0.5623848004006264,0.823231229110767,0.06596941900308119,-0.04076414418970606,171.1139222848462,0.40587317631271086,-111.35419750686594,0.07074953922346815,-0.04129187210830785,0.2626469196839179,-2.436266099681854,1.169835297794342,-9.22148734659195
2026-09-11T16:30:37.316,5.447283424000034,-1133.533935546875,-102018.05419921875,-408072.216796875,-776.4707458496094,-12.624168701171875,-4.733837127685547,-3.2426784324646,-7.253665069042135,-2.155647543365196,0.0,0.03766060620546341,308.51568603515625,13.557818233966827,0.015258789993822575,5.493164397776127,-164.3671642779384,1,1789158637.0394013,38.99079655333333,-76.93786404333333,-5.837,0,1,18.541636,37.785609,153.23964099999998,1,1,1789158637.3081436,-0.5596692102811518,0.8251526747683638,0.0660549320950385,-0.039117570627616394,171.21058110211678,0.537550431856567,-111.74625253358599,0.05788017945096275,-0.07341535512296428,0.27718411608962906,-2.3609510264396665,1.1417882783317566,-10.534009404239654
