timestamp,time_s,drive_pos_turns,drive_encoder_count,drive_wheel_angle_deg,drive_distance_m,drive_distance_since_start_m,drive_velocity_turns_s,drive_velocity_mps,drive_velocity_mph,drive_acceleration_mps2,drive_iq_A,steer_pos_turns,steer_encoder_count,steer_angle_deg,steer_velocity_turns_s,steer_velocity_deg_s,steer_acceleration_deg_s2,gps_received,gps_ros_stamp_s,gps_latitude_deg,gps_longitude_deg,gps_altitude_m,gps_status,gps_service,gps_cov_x_m2,gps_cov_y_m2,gps_cov_z_m2,gps_covariance_type,imu_received,imu_ros_stamp_s,imu_qx,imu_qy,imu_qz,imu_qw,imu_roll_deg,imu_pitch_deg,imu_yaw_deg,imu_gyro_x_rad_s,imu_gyro_y_rad_s,imu_gyro_z_rad_s,imu_accel_x_mps2,imu_accel_y_mps2,imu_accel_z_mps2
2026-09-11T16:34:18.941,8.704000038051163e-06,-1486.60107421875,-133794.0966796875,-535176.38671875,-1018.3217358398439,-0.001170654296875,-0.36643362045288086,-0.2510070300102234,-0.5614867349906566,0.0,0.0,-0.2854900360107422,-2338.734375,-102.77641296386719,1.0375977754592896,373.53519916534424,1087.379737037323,0,nan,nan,nan,nan,-999,-999,nan,nan,nan,-999,1,1789158858.9328313,-0.9642995081302543,0.2640023592748939,-0.018297371669903646,0.009716949470534567,-178.37177159473228,-1.7281708312365274,-30.646654961478788,-0.011419514762873699,-0.028035921906485715,-0.03992981716005147,-0.4406127917671203,0.3981499965667724,-9.692598820362091
2026-09-11T16:34:18.976,0.03342812799996864,-1486.6134033203125,-133795.20629882812,-535180.8251953125,-1018.3301812744141,-0.0096160888671875,-0.36643362045288086,-0.2510070300102234,-0.5614867349906566,0.0,0.0,-0.2622394561767578,-2148.265625,-94.40620422363281,0.8850098848342896,318.60355854034424,-1643.7039915802886,0,nan,nan,nan,nan,-999,-999,nan,nan,nan,-999,1,1789158858.9728315,-0.9636043081704282,0.26651404328950445,-0.01907318202106365,0.008556619219178996,-178.4716968062422,-1.8450758092854624,-30.94541096021429,-0.009306444637484165,-0.005448917924726297,-0.038597258276153804,-0.05834956846237183,0.24722565057754517,-9.614930151081087
2026-09-11T16:34:19.009,0.06684662399993613,-1486.623046875,-133796.07421875,-535184.296875,-1018.3367871093751,-0.016221923828125002,-0.31488674879074097,-0.21569742292165758,-0.4825013934360624,1.0565887551791728,0.0,-0.2317352294921875,-1898.375,-83.4246826171875,0.5950928926467896,214.23344135284424,-3123.124307796543,0,nan,nan,nan,nan,-999,-999,nan,nan,nan,-999,1,1789158859.0008314,-0.963081464474655,0.268459268056411,-0.01843300430063724,0.00799615735354638,-178.5496170031254,-1.7885882687502745,-31.17429933183447,-0.00962095296869354,0.007778757943213527,-0.035176762008095316,-0.5574099951934814,0.38138062479019164,-9.610517158508301
2026-09-11T16:34:19.044,0.10026841599983527,-1486.636474609375,-133797.28271484375,-535189.130859375,-1018.3459851074219,-0.025419921875,-0.44505152106285095,-0.3048602919280529,-0.6819530510201606,-2.6678063524141495,0.0,-0.20511817932128906,-1680.328125,-73.84254455566406,0.7781983613967896,280.15141010284424,1972.3050382875617,1,1789158859.0378122,38.99077348833333,-76.93787649166667,-4.347000000000001,0,1,11.758040999999999,33.535681000000004,132.411049,1,1,1789158859.0408313,-0.9621971702227847,0.2715918927367749,-0.01886136988951565,0.007661471191126151,-178.5673534023441,-1.8415241645807559,-31.54776102607334,-0.004087212042320321,-0.0043753659018245855,-0.019464784482866763,0.019417167320251463,0.25556130321502685,-9.732217687015533
2026-09-11T16:34:19.077,0.13368553600002997,-1486.6514892578125,-133798.63403320312,-535194.5361328125,-1018.3562701416016,-0.0357049560546875,-0.44505152106285095,-0.3048602919280529,-0.6819530510201606,0.0,0.0,-0.19382858276367188,-1587.84375,-69.77828979492188,0.8392334580421448,302.1240448951721,657.5262856942746,1,1789158859.0378122,38.99077348833333,-76.93787649166667,-4.347000000000001,0,1,11.758040999999999,33.535681000000004,132.411049,1,1,1789158859.0728314,-0.9614442594714111,0.27421424597208444,-0.019390999544643704,0.00744797771820063,-178.56917713832104,-1.9026868647856219,-31.86120030588317,0.0018915878433114544,-0.015751771032174025,-0.015736935733532072,-0.14896301595687866,0.24340105701446532,-9.715840581245422
2026-09-11T16:34:19.110,0.1671043199999076,-1486.6640625,-133799.765625,-535199.0625,-1018.3648828125001,-0.044317626953125,-0.3924454152584076,-0.2688251094520092,-0.6013446435486957,1.0782912530921427,0.0,-0.17083358764648438,-1399.46875,-61.500091552734375,0.6866455674171448,247.19240427017212,-1643.7354700039696,1,1789158859.0378122,38.99077348833333,-76.93787649166667,-4.347000000000001,0,1,11.758040999999999,33.535681000000004,132.411049,1,1,1789158859.1008315,-0.9609327297226652,0.27611375136277433,-0.017675820278505578,0.007553186983343492,-178.60825925915495,-1.7076367091306996,-32.08362059665669,0.00019233528356977513,-0.044031689968088546,-0.018789516595270152,-0.6140924331283569,0.28900198026657103,-9.708779793128967
2026-09-11T16:34:19.144,0.2005209599999489,-1486.67724609375,-133800.9521484375,-535203.80859375,-1018.3739135742188,-0.053348388671875004,-0.36661404371261597,-0.25113061994314195,-0.5617631977969346,0.5295113305480561,0.0,-0.1616497039794922,-1324.234375,-58.19389343261719,0.3051758408546448,109.86330270767212,-4109.602328729947,1,1789158859.0378122,38.99077348833333,-76.93787649166667,-4.347000000000001,0,1,11.758040999999999,33.535681000000004,132.411049,1,1,1789158859.1408315,-0.960166486873389,0.2787653609244956,-0.01810682543171942,0.0065064511551924595,-178.70496918093238,-1.784684704090225,-32.39939306369188,0.005110324049839397,-0.045942301900246736,-0.01790672905961142,0.03952080015182495,0.3978557970619202,-9.732511886520385
2026-09-11T16:34:19.177,0.23394048000000112,-1486.6876220703125,-133801.88598632812,-535207.5439453125,-1018.3810211181641,-0.060455932617187506,-0.34078267216682434,-0.2334361304342747,-0.5221817520451737,0.5294656987544888,0.0,-0.1394329071044922,-1142.234375,-50.19584655761719,0.8392334580421448,302.1240448951721,5752.947444702964,1,1789158859.0378122,38.99077348833333,-76.93787649166667,-4.347000000000001,0,1,11.758040999999999,33.535681000000004,132.411049,1,1,1789158859.1728313,-0.9594897024605235,0.2811692321162172,-0.01681461985165358,0.006375134715239378,-178.75668791080938,-1.6435786944107524,-32.68326555323517,0.004518133834637721,-0.046906770844898804,-0.018816045599900466,-0.48827311155319214,0.24477398803710937,-9.799883573131561
2026-09-11T16:34:19.210,0.26736246399991614,-1486.7020263671875,-133803.18237304688,-535212.7294921875,-1018.3908880615235,-0.0703228759765625,-0.4449765980243683,-0.3048089696466923,-0.681838246346394,-2.1355057561094837,0.0,-0.13494110107421875,-1105.4375,-48.57879638671875,0.0,0.0,-9039.68013676089,1,1789158859.0378122,38.99077348833333,-76.93787649166667,-4.347000000000001,0,1,11.758040999999999,33.535681000000004,132.411049,1,1,1789158859.2008314,-0.9589485566510969,0.28308052676552076,-0.014979036289460198,0.0076622147432746,-178.67160536725947,-1.3975942776017651,-32.90928436758816,0.008026594696996722,-0.05845334557731769,-0.019287459030864134,-0.47346506980895997,0.09963556564331055,-9.57354608739853
2026-09-11T16:34:19.244,0.3007820799998626,-1486.7169189453125,-133804.52270507812,-535218.0908203125,-1018.4010894775391,-0.08052429199218751,-0.4449765980243683,-0.3048089696466923,-0.681838246346394,0.0,0.0,-0.1279468536376953,-1048.140625,-46.06086730957031,0.1373291313648224,49.43848729133606,1479.325414493549,1,1789158859.0378122,38.99077348833333,-76.93787649166667,-4.347000000000001,0,1,11.758040999999999,33.535681000000004,132.411049,1,1,1789158859.2408314,-0.9581093654896949,0.2858665323888756,-0.01465107617749949,0.009597676163274326,-178.4657460785178,-1.2942703414804808,-33.24387992208941,0.002846632010002751,-0.04668528856282072,-0.013206557383990692,-0.28458898769378665,0.03952080015182495,-9.632091788864136
2026-09-11T16:34:19.277,0.33419727999989846,-1486.729248046875,-133805.63232421875,-535222.529296875,-1018.4095349121095,-0.0889697265625,-0.39245519042015076,-0.2688318054378033,-0.6013596220423295,1.0766706232148973,0.0,-0.12051963806152344,-987.296875,-43.38706970214844,0.1983642876148224,71.41114354133606,657.5647085750327,1,1789158859.0378122,38.99077348833333,-76.93787649166667,-4.347000000000001,0,1,11.758040999999999,33.535681000000004,132.411049,1,1,1789158859.2728314,-0.9575353407457126,0.28768011661820103,-0.014934104754133263,0.011966379599644672,-178.1939451305068,-1.2442691892438569,-33.46415537740211,0.003436204231326436,-0.01927995411508056,-0.01867729192436692,-0.2996912289428711,-0.17514677188873293,-9.866274594726564
2026-09-11T16:34:19.310,0.3676165439999295,-1486.7392578125,-133806.533203125,-535226.1328125,-1018.4163916015626,-0.09582641601562501,-0.263588011264801,-0.18055778771638872,-0.40389626815584406,2.641411184918153,0.0,-0.11053085327148438,-905.46875,-39.791107177734375,0.4425049126148224,159.30176854133606,2629.938977708138,1,1789158859.0378122,38.99077348833333,-76.93787649166667,-4.347000000000001,0,1,11.758040999999999,33.535681000000004,132.411049,1,1,1789158859.3008313,-0.9570044746286623,0.2894274160091025,-0.01374250228505104,0.013614331932096218,-178.0504993470782,-1.055594109020764,-33.67180417149229,0.005108927786437801,-0.005166000052978016,-0.007938979168546606,-0.7196119888687134,-0.03108708101272583,-9.680242441158295
2026-09-11T16:34:19.344,0.4010358719999658,-1486.746826171875,-133807.21435546875,-535228.857421875,-1018.4215759277345,-0.1010107421875,-0.23781456053256989,-0.16290297396481038,-0.36440357454547734,0.5282815307225553,0.0,-0.09860038757324219,-807.734375,-35.49613952636719,0.10681155323982239,38.45215916633606,-3616.159169175054,1,1789158859.0378122,38.99077348833333,-76.93787649166667,-4.347000000000001,0,1,11.758040999999999,33.535681000000004,132.411049,1,1,1789158859.3408315,-0.9561184047861339,0.2922383100883596,-0.013739824064844792,0.015671100171506042,-177.82206251590455,-0.980631089417062,-34.01026424957508,1.6231562043547267e-05,0.006263114020781652,-0.00597757815515538,-0.3164606007194519,-0.12395605804443359,-9.826361528568269
2026-09-11T16:34:19.378,0.4344520319998537,-1486.7547607421875,-133807.92846679688,-535231.7138671875,-1018.4270111083985,-0.10644592285156251,-0.23781456053256989,-0.16290297396481038,-0.36440357454547734,0.0,0.0,-0.09646797180175781,-790.265625,-34.72846984863281,0.1373291164636612,49.43848192691803,328.7727482936049,1,1789158859.0378122,38.99077348833333,-76.93787649166667,-4.347000000000001,0,1,11.758040999999999,33.535681000000004,132.411049,1,1,1789158859.3728313,-0.9552777414847934,0.29487947220744537,-0.014970959735085328,0.016321882825854145,-177.70639164638195,-1.087359991312178,-34.33106460058548,-0.00047158796388886785,0.029924368157143576,-0.002633178242483845,-0.3107727436256409,-0.06403742555618286,-9.773405617694854
2026-09-11T16:34:19.411,0.46787123199987946,-1486.767822265625,-133809.10400390625,-535236.416015625,-1018.4359582519533,-0.11539306640625001,-0.36797934770584106,-0.25206585317850116,-0.5638552549626451,-2.668013573443473,0.0,-0.093963623046875,-769.75,-33.826904296875,0.0,0.0,-1479.3436685163006,1,1789158859.0378122,38.99077348833333,-76.93787649166667,-4.347000000000001,0,1,11.758040999999999,33.535681000000004,132.411049,1,1,1789158859.4008315,-0.9546101730550831,0.2969464229031135,-0.015467368702331868,0.0174068931810223,-177.56836090623491,-1.0997331415576492,-34.58158635431325,-0.0010752973521537064,0.04890412564088111,-0.009617287777264354,-0.36510158552169797,-0.1626923261833191,-9.71672317975998
2026-09-11T16:34:19.444,0.5012905280000268,-1486.7801513671875,-133810.21362304688,-535240.8544921875,-1018.4444036865235,-0.12383850097656252,-0.36797934770584106,-0.25206585317850116,-0.5638552549626451,0.0,0.0,-0.09236717224121094,-756.671875,-33.25218200683594,0.015258795581758022,5.493166409432888,164.3710989426188,1,1789158859.0378122,38.99077348833333,-76.93787649166667,-4.347000000000001,0,1,11.758040999999999,33.535681000000004,132.411049,1,1,1789158859.4408314,-0.9537134934000384,0.29980395971694573,-0.014894890764526481,0.01806378902245007,-177.51297422075135,-1.0072959732711804,-34.923397680837155,-0.005133536928890922,0.07519210030149451,-0.004194026192542374,-0.34235015714645384,-0.09002504848480225,-9.679457909145356
2026-09-11T16:34:19.478,0.5347093119999045,-1486.7811279296875,-133810.30151367188,-535241.2060546875,-1018.4450726318361,-0.1245074462890625,-0.07864576578140259,-0.053872349560260775,-0.12050901386958822,5.930601892006786,0.0,-0.09187889099121094,-752.671875,-33.07640075683594,0.015258791856467724,5.493165068328381,-4.013026049814379e-05,1,1789158859.0378122,38.99077348833333,-76.93787649166667,-4.347000000000001,0,1,11.758040999999999,33.535681000000004,132.411049,1,1,1789158859.4728315,-0.952961477155513,0.3020446394754113,-0.016369678793067072,0.01911785652115013,-177.3442574633498,-1.1259605740130985,-35.198506541682924,-0.0027391197280799006,0.09606676175412229,-0.0032576570488474163,-0.288315514755249,-0.28782518224716186,-9.761637637500764
2026-09-11T16:34:19.511,0.5681306559999939,-1486.7822265625,-133810.400390625,-535241.6015625,-1018.4458251953125,-0.125260009765625,-0.05234270915389061,-0.03585475577041507,-0.08020480442558837,0.5391044055498632,0.0,-0.0917205810546875,-751.375,-33.0194091796875,0.015258789993822575,5.493164397776127,-2.006359330496553e-05,1,1789158859.0378122,38.99077348833333,-76.93787649166667,-4.347000000000001,0,1,11.758040999999999,33.535681000000004,132.411049,1,1,1789158859.5008314,-0.9523192328266528,0.3039389039688314,-0.017457257407030163,0.02011133030173958,-177.1955406203659,-1.2047057472750067,-35.43113593027977,-0.002734756404949915,0.09173712347869994,-0.0023975587934646106,-0.27468427103042603,-0.2971414999008179,-9.747712194271088
2026-09-11T16:34:19.545,0.6015529919998244,-1486.783935546875,-133810.55419921875,-535242.216796875,-1018.4469958496095,-0.1264306640625,-0.05234270915389061,-0.03585475577041507,-0.08020480442558837,0.0,0.0,-0.09087944030761719,-744.484375,-32.71659851074219,0.015258789993822575,5.493164397776127,0.0,1,1789158859.0378122,38.99077348833333,-76.93787649166667,-4.347000000000001,0,1,11.758040999999999,33.535681000000004,132.411049,1,1,1789158859.5408313,-0.9514831282865284,0.3063612217969899,-0.018427178977711425,0.021979477702188423,-176.95447884636786,-1.2376266665999598,-35.72823511742268,-8.133234314293576e-05,0.06675587682905472,-0.0005117305366847374,-0.21623663606643678,-0.3989345285797119,-9.770071356639862
2026-09-11T16:34:19.578,0.6349691199998233,-1486.7857666015625,-133810.71899414062,-535242.8759765625,-1018.4482501220704,-0.12768493652343751,-0.05234270915389061,-0.03585475577041507,-0.08020480442558837,0.0,0.0,-0.090667724609375,-742.75,-32.640380859375,0.0,0.0,-164.38662186643234,1,1789158859.0378122,38.99077348833333,-76.93787649166667,-4.347000000000001,0,1,11.758040999999999,33.535681000000004,132.411049,1,1,1789158859.5728314,-0.9508407958362487,0.3083463243028858,-0.01842725835492843,0.02201729801564273,-176.94777904882076,-1.229941042793675,-35.96728944345911,0.0027340582732491175,0.04879399536508027,-0.0010035643198967395,-0.18544375455856324,-0.1837766240310669,-9.550402393016816
2026-09-11T16:34:19.611,0.6683901439998863,-1486.7874755859375,-133810.87280273438,-535243.4912109375,-1018.4494207763672,-0.1288555908203125,-0.05234270915389061,-0.03585475577041507,-0.08020480442558837,0.0,0.0,-0.09099197387695312,-745.40625,-32.757110595703125,-0.015258789993822575,-5.493164397776127,-164.3625401114513,1,1789158859.0378122,38.99077348833333,-76.93787649166667,-4.347000000000001,0,1,11.758040999999999,33.535681000000004,132.411049,1,1,1789158859.6008315,-0.9503527640136136,0.30992341904388004,-0.018571213416256793,0.020789619815771,-177.0744053831382,-1.2842221345758424,-36.15654892710264,0.0029513517651224112,0.04354264871167974,-0.0037896334048552875,-0.2392822639465332,-0.022849494876861574,-9.801256504154205
2026-09-11T16:34:19.645,0.7018071999998483,-1486.7891845703125,-133811.02661132812,-535244.1064453125,-1018.4505914306642,-0.13002624511718752,-0.05234270915389061,-0.03585475577041507,-0.08020480442558837,0.0,0.0,-0.09218597412109375,-755.1875,-33.18695068359375,-0.0457763709127903,-16.479493528604507,-328.76412365113384,1,1789158859.0378122,38.99077348833333,-76.93787649166667,-4.347000000000001,0,1,11.758040999999999,33.535681000000004,132.411049,1,1,1789158859.6408315,-0.9497803675003434,0.31186348953116977,-0.017890928994159633,0.0183938051550104,-177.35710342548768,-1.28996266125523,-36.385284470710644,0.0029728193149219416,0.01972588573896511,-0.002232450646225947,0.011277647686004639,0.10708861976623535,-9.74800639377594
2026-09-11T16:34:19.678,0.7352216639999369,-1486.791015625,-133811.19140625,-535244.765625,-1018.4518457031251,-0.131280517578125,-0.05234270915389061,-0.03585475577041507,-0.08020480442558837,0.0,0.0,-0.09470939636230469,-775.859375,-34.09538269042969,-0.0610351637005806,-21.972658932209015,-164.39483822305027,1,1789158859.0378122,38.99077348833333,-76.93787649166667,-4.347000000000001,0,1,11.758040999999999,33.535681000000004,132.411049,1,1,1789158859.6728313,-0.949401163021498,0.3131575302719397,-0.017685753975326717,0.016031437668855546,-177.6198851655326,-1.3489256982938733,-36.53803559115319,0.004174129439069639,0.009805783336479742,-0.011146894333712184,-0.1453345553970337,0.17975589746475218,-9.745848930740356
2026-09-11T16:34:19.712,0.7686498240000219,-1486.792724609375,-133811.34521484375,-535245.380859375,-1018.4530163574219,-0.13245117187500002,-0.05234270915389061,-0.03585475577041507,-0.08020480442558837,0.0,0.0,-0.09643363952636719,-789.984375,-34.71611022949219,-0.0457763746380806,-16.479494869709015,164.3274431642674,1,1789158859.0378122,38.99077348833333,-76.93787649166667,-4.347000000000001,0,1,11.758040999999999,33.535681000000004,132.411049,1,1,1789158859.7008314,-0.9490684386870938,0.3143243910191948,-0.01618221209831604,0.014401802319839445,-177.84985374927152,-1.241259928262866,-36.67226543189698,0.0009040805525330627,-0.0016591099869458098,-0.007685208295306631,-0.2779204655838013,0.25987622928619386,-9.710643056659698
2026-09-11T16:34:19.745,0.8020735999998578,-1486.7672119140625,-133809.04907226562,-535236.1962890625,-1018.4355401611328,-0.11497497558593751,0.4997580349445343,0.342334253937006,0.7657799166450555,11.31496961053346,0.0,-0.09734344482421875,-797.4375,-35.04364013671875,-0.03051757998764515,-10.986328795552254,164.34905721555,1,1789158859.0378122,38.99077348833333,-76.93787649166667,-4.347000000000001,0,1,11.758040999999999,33.535681000000004,132.411049,1,1,1789158859.7408314,-0.9485168239347471,0.3161804196391078,-0.014151410926793057,0.012062939872131853,-178.1754810933502,-1.1011535488641737,-36.888317762430255,0.003572863511757592,-0.004347615166717875,-0.0037004470800783775,-0.3768695657157898,0.25085411113739015,-9.440077578697204
2026-09-11T16:34:19.778,0.8354945920000318,-1486.760498046875,-133808.44482421875,-535233.779296875,-1018.4309411621094,-0.1103759765625,0.18736253678798676,0.12834333769977094,0.28709586994401126,-6.402889424590416,0.0,-0.09881019592285156,-809.453125,-35.57167053222656,-0.0610351599752903,-21.972657591104507,-328.7253949701748,1,1789158859.0378122,38.99077348833333,-76.93787649166667,-4.347000000000001,0,1,11.758040999999999,33.535681000000004,132.411049,1,1,1789158859.7728314,-0.9481341588085367,0.3173462313173122,-0.015204753224613765,0.010089690208634218,-178.35020681103447,-1.2851628008430005,-37.029914763015206,0.006366262979574516,-0.03550540750624585,-0.009012356658523119,0.37530050168991086,0.3216581253051758,-9.607182897453308
2026-09-11T16:34:19.812,0.8689166719998411,-1486.7606201171875,-133808.45581054688,-535233.8232421875,-1018.4310247802736,-0.11045959472656251,0.031164750456809998,0.02134785406291485,0.0477537895108152,-3.201341258158278,0.0,-0.10000801086425781,-819.265625,-36.00288391113281,0.0,0.0,657.429387734991,1,1789158859.0378122,38.99077348833333,-76.93787649166667,-4.347000000000001,0,1,11.758040999999999,33.535681000000004,132.411049,1,1,1789158859.8008313,-0.9478152660847903,0.31842549817639776,-0.013356097570399584,0.00854623574569619,-178.58400662799102,-1.1388599831668078,-37.15437859957162,0.003786491812201698,-0.037732447631790615,-0.0058417915393502206,-0.5930081352806091,0.4816045894432068,-9.87019725479126
2026-09-11T16:34:19.845,0.9023354239998298,-1486.7607421875,-133808.466796875,-535233.8671875,-1018.4311083984376,-0.110543212890625,0.0,0.0,0.0,-0.6387986619883976,0.0,-0.09979820251464844,-817.546875,-35.92735290527344,0.015258791856467724,5.493165068328381,164.3737344928453,1,1789158859.0378122,38.99077348833333,-76.93787649166667,-4.347000000000001,0,1,11.758040999999999,33.535681000000004,132.411049,1,1,1789158859.8408315,-0.9470805467805937,0.32069714763952495,-0.012057767305822519,0.006810848202922184,-178.81743727799204,-1.0583656329667368,-37.42482501675962,0.0053698545096109536,-0.040455684863677364,-0.0027087509990951996,-0.10640215425491334,0.34176175813674925,-9.742220470180511
2026-09-11T16:34:19.878,0.9357523199998923,-1486.7607421875,-133808.466796875,-535233.8671875,-1018.4311083984376,-0.110543212890625,0.0,0.0,0.0,0.0,0.0,-0.099700927734375,-816.75,-35.892333984375,0.0,0.0,-164.38286393560043,1,1789158859.0378122,38.99077348833333,-76.93787649166667,-4.347000000000001,0,1,11.758040999999999,33.535681000000004,132.411049,1,1,1789158859.8728313,-0.9463906512242852,0.32278802424115044,-0.01104664234257111,0.005531579767402424,-178.99130356314686,-0.9934338403856541,-37.674961603409415,0.005375788629067735,-0.04013000642525522,-0.002485523387765125,-0.3004757609558106,0.34499795269012457,-9.745064398727417
2026-09-11T16:34:19.912,0.9691707839999708,-1486.7607421875,-133808.466796875,-535233.8671875,-1018.4311083984376,-0.110543212890625,0.0,0.0,0.0,0.0,0.0,-0.09954833984375,-815.5,-35.83740234375,0.015258789993822575,5.493164397776127,164.37513099833728,1,1789158859.0378122,38.99077348833333,-76.93787649166667,-4.347000000000001,0,1,11.758040999999999,33.535681000000004,132.411049,1,1,1789158859.9008315,-0.9457296794878657,0.3247724953703535,-0.009692198915734123,0.004925532140810048,-179.10536160837313,-0.8670927426700145,-37.91268009931928,0.0022774801409274005,-0.03492002407512695,-0.0023202407076012618,-0.24555852005004883,0.3083210810852051,-9.685439965744019
2026-09-11T16:34:19.945,1.002586527999938,-1486.7607421875,-133808.466796875,-535233.8671875,-1018.4311083984376,-0.110543212890625,0.0,0.0,0.0,0.0,0.0,-0.099334716796875,-813.75,-35.760498046875,0.0,0.0,-164.38851093010302,1,1789158859.0378122,38.99077348833333,-76.93787649166667,-4.347000000000001,0,1,11.758040999999999,33.535681000000004,132.411049,1,1,1789158859.9408314,-0.9447030155088197,0.32777890597175324,-0.008913387417045835,0.004213408745516245,-179.20898091352475,-0.8066867644966257,-38.27553995525209,0.0028169614127188476,-0.015345981981085343,-0.002229309053572357,-0.3079288150787353,0.2656621528816223,-9.694854349899293
2026-09-11T16:34:19.979,1.0360050560000218,-1486.7607421875,-133808.466796875,-535233.8671875,-1018.4311083984376,-0.110543212890625,0.0,0.0,0.0,0.0,0.0,-0.099212646484375,-812.75,-35.716552734375,0.0,0.0,0.0,1,1789158859.0378122,38.99077348833333,-76.93787649166667,-4.347000000000001,0,1,11.758040999999999,33.535681000000004,132.411049,1,1,1789158859.9728315,-0.9438556765334771,0.33021720306269503,-0.008345387845019956,0.004838923299582383,-179.16074571765964,-0.7195331206900485,-38.57105413729483,0.0010471975511965976,-0.004273962272283714,-0.0011990411961201044,-0.28645225122451784,0.15935806512832643,-9.708975926132203
2026-09-11T16:34:20.012,1.0694261119999737,-1486.7607421875,-133808.466796875,-535233.8671875,-1018.4311083984376,-0.110543212890625,0.0,0.0,0.0,0.0,0.0,-0.098968505859375,-810.75,-35.628662109375,0.0,0.0,0.0,1,1789158859.0378122,38.99077348833333,-76.93787649166667,-4.347000000000001,0,1,11.758040999999999,33.535681000000004,132.411049,1,1,1789158859.9998314,-0.9431369053341974,0.33225435362664607,-0.008356068815358865,0.005477080127753505,-179.08981135724756,-0.6945717107700642,-38.81885765422009,0.0007970918693858103,0.005148895826308472,-0.00017261306302223918,-0.2721345419883728,0.14258869335174562,-9.759872440471648
2026-09-11T16:34:20.046,1.1028497919999154,-1486.7607421875,-133808.466796875,-535233.8671875,-1018.4311083984376,-0.110543212890625,0.0,0.0,0.0,0.0,0.0,-0.09859848022460938,-807.71875,-35.495452880859375,0.015258789993822575,5.493164397776127,164.34947910540413,1,1789158860.0388513,38.990772881666665,-76.93787676833334,-4.361999999999998,0,1,11.758040999999999,33.558849,132.43406399999998,1,1,1789158860.0408313,-0.9421140964410524,0.3351217476607317,-0.008271764679806762,0.006783910447415757,-178.9498442934395,-0.632502123395079,-39.168012244854935,0.00017488199104983182,0.01758384314799247,0.0012459905529987518,-0.2938072388458252,0.07305954370498657,-9.742710802688599
2026-09-11T16:34:20.079,1.1362659520000307,-1486.7607421875,-133808.466796875,-535233.8671875,-1018.4311083984376,-0.110543212890625,0.0,0.0,0.0,0.0,0.0,-0.09793472290039062,-802.28125,-35.256500244140625,0.0305175818502903,10.986329466104507,164.38648451256614,1,1789158860.0388513,38.990772881666665,-76.93787676833334,-4.361999999999998,0,1,11.758040999999999,33.558849,132.43406399999998,1,1,1789158860.0728314,-0.9412752066231513,0.3374647998240084,-0.008138102960440178,0.0072294921323232935,-178.90537940527997,-0.5982355799591391,-39.45313099653523,-0.00012409290981679684,0.02625167181217191,0.0037943457938356727,-0.3347009700202942,0.13503757272720338,-9.719174842300415
2026-09-11T16:34:20.112,1.169685311999956,-1486.7607421875,-133808.466796875,-535233.8671875,-1018.4311083984376,-0.110543212890625,0.0,0.0,0.0,0.0,0.0,-0.0955352783203125,-782.625,-34.3927001953125,0.0610351637005806,21.972658932209015,328.7414680032492,1,1789158860.0388513,38.990772881666665,-76.93787676833334,-4.361999999999998,0,1,11.758040999999999,33.558849,132.43406399999998,1,1,1789158860.1008315,-0.9406327035341591,0.3392720026098103,-0.007197057107766465,0.007268263625874761,-178.93665875797302,-0.49319314090956107,-39.6717924057893,0.0015207053772626593,0.03171786849649295,0.0078051124149186414,-0.36804358057022096,0.1933871411895752,-9.708191394119263
2026-09-11T16:34:20.146,1.2031002239998543,-1486.7607421875,-133808.466796875,-535233.8671875,-1018.4311083984376,-0.110543212890625,0.0,0.0,0.0,0.0,0.0,-0.09147071838378906,-749.328125,-32.92945861816406,0.1831054836511612,65.91797411441803,1315.140832402693,1,1789158860.0388513,38.990772881666665,-76.93787676833334,-4.361999999999998,0,1,11.758040999999999,33.558849,132.43406399999998,1,1,1789158860.1408315,-0.9395249895931789,0.34234955848627824,-0.006723491768684114,0.006660960337969213,-179.0190251715184,-0.4625551935964376,-40.04600336948722,-0.0009320058205649721,0.03843808424837192,0.019195480179284036,-0.22878914827346802,0.2262394192314148,-9.734179017047882
2026-09-11T16:34:20.179,1.236522272000002,-1486.7607421875,-133808.466796875,-535233.8671875,-1018.4311083984376,-0.110543212890625,0.0,0.0,0.0,0.0,0.0,-0.08566093444824219,-701.734375,-30.837936401367188,0.1983642727136612,71.41113817691803,164.3574942647358,1,1789158860.0388513,38.990772881666665,-76.93787676833334,-4.361999999999998,0,1,11.758040999999999,33.558849,132.43406399999998,1,1,1789158860.1728313,-0.9388169262683375,0.34429262151731405,-0.007923268064457955,0.004753056278335874,-179.17598304794308,-0.6648815606899148,-40.283816552202886,0.0018811158677994883,0.0332706879319923,0.009160535112017438,-0.02461469190597534,0.3451940856933594,-9.710446923656464
2026-09-11T16:34:20.213,1.2699446399999488,-1486.7607421875,-133808.466796875,-535233.8671875,-1018.4311083984376,-0.110543212890625,0.0,0.0,0.0,0.0,0.0,-0.07496070861816406,-614.078125,-26.985855102539062,0.3509521782398224,126.34278416633606,1643.5593668738693,1,1789158860.0388513,38.990772881666665,-76.93787676833334,-4.361999999999998,0,1,11.758040999999999,33.558849,132.43406399999998,1,1,1789158860.2008314,-0.9383011134395828,0.34571517166851246,-0.008035840799924787,0.0027323723918964513,-179.38779842375186,-0.7558008956541301,-40.456475996091136,0.0042165409398931,0.02763606697485381,0.007612428065498468,-0.18750315109252932,0.44708518087387084,-9.717017379264831
2026-09-11T16:34:20.246,1.3033616319999055,-1486.7607421875,-133808.466796875,-535233.8671875,-1018.4311083984376,-0.110543212890625,0.0,0.0,0.0,0.0,0.0,-0.067626953125,-554.0,-24.345703125,-0.0457763709127903,-16.479493528604507,-4273.941762775222,1,1789158860.0388513,38.990772881666665,-76.93787676833334,-4.361999999999998,0,1,11.758040999999999,33.558849,132.43406399999998,1,1,1789158860.2408314,-0.9375046462760834,0.3478894712304548,-0.007612656618764572,-3.843117445481758e-05,-179.700616634243,-0.8193886027426588,-40.71993290995926,0.0009159487914466241,0.006923721142661505,0.005760808262057683,-0.12081792999267578,0.47670126436233523,-9.696325347423553
2026-09-11T16:34:20.279,1.3367786239998622,-1486.7607421875,-133808.466796875,-535233.8671875,-1018.4311083984376,-0.110543212890625,0.0,0.0,0.0,0.0,0.0,-0.067230224609375,-550.75,-24.202880859375,0.0,0.0,493.1471249305097,1,1789158860.0388513,38.990772881666665,-76.93787676833334,-4.361999999999998,0,1,11.758040999999999,33.558849,132.43406399999998,1,1,1789158860.2728314,-0.9367332005641327,0.3499589628126088,-0.00757669321361455,-0.0014929929491652094,-179.8564004501744,-0.8732015826545934,-40.97198103978125,0.0014257594659541678,0.006562961586274277,0.0024717352866743692,-0.16592852073669434,0.40197459012985226,-9.702699670028686
2026-09-11T16:34:20.313,1.370195615999819,-1486.7607421875,-133808.466796875,-535233.8671875,-1018.4311083984376,-0.110543212890625,0.0,0.0,0.0,0.0,0.0,-0.067230224609375,-550.75,-24.202880859375,0.0,0.0,0.0,1,1789158860.0388513,38.990772881666665,-76.93787676833334,-4.361999999999998,0,1,11.758040999999999,33.558849,132.43406399999998,1,1,1789158860.3008313,-0.9361613405711808,0.3514588317680911,-0.008335251983249845,-0.0030261471467455093,-179.9889360545633,-1.016103018037209,-41.15492911231951,0.0029485592383192206,0.014448533679709857,-0.004646415534659304,0.0011767980194091797,0.4620893556213379,-9.686714830265046
2026-09-11T16:34:20.347,1.4036152319999928,-1486.7607421875,-133808.466796875,-535233.8671875,-1018.4311083984376,-0.110543212890625,0.0,0.0,0.0,0.0,0.0,-0.06769180297851562,-554.53125,-24.369049072265625,-0.015258789993822575,-5.493164397776127,-164.3694648600257,1,1789158860.0388513,38.990772881666665,-76.93787676833334,-4.361999999999998,0,1,11.758040999999999,33.558849,132.43406399999998,1,1,1789158860.3408315,-0.9353196921476122,0.35370910100858316,-0.007282759666269315,-0.003729176348644952,179.89547934168283,-0.9317566322589109,-41.42929845593594,-0.00020158552860534504,0.007149741280794771,-0.008416152186041857,-0.19240647617340087,0.3409772261238098,-9.707701061611175
2026-09-11T16:34:20.380,1.4370312319999812,-1486.7607421875,-133808.466796875,-535233.8671875,-1018.4311083984376,-0.110543212890625,0.0,0.0,0.0,0.0,0.0,-0.06811714172363281,-558.015625,-24.522171020507812,-0.015258789993822575,-5.493164397776127,0.0,1,1789158860.0388513,38.990772881666665,-76.93787676833334,-4.361999999999998,0,1,11.758040999999999,33.558849,132.43406399999998,1,1,1789158860.3728313,-0.9345848565868312,0.35564559369510196,-0.007394314036553979,-0.003561129562263398,179.91995593940666,-0.9370700118473758,-41.666847076704556,0.0028930577681058004,5.637413483941684e-05,-0.007906690577384712,-0.16602658723831176,0.3103804776191711,-9.740945605659485
2026-09-11T16:34:20.414,1.470450432000007,-1486.7607421875,-133808.466796875,-535233.8671875,-1018.4311083984376,-0.110543212890625,0.0,0.0,0.0,0.0,0.0,-0.06814765930175781,-558.265625,-24.533157348632812,0.0,0.0,164.3715109210243,1,1789158860.0388513,38.990772881666665,-76.93787676833334,-4.361999999999998,0,1,11.758040999999999,33.558849,132.43406399999998,1,1,1789158860.4128313,-0.9337518823166564,0.3578597746117769,-0.00598576216036109,-0.002823939848669492,179.94329564563546,-0.7563023212257829,-41.93821862790247,0.0010398671683382215,-0.01140380679960575,-0.003419274537582091,-0.2296717467880249,0.28115666013717655,-9.688185827789306
2026-09-11T16:34:20.447,1.5038703359998635,-1486.7607421875,-133808.466796875,-535233.8671875,-1018.4311083984376,-0.110543212890625,0.0,0.0,0.0,0.0,0.0,-0.06814765930175781,-558.265625,-24.533157348632812,0.0,0.0,0.0,1,1789158860.0388513,38.990772881666665,-76.93787676833334,-4.361999999999998,0,1,11.758040999999999,33.558849,132.43406399999998,1,1,1789158860.4408314,-0.9331214018197577,0.3595036109030014,-0.006032943234752925,-0.002281843456458557,-179.99545859786792,-0.7391130688389698,-42.14037607552571,0.0018298031877908552,-0.016291950435666266,-0.0026778586713349,-0.15847546661376954,0.2305543453025818,-9.758891775455474
2026-09-11T16:34:20.480,1.5373137279998446,-1486.7607421875,-133808.466796875,-535233.8671875,-1018.4311083984376,-0.110543212890625,0.0,0.0,0.0,0.0,0.0,-0.06839179992675781,-560.265625,-24.621047973632812,0.0,0.0,0.0,1,1789158860.0388513,38.990772881666665,-76.93787676833334,-4.361999999999998,0,1,11.758040999999999,33.558849,132.43406399999998,1,1,1789158860.4728315,-0.9325750316755322,0.3609129692035302,-0.006716210436472251,-0.000729022252544112,-179.80012348560786,-0.7479011863701039,-42.31486689396106,0.004180238091451619,-0.027972042855862723,-0.010152405725925816,-0.09532063957214355,0.048248718795776364,-9.734277083549498
2026-09-11T16:34:20.514,1.5707356799998706,-1486.7607421875,-133808.466796875,-535233.8671875,-1018.4311083984376,-0.110543212890625,0.0,0.0,0.0,0.0,0.0,-0.06820106506347656,-558.703125,-24.552383422851562,0.015258791856467724,5.493165068328381,164.35799645466835,1,1789158860.0388513,38.990772881666665,-76.93787676833334,-4.361999999999998,0,1,11.758040999999999,33.558849,132.43406399999998,1,1,1789158860.5128314,-0.9320826364142745,0.3622061321647326,-0.004873106670660246,0.0022202586912355923,-179.56057821876684,-0.42834114137559365,-42.47376928444375,0.0008100073058505684,-0.015145269117105994,0.0024176300798625454,-0.40776051372528077,-0.05089651433944702,-9.753694250869751
2026-09-11T16:34:20.547,1.6041528319999543,-1486.7607421875,-133808.466796875,-535233.8671875,-1018.4311083984376,-0.110543212890625,0.0,0.0,0.0,0.0,0.0,-0.068084716796875,-557.75,-24.510498046875,0.0,0.0,-164.3816046416711,1,1789158860.0388513,38.990772881666665,-76.93787676833334,-4.361999999999998,0,1,11.758040999999999,33.558849,132.43406399999998,1,1,1789158860.5398314,-0.9316931402336643,0.3631770749779478,-0.006105795346945474,0.0036088661899098227,-179.36055956042833,-0.5016962976979243,-42.59480264811735,0.0030866147821519718,-0.0003113667385557884,-0.002725157094063946,0.03383294305801392,-0.08414105838775636,-9.712212120685576
2026-09-11T16:34:20.580,1.6375730879999537,-1486.7607421875,-133808.466796875,-535233.8671875,-1018.4311083984376,-0.110543212890625,0.0,0.0,0.0,0.0,0.0,-0.06846046447753906,-560.828125,-24.645767211914062,-0.0305175818502903,-10.986329466104507,-328.7326544148763,1,1789158860.0388513,38.990772881666665,-76.93787676833334,-4.361999999999998,0,1,11.758040999999999,33.558849,132.43406399999998,1,1,1789158860.5728314,-0.9311493232320645,0.36455984733379976,-0.005899877905474684,0.004716672251229081,-179.2502093331846,-0.43249075665116304,-42.7651047513887,0.004048116667075648,0.004359134339781037,-0.005946336761544681,-0.30577135204315187,0.11101127983093262,-9.724372366886138
2026-09-11T16:34:20.614,1.6709905279999475,-1486.7607421875,-133808.466796875,-535233.8671875,-1018.4311083984376,-0.110543212890625,0.0,0.0,0.0,0.0,0.0,-0.06967735290527344,-570.796875,-25.083847045898438,-0.0457763709127903,-16.479493528604507,-164.3801578607164,1,1789158860.0388513,38.990772881666665,-76.93787676833334,-4.361999999999998,0,1,11.758040999999999,33.558849,132.43406399999998,1,1,1789158860.6128314,-0.9304431789471613,0.36637576802470684,-0.005484107737633802,0.0037698696700379994,-179.36778020861613,-0.4264520402311328,-42.9879007546137,0.00204674761381375,-0.005712986240553039,-0.004832118567071501,-0.09041731449127198,0.23280987483978272,-9.708681726627349
2026-09-11T16:34:20.648,1.7044144320000214,-1486.7607421875,-133808.466796875,-535233.8671875,-1018.4311083984376,-0.110543212890625,0.0,0.0,0.0,0.0,0.0,-0.07049560546875,-577.5,-25.37841796875,0.0,0.0,493.0451430379909,1,1789158860.0388513,38.990772881666665,-76.93787676833334,-4.361999999999998,0,1,11.758040999999999,33.558849,132.43406399999998,1,1,1789158860.6408315,-0.9300339557302383,0.36743824941510006,-0.004037342230851475,0.0031102931120770183,-179.49851665482757,-0.2993173450966674,-43.11732584265137,0.004226140250779069,-0.011739084548913861,-0.005378581155870925,-0.314205071182251,0.2908652437973022,-9.731040888996125
2026-09-11T16:34:20.681,1.7378355199998623,-1486.7607421875,-133808.466796875,-535233.8671875,-1018.4311083984376,-0.110543212890625,0.0,0.0,0.0,0.0,0.0,-0.07046699523925781,-577.265625,-25.368118286132812,0.0,0.0,0.0,1,1789158860.0388513,38.990772881666665,-76.93787676833334,-4.361999999999998,0,1,11.758040999999999,33.558849,132.43406399999998,1,1,1789158860.6728313,-0.9294797995792144,0.36885682357369415,-0.0027890551851002905,0.0020413349755925843,-179.66468468209197,-0.210781348728167,-43.291152204588826,0.005047666729692801,-0.021265440672149312,-0.0015049974139947104,-0.15975033113479614,0.3393100955963135,-9.707995261116029
2026-09-11T16:34:20.714,1.7712568639999517,-1486.7607421875,-133808.466796875,-535233.8671875,-1018.4311083984376,-0.110543212890625,0.0,0.0,0.0,0.0,0.0,-0.07046699523925781,-577.265625,-25.368118286132812,-0.015258789993822575,-5.493164397776127,-164.36096638607427,1,1789158860.0388513,38.990772881666665,-76.93787676833334,-4.361999999999998,0,1,11.758040999999999,33.558849,132.43406399999998,1,1,1789158860.7128315,-0.9287239069351071,0.3707674147567708,-0.0017847923213814845,0.0004933134302971378,-179.8716688421832,-0.16898552394490549,-43.526174716962196,0.004102745472663071,-0.009467363994518042,-0.0010574949937833642,-0.3052810195350647,0.38883367891311643,-9.737415211601258
2026-09-11T16:34:20.748,1.804670815999998,-1486.7607421875,-133808.466796875,-535233.8671875,-1018.4311083984376,-0.110543212890625,0.0,0.0,0.0,0.0,0.0,-0.07071113586425781,-579.265625,-25.456008911132812,0.0,0.0,164.3973271335435,1,1789158860.0388513,38.990772881666665,-76.93787676833334,-4.361999999999998,0,1,11.758040999999999,33.558849,132.43406399999998,1,1,1789158860.7408314,-0.9281456483888143,0.3722160800820516,-0.0008557602608232822,-0.00033582679322532484,-179.9992171603647,-0.1053406755830738,-43.70472765161626,0.004028743512378511,0.003697130954499588,0.002055125194223323,-0.2454604535484314,0.38089029228210447,-9.712800519695282
2026-09-11T16:34:20.781,1.8380876159999389,-1486.7607421875,-133808.466796875,-535233.8671875,-1018.4311083984376,-0.110543212890625,0.0,0.0,0.0,0.0,0.0,-0.07089805603027344,-580.796875,-25.523300170898438,-0.03051757998764515,-10.986328795552254,-328.7666322200719,1,1789158860.0388513,38.990772881666665,-76.93787676833334,-4.361999999999998,0,1,11.758040999999999,33.558849,132.43406399999998,1,1,1789158860.7728314,-0.9274716936787671,0.373888438337019,-0.0009984316339890882,-0.001642022172901929,179.8682617041373,-0.17646557145553013,-43.91113881673781,0.001669407429532576,0.02134502768604025,-0.0031049407392979124,-0.2124120425033569,0.3990325950813293,-9.715448315238953
2026-09-11T16:34:20.814,1.8715112319998752,-1486.7607421875,-133808.466796875,-535233.8671875,-1018.4311083984376,-0.110543212890625,0.0,0.0,0.0,0.0,0.0,-0.07164955139160156,-586.953125,-25.793838500976562,-0.015258791856467724,-5.493165068328381,164.34977374184558,1,1789158860.0388513,38.990772881666665,-76.93787676833334,-4.361999999999998,0,1,11.758040999999999,33.558849,132.43406399999998,1,1,1789158860.8128314,-0.9266204876969032,0.3759878696490331,-0.0008539084248884002,-0.0026200186138421668,179.75858729894458,-0.20355448611038512,-44.17051245756657,0.0014243632025525725,0.03685751407776585,-0.0017983872612549574,-0.21221590950012206,0.34539021869659425,-9.727118228931428
2026-09-11T16:34:20.848,1.9049255679999533,-1486.7607421875,-133808.466796875,-535233.8671875,-1018.4311083984376,-0.110543212890625,0.0,0.0,0.0,0.0,0.0,-0.07193183898925781,-589.265625,-25.895462036132812,0.0,0.0,164.39545793504774,1,1789158860.0388513,38.990772881666665,-76.93787676833334,-4.361999999999998,0,1,11.758040999999999,33.558849,132.43406399999998,1,1,1789158860.8408315,-0.926048661825407,0.37739212929922944,-0.0010122638223087428,-0.0028340776842705104,179.74302853993206,-0.22998177070787681,-44.34417255034631,0.0009161233243718236,0.04117720397645182,-0.0018039723148613389,-0.2383996654319763,0.30763461557388305,-9.725254965400696
2026-09-11T16:34:20.881,1.9383390399998461,-1486.7607421875,-133808.466796875,-535233.8671875,-1018.4311083984376,-0.110543212890625,0.0,0.0,0.0,0.0,0.0,-0.07193183898925781,-589.265625,-25.895462036132812,0.0,0.0,0.0,1,1789158860.0388513,38.990772881666665,-76.93787676833334,-4.361999999999998,0,1,11.758040999999999,33.558849,132.43406399999998,1,1,1789158860.8728313,-0.925410769078749,0.378951328971141,-0.001414140681116437,-0.0029663024489124147,179.74684535026935,-0.2787731731604655,-44.5371188603236,-0.00015289084247470326,0.037580603986867106,-0.0016756906148397558,-0.16230006017684936,0.28164699264526366,-9.718488376789093
2026-09-11T16:34:20.915,1.97175647999984,-1486.7607421875,-133808.466796875,-535233.8671875,-1018.4311083984376,-0.110543212890625,0.0,0.0,0.0,0.0,0.0,-0.071746826171875,-587.75,-25.828857421875,0.0,0.0,0.0,1,1789158860.0388513,38.990772881666665,-76.93787676833334,-4.361999999999998,0,1,11.758040999999999,33.558849,132.43406399999998,1,1,1789158860.9128313,-0.9246666230465648,0.3807596102923071,-0.002743582603517704,-0.002495625815265694,179.8552698855264,-0.3995992205800658,-44.76130504091575,0.0015390313344085997,0.030366634589598943,0.0014833553312699806,-0.15553347156524658,0.1813249614906311,-9.726824029426574
2026-09-11T16:34:20.948,2.0051744639999924,-1486.7607421875,-133808.466796875,-535233.8671875,-1018.4311083984376,-0.110543212890625,0.0,0.0,0.0,0.0,0.0,-0.07126617431640625,-583.8125,-25.65582275390625,0.03051757998764515,10.986328795552254,328.7549840080754,1,1789158860.0388513,38.990772881666665,-76.93787676833334,-4.361999999999998,0,1,11.758040999999999,33.558849,132.43406399999998,1,1,1789158860.9398315,-0.9242246149886529,0.3818353588232451,-0.002741358011029351,-0.0017620322515147812,179.93333312290738,-0.3674331067873257,-44.89486848084861,0.001457698991265664,0.020950757808014732,0.00032620203719774016,-0.19132774465560912,0.1667130527496338,-9.714663783226012
2026-09-11T16:34:20.981,2.0385978239999076,-1486.7607421875,-133808.466796875,-535233.8671875,-1018.4311083984376,-0.110543212890625,0.0,0.0,0.0,0.0,0.0,-0.070526123046875,-577.75,-25.389404296875,0.0,0.0,-328.70210522162137,1,1789158860.0388513,38.990772881666665,-76.93787676833334,-4.361999999999998,0,1,11.758040999999999,33.558849,132.43406399999998,1,1,1789158860.9728315,-0.9237201138352109,0.38305583289409323,-0.0028919157248904507,-0.0010084669144318668,-179.97980583752326,-0.3503796100917418,-45.046478435441905,0.00043511058252218636,0.011605915926986692,0.0007042403531797119,-0.11169774534225464,0.13131104566574098,-9.721332305335999
2026-09-11T16:34:21.015,2.072015839999949,-1486.7607421875,-133808.466796875,-535233.8671875,-1018.4311083984376,-0.110543212890625,0.0,0.0,0.0,0.0,0.0,-0.070526123046875,-577.75,-25.389404296875,0.0,0.0,0.0,1,1789158860.0388513,38.990772881666665,-76.93787676833334,-4.361999999999998,0,1,11.758040999999999,33.558849,132.43406399999998,1,1,1789158861.0118313,-0.9231595591508571,0.3844019414146172,-0.003342252235675575,-0.0006365022083447424,-179.9201078147904,-0.38160472030453185,-45.21377637702251,0.0029134781203541344,0.007335269780281768,-0.003189414675094438,-0.1109132133293152,0.15955419813156127,-9.727510494937896
2026-09-11T16:34:21.048,2.105435967999938,-1486.795654296875,-133811.60888671875,-535246.435546875,-1018.4550231933595,-0.1344580078125,-0.9469099640846252,-0.6486333253979684,-1.4509514258186462,-19.40846322905122,0.0,-0.07071113586425781,-579.265625,-25.456008911132812,0.0,0.0,0.0,1,1789158861.0403063,38.99077258333333,-76.93787739166666,-4.4140000000000015,0,1,11.758040999999999,33.570435999999994,132.43406399999998,1,1,1789158861.0398314,-0.9227846726784705,0.3853042734774815,-0.0029737232711349367,-0.00047082861519015724,-179.91848789903662,-0.3352416424759023,-45.32571778523326,0.0022411772924859183,-0.008669923059281832,-0.005660800895918409,-0.1447461563873291,0.18387469053268432,-9.721528438339233
2026-09-11T16:34:21.081,2.138855936000027,-1486.8021240234375,-133812.19116210938,-535248.7646484375,-1018.4594549560547,-0.1388897705078125,-0.24946345388889313,-0.1708824659138918,-0.3822531896785335,14.295371542031406,0.0,-0.07071113586425781,-579.265625,-25.456008911132812,0.0,0.0,0.0,1,1789158861.0403063,38.99077258333333,-76.93787739166666,-4.4140000000000015,0,1,11.758040999999999,33.570435999999994,132.43406399999998,1,1,1789158861.0728314,-0.9223566294500222,0.3863347006512537,-0.0018946311397406651,-0.0003969321666086641,-179.95807651593324,-0.21782466989621804,-45.45341988914518,0.0021619393444453757,-0.028059134785537235,-0.0020294688542190063,-0.16543818822860717,0.2074106509208679,-9.708387527122497
2026-09-11T16:34:21.115,2.1722791359998155,-1486.7799072265625,-133810.19165039062,-535240.7666015625,-1018.4442364501954,-0.12367126464843751,0.8943038582801819,0.6125981429219246,1.3703430183471812,23.44122073412419,0.0,-0.07048225402832031,-577.390625,-25.373611450195312,0.015258789993822575,5.493164397776127,164.35183937537175,1,1789158861.0403063,38.99077258333333,-76.93787739166666,-4.4140000000000015,0,1,11.758040999999999,33.570435999999994,132.43406399999998,1,1,1789158861.1128314,-0.9217335917091835,0.387820921867695,-0.001454140450826615,6.28659568156392e-05,-179.92873618913208,-0.15079686368682133,-45.63810200061528,0.004344822639914684,-0.04880917972957262,-0.0012667599710974844,-0.07972806581497192,0.16416332370758058,-9.719272908802033
2026-09-11T16:34:21.148,2.2057005760000266,-1486.7603759765625,-133808.43383789062,-535233.7353515625,-1018.4308575439454,-0.11029235839843751,0.4777761399745941,0.32727665588259697,0.7320970290859803,-8.53707940284816,0.0,-0.070159912109375,-574.75,-25.257568359375,0.0,0.0,-164.36049427377856,1,1789158861.0403063,38.99077258333333,-76.93787739166666,-4.4140000000000015,0,1,11.758040999999999,33.570435999999994,132.43406399999998,1,1,1789158861.1408315,-0.921336262371007,0.3887660046380429,-0.0006672809323054023,0.0002000353808312489,-179.94915385669447,-0.06153833346522597,-45.75551578750954,0.003990695334685035,-0.06494614492766179,-0.006235537818600141,-0.1335665752029419,0.21760956708908083,-9.728491159954071
2026-09-11T16:34:21.182,2.2391239039998254,-1486.7606201171875,-133808.45581054688,-535233.8232421875,-1018.4310247802736,-0.11045959472656251,0.087281733751297,0.059787987619638445,0.13374191933526838,-8.003053085095784,0.0,-0.070159912109375,-574.75,-25.257568359375,0.0,0.0,0.0,1,1789158861.0403063,38.99077258333333,-76.93787739166666,-4.4140000000000015,0,1,11.758040999999999,33.570435999999994,132.43406399999998,1,1,1789158861.1728313,-0.920844612106761,0.38992853840002406,0.0006850531733142519,0.0006826399632080864,-179.95857696622832,0.10278963776095998,-45.90009138660834,0.004246386070102204,-0.07144487839746268,-0.006018418859652047,-0.19760400075912476,0.20211505983352662,-9.729864090976715
2026-09-11T16:34:21.216,2.2725454719998197,-1486.7607421875,-133808.466796875,-535233.8671875,-1018.4311083984376,-0.110543212890625,0.0,0.0,0.0,-1.788904327278979,0.0,-0.07095146179199219,-581.234375,-25.542526245117188,-0.030517585575580597,-10.986330807209015,-328.7197897839769,1,1789158861.0403063,38.99077258333333,-76.93787739166666,-4.4140000000000015,0,1,11.758040999999999,33.570435999999994,132.43406399999998,1,1,1789158861.2128315,-0.9203335409591533,0.39112766300901314,0.002298509277963025,0.0002036413350879895,179.9184566799623,0.2515344300294943,-46.049676843250296,0.006163455720492776,-0.06674994270959793,-0.00777491821885914,-0.2283968822669983,0.3375448985671997,-9.719665174808501
2026-09-11T16:34:21.249,2.3059601279999242,-1486.7607421875,-133808.466796875,-535233.8671875,-1018.4311083984376,-0.110543212890625,0.0,0.0,0.0,0.0,0.0,-0.07234382629394531,-592.640625,-26.043777465820312,-0.0457763746380806,-16.479494869709015,-164.39385347803128,1,1789158861.0403063,38.99077258333333,-76.93787739166666,-4.4140000000000015,0,1,11.758040999999999,33.570435999999994,132.43406399999998,1,1,1789158861.2408314,-0.9199924152859796,0.3919143027489877,0.004120696821950962,-0.00039366832010263403,179.77343079062294,0.41674172812716315,-46.148573135248334,0.006386508798897651,-0.05643609402786265,-0.007634593746998796,-0.3003776944541931,0.37951736125946045,-9.7258433644104
2026-09-11T16:34:21.282,2.3393796479999764,-1486.7607421875,-133808.466796875,-535233.8671875,-1018.4311083984376,-0.110543212890625,0.0,0.0,0.0,0.0,0.0,-0.07364082336425781,-603.265625,-26.510696411132812,-0.015258789993822575,-5.493164397776127,328.73992420943574,1,1789158861.0403063,38.99077258333333,-76.93787739166666,-4.4140000000000015,0,1,11.758040999999999,33.570435999999994,132.43406399999998,1,1,1789158861.2728314,-0.9194917311607083,0.3930682167276967,0.0055566829508095095,-0.0012068969203537234,179.62252938195283,0.5311315997452739,-46.29363760500735,0.004071329546127172,-0.03271061177502733,-0.00855350959817381,-0.2944937043571472,0.4067798487091065,-9.673377786045075
2026-09-11T16:34:21.316,2.3728003199998966,-1486.7607421875,-133808.466796875,-535233.8671875,-1018.4311083984376,-0.110543212890625,0.0,0.0,0.0,0.0,0.0,-0.07376289367675781,-604.265625,-26.554641723632812,0.0,0.0,164.3642712447329,1,1789158861.0403063,38.99077258333333,-76.93787739166666,-4.4140000000000015,0,1,11.758040999999999,33.570435999999994,132.43406399999998,1,1,1789158861.3128314,-0.9187910809351649,0.3946695452013206,0.007540696044653303,-0.0014274409745241175,179.5086310369994,0.7293900222590401,-46.4953093965473,0.0008330456519768935,0.008410043533659876,0.0018198548110544875,-0.47964325941085817,0.37735989822387694,-9.702797736530304
2026-09-11T16:34:21.349,2.406218527999954,-1486.77197265625,-133809.4775390625,-535237.91015625,-1018.4388012695314,-0.118236083984375,-0.7101824879646301,-0.48647500425577167,-1.0882135921970542,-14.557184043349567,0.0,-0.073577880859375,-602.75,-26.488037109375,0.0,0.0,0.0,1,1789158861.0403063,38.99077258333333,-76.93787739166666,-4.4140000000000015,0,1,11.758040999999999,33.570435999999994,132.43406399999998,1,1,1789158861.3408315,-0.9185518543898836,0.3952079568243488,0.008034280714912145,-0.00293461974088211,179.32718696649601,0.7127914482205547,-46.563877614295805,0.0006696828339902243,0.017059546240693373,-0.00493422032831317,-0.687936508846283,0.5897719407272338,-10.171457547760008
2026-09-11T16:34:21.384,2.439668223999888,-1486.80224609375,-133812.2021484375,-535248.80859375,-1018.4595385742189,-0.138973388671875,-0.5077771544456482,-0.34782735079526905,-0.7780676243630742,4.144960045698932,0.0,-0.07707023620605469,-631.359375,-27.745285034179688,-0.0915527492761612,-32.95898973941803,-985.3300233127043,1,1789158861.0403063,38.99077258333333,-76.93787739166666,-4.4140000000000015,0,1,11.758040999999999,33.570435999999994,132.43406399999998,1,1,1789158861.3728313,-0.9182102715679226,0.3960302989462621,0.00666757606991412,-0.0023330094401268443,179.4518986232415,0.5956913920867909,-46.66457576572274,-0.0059102084460283975,0.11344395791867863,0.013904514551863225,0.5261267811775208,0.10493115673065186,-10.144881525821685
2026-09-11T16:34:21.417,2.4731025599999157,-1486.8018798828125,-133812.16918945312,-535248.6767578125,-1018.4592877197266,-0.13872253417968752,-0.09447531402111053,-0.06471559010446072,-0.14476465216638476,8.467695027368725,0.0,-0.07842636108398438,-642.46875,-28.233489990234375,-0.0610351637005806,-21.972658932209015,328.59425732875224,1,1789158861.0403063,38.99077258333333,-76.93787739166666,-4.4140000000000015,0,1,11.758040999999999,33.570435999999994,132.43406399999998,1,1,1789158861.4128313,-0.9179176614913396,0.39673389100347856,0.003916906381740194,-0.0037475720015947194,179.4277229380097,0.2416294773126972,-46.750247175395586,-0.005153433682363657,0.14544893307712464,0.00037611845380477804,-0.42188208995819093,0.7516797348976135,-9.4906798935318
2026-09-11T16:34:21.449,2.5065121919999456,-1486.802001953125,-133812.18017578125,-535248.720703125,-1018.4593713378907,-0.13880615234375002,-0.01698123849928379,-0.011632148372009397,-0.026020374847909325,1.588866400336401,0.0,-0.0802459716796875,-657.375,-28.8885498046875,-0.0610351637005806,-21.972658932209015,0.0,1,1789158861.0403063,38.99077258333333,-76.93787739166666,-4.4140000000000015,0,1,11.758040999999999,33.570435999999994,132.43406399999998,1,1,1789158861.4408314,-0.9178317108620232,0.39690152091339376,0.004127894633332677,-0.0060904612815703835,179.17165598976507,0.15715097489856836,-46.77171713687794,-0.002058441319802112,0.09943769067142413,-0.010720161331599571,0.16435945671081545,1.1686584997749327,-9.864705530700682
2026-09-11T16:34:21.482,2.539922815999944,-1486.8018798828125,-133812.16918945312,-535248.6767578125,-1018.4592877197266,-0.13872253417968752,0.0,0.0,0.0,0.34815717216206427,0.0,-0.08133125305175781,-666.265625,-29.279251098632812,0.0,0.0,657.6548505113268,1,1789158861.0403063,38.99077258333333,-76.93787739166666,-4.4140000000000015,0,1,11.758040999999999,33.570435999999994,132.43406399999998,1,1,1789158861.4728315,-0.9175805899576783,0.3974701437709143,0.0021980979287439563,-0.007649451558340495,179.09552757253368,-0.1172841548407181,-46.840886285077694,0.0018102555001685188,0.041380709367234356,-0.015110187999140908,0.005589790592193603,0.06835235162734984,-10.09888833656311
2026-09-11T16:34:21.516,2.5733176319999984,-1486.8018798828125,-133812.16918945312,-535248.6767578125,-1018.4592877197266,-0.13872253417968752,0.0,0.0,0.0,0.0,0.0,-0.08107948303222656,-664.203125,-29.188613891601562,0.015258789993822575,5.493164397776127,164.49153059466332,1,1789158861.0403063,38.99077258333333,-76.93787739166666,-4.4140000000000015,0,1,11.758040999999999,33.570435999999994,132.43406399999998,1,1,1789158861.5128582,-0.9173147393043157,0.3980982981583911,0.0023214114454107094,-0.006784180668989712,179.18094228193345,-0.0654668415737172,-46.91950574962344,0.0018376571694248296,-0.04514259203698293,-0.006989345522536492,-0.11895466646194458,0.6236048837852477,-9.814397415370943
2026-09-11T16:34:21.549,2.6067465280000306,-1486.8026123046875,-133812.23510742188,-535248.9404296875,-1018.459789428711,-0.1392242431640625,-0.02583135850727558,-0.017694480577483775,-0.03958142577282515,-0.5293169292060002,0.0,-0.08190345764160156,-670.953125,-29.485244750976562,-0.0915527418255806,-32.958987057209015,-1150.266866574,1,1789158861.0403063,38.99077258333333,-76.93787739166666,-4.4140000000000015,0,1,11.758040999999999,33.570435999999994,132.43406399999998,1,1,1789158861.5408583,-0.9171302558717553,0.39851272094152934,0.0015660722568754538,-0.0075665335572882636,179.13323829485773,-0.1809481219024832,-46.97058645370876,0.0019682077974740053,-0.06492973883269305,-0.014679266206823508,0.14278482635498047,0.30331968950271604,-9.577272614459991
2026-09-11T16:34:21.582,2.640157216000034,-1486.803466796875,-133812.31201171875,-535249.248046875,-1018.4603747558594,-0.13980957031250002,-0.02583135850727558,-0.017694480577483775,-0.03958142577282515,0.0,0.0,-0.090484619140625,-741.25,-32.574462890625,-0.3814697563648224,-137.32911229133606,-3123.854415512661,1,1789158861.0403063,38.99077258333333,-76.93787739166666,-4.4140000000000015,0,1,11.758040999999999,33.570435999999994,132.43406399999998,1,1,1789158861.572858,-0.9169439609102404,0.39893327582914806,0.0012674828364637248,-0.008025426700415523,179.09874914840236,-0.2336985624412294,-47.022826178077004,0.0017060593438244572,-0.02174907140787694,-0.02737444211997986,-0.13631243724822997,0.40628951620101933,-10.067408989543914
2026-09-11T16:34:21.616,2.6735770559998855,-1486.8043212890625,-133812.38891601562,-535249.5556640625,-1018.4609600830079,-0.1403948974609375,-0.02583135850727558,-0.017694480577483775,-0.03958142577282515,0.0,0.0,-0.09793281555175781,-802.265625,-35.25581359863281,0.0,0.0,4109.209149174473,1,1789158861.0403063,38.99077258333333,-76.93787739166666,-4.4140000000000015,0,1,11.758040999999999,33.570435999999994,132.43406399999998,1,1,1789158861.6128583,-0.9168074462450099,0.3992321925656785,0.004040532876230513,-0.007838177274128286,178.99163207664233,0.06590596645657402,-47.06289597958433,0.004272566008882118,0.024415934504924273,-0.019089538693687978,-0.3511761422920227,0.5248519166564941,-9.707995261116029
2026-09-11T16:34:21.649,2.706985055999894,-1486.80517578125,-133812.4658203125,-535249.86328125,-1018.4615454101563,-0.140980224609375,-0.02583135850727558,-0.017694480577483775,-0.03958142577282515,0.0,0.0,-0.09793281555175781,-802.265625,-35.25581359863281,0.0,0.0,0.0,1,1789158861.0403063,38.99077258333333,-76.93787739166666,-4.4140000000000015,0,1,11.758040999999999,33.570435999999994,132.43406399999998,1,1,1789158861.6408582,-0.9166112042912034,0.3996250526584716,0.004645538973975442,-0.010106256635619834,178.72563875588136,0.025145941961560843,-47.11285178827278,0.005110847648614995,0.037742919607302576,-0.014794632470380334,-0.30547715253829955,0.9849799422454835,-9.537947947311402
2026-09-11T16:34:21.683,2.7403990079999403,-1486.8438720703125,-133815.94848632812,-535263.7939453125,-1018.4880523681642,-0.1674871826171875,-0.7020309567451477,-0.48089120537042623,-1.0757229898228922,-13.862374758672697,0.0,-0.097137451171875,-795.75,-34.969482421875,0.0305175818502903,10.986329466104507,328.79467433511894,1,1789158861.0403063,38.99077258333333,-76.93787739166666,-4.4140000000000015,0,1,11.758040999999999,33.570435999999994,132.43406399999998,1,1,1789158861.6728582,-0.9164594651995854,0.3998748096833643,0.00551088666766164,-0.013107835630621456,178.37069343630483,-0.021885731229345395,-47.14544848267901,-0.00039688787190351056,0.039360665290976114,-0.008151211205589117,-0.1902490131378174,1.3432168726539613,-9.58384307006836
2026-09-11T16:34:21.717,2.7738232959998186,-1486.84521484375,-133816.0693359375,-535264.27734375,-1018.4889721679689,-0.16840698242187502,-0.2030777931213379,-0.13910828828811647,-0.3111763785972538,10.22558557069501,0.0,-0.09516525268554688,-779.59375,-34.259490966796875,0.015258795581758022,5.493166409432888,-164.3464494050441,1,1789158861.0403063,38.99077258333333,-76.93787739166666,-4.4140000000000015,0,1,11.758040999999999,33.570435999999994,132.43406399999998,1,1,1789158861.7128582,-0.9161731785950087,0.4003696614111906,0.005984299469996632,-0.017176414190984826,177.92170453665815,-0.15977068763975,-47.207965929396984,-0.008352273135418864,0.049374317341368386,-0.015089069515191776,-0.20888164844512938,1.1201155814743042,-9.752419386348723
2026-09-11T16:34:21.750,2.807246143999919,-1486.85205078125,-133816.6845703125,-535266.73828125,-1018.4936547851563,-0.173089599609375,-0.2030777931213379,-0.13910828828811647,-0.3111763785972538,0.0,0.0,-0.09305000305175781,-762.265625,-33.49800109863281,0.1220703274011612,43.94531786441803,1150.4750120297906,1,1789158861.0403063,38.99077258333333,-76.93787739166666,-4.4140000000000015,0,1,11.758040999999999,33.570435999999994,132.43406399999998,1,1,1789158861.740858,-0.9157849062558359,0.4011514786357764,0.006835569665060748,-0.019203428070912167,177.66989549841662,-0.16542140051386192,-47.30743027626947,-0.008779878802157476,0.060268138933541396,-0.00924884877216835,-0.26791768241882324,0.8747531944274902,-9.755753647403717
2026-09-11T16:34:21.783,2.8406590719998803,-1486.88232421875,-133819.4091796875,-535277.63671875,-1018.5143920898438,-0.19382690429687502,-0.7185468077659607,-0.4922045633196831,-1.101030250804587,-10.56765438311701,0.0,-0.08768272399902344,-718.296875,-31.565780639648438,0.1983642727136612,71.41113817691803,822.0117767748943,1,1789158861.0403063,38.99077258333333,-76.93787739166666,-4.4140000000000015,0,1,11.758040999999999,33.570435999999994,132.43406399999998,1,1,1789158861.7728581,-0.9153957794151317,0.4020410000184064,0.004104211516690935,-0.01991875450396693,177.7208232914567,-0.48715499338041124,-47.41238499556628,-0.004306774462221208,0.07130647378777953,-0.018759671465061054,0.36049245994567874,0.4617951561164856,-9.52000177751541
2026-09-11T16:34:21.817,2.8740774079999483,-1486.8935546875,-133820.419921875,-535281.6796875,-1018.5220849609376,-0.20151977539062502,-0.4321840703487396,-0.29604608818888667,-0.662236238790458,5.869785830461386,0.0,-0.07450103759765625,-610.3125,-26.82037353515625,0.5187988877296448,186.76759958267212,3451.8912433437613,1,1789158861.0403063,38.99077258333333,-76.93787739166666,-4.4140000000000015,0,1,11.758040999999999,33.570435999999994,132.43406399999998,1,1,1789158861.812858,-0.9151906585157407,0.4025459026356464,0.0032175245534823197,-0.019300320529082954,177.8268738129773,-0.5528689099121129,-47.47402710660501,-0.0022057471086704334,0.04094175906035778,-0.013488078992337378,-0.4306100086021423,0.5572138621902466,-10.052502881298064
2026-09-11T16:34:21.850,2.907489023999915,-1486.9139404296875,-133822.25463867188,-535289.0185546875,-1018.536049194336,-0.21548400878906251,-0.6163054704666138,-0.42216924726963045,-0.9443657106067243,-3.774829660465079,0.0,-0.06664085388183594,-545.921875,-23.990707397460938,-0.1373291164636612,-49.43848192691803,-7069.57967881068,1,1789158861.0403063,38.99077258333333,-76.93787739166666,-4.4140000000000015,0,1,11.758040999999999,33.570435999999994,132.43406399999998,1,1,1789158861.8408582,-0.9148657341446088,0.4032893429337895,0.003905104323290278,-0.019056351285137624,177.82114287993878,-0.47127195319185927,-47.56854169915437,-0.0033248522250491977,0.022549304869916336,-0.003822096528942382,0.03353874355316162,0.6026186524391174,-9.709760458145142
2026-09-11T16:34:21.884,2.9408987839999554,-1486.9337158203125,-133824.03442382812,-535296.1376953125,-1018.5495953369142,-0.22903015136718752,-0.5904741287231445,-0.40447477817535404,-0.9047843105211023,0.5296197606404528,0.0,-0.065277099609375,-534.75,-23.499755859375,0.0,0.0,1479.7616602710743,1,1789158861.0403063,38.99077258333333,-76.93787739166666,-4.4140000000000015,0,1,11.758040999999999,33.570435999999994,132.43406399999998,1,1,1789158861.8798583,-0.9145740827862737,0.40395093840713603,0.0015927528271450545,-0.019373941108403042,177.8951914634607,-0.7299027975507704,-47.64696370381323,-0.006456845567753022,0.025821797217405705,-0.014845421551613369,-0.11954306547164917,0.35480460285186766,-9.564720102252961
2026-09-11T16:34:21.917,2.974318207999886,-1486.95263671875,-133825.7373046875,-535302.94921875,-1018.5625561523439,-0.241990966796875,-0.5644256472587585,-0.38663156837224966,-0.8648701869457973,0.5339173351144966,0.0,-0.06546211242675781,-536.265625,-23.566360473632812,0.0,0.0,0.0,1,1789158861.0403063,38.99077258333333,-76.93787739166666,-4.4140000000000015,0,1,11.758040999999999,33.570435999999994,132.43406399999998,1,1,1789158861.9128582,-0.9144705095039619,0.40428669111251314,0.0005009618075320385,-0.017196152887401714,178.1743334308012,-0.7441854927624034,-47.68851022646761,-0.0007019714251521194,0.03137962368745645,-0.015022397937765594,0.010689248676300049,0.15896579912185668,-9.961889433803558
2026-09-11T16:34:21.950,3.007726335999905,-1486.971435546875,-133827.42919921875,-535309.716796875,-1018.5754333496094,-0.2548681640625,-0.5644256472587585,-0.38663156837224966,-0.8648701869457973,0.0,0.0,-0.06546211242675781,-536.265625,-23.566360473632812,0.0,0.0,0.0,1,1789158861.0403063,38.99077258333333,-76.93787739166666,-4.4140000000000015,0,1,11.758040999999999,33.570435999999994,132.43406399999998,1,1,1789158861.9408581,-0.9144288287090894,0.4044582979465653,-0.0006862292869145891,-0.015262094785973394,178.43221319184642,-0.7792911727412971,-47.70962403853449,-0.003711617187291141,0.017689261034812928,-0.014962184078571788,0.004314926071166993,-0.018240369300842288,-9.53951701133728
2026-09-11T16:34:21.984,3.0411339839999982,-1486.9892578125,-133829.033203125,-535316.1328125,-1018.5876416015626,-0.26707641601562504,-0.5128787159919739,-0.3513219204545021,-0.7858847540589248,1.0569330686688612,0.0,-0.065277099609375,-534.75,-23.499755859375,0.0,0.0,0.0,1,1789158861.0403063,38.99077258333333,-76.93787739166666,-4.4140000000000015,0,1,11.758040999999999,33.570435999999994,132.43406399999998,1,1,1789158861.980858,-0.914392415381923,0.4046177504848327,-0.0003697339264471462,-0.01307095946862006,178.64733497083876,-0.6448001582597618,-47.73107470703485,-0.00511259297786699,0.011941891807995602,-0.012630249664982164,-0.2206496286392212,0.20093826181411745,-9.536575016288758
2026-09-11T16:34:22.017,3.0745439679999436,-1487.0078125,-133830.703125,-535322.8125,-1018.6003515625001,-0.279786376953125,-0.5386521816253662,-0.36897674441337586,-0.825377470502361,-0.5284295843692304,0.0,-0.065277099609375,-534.75,-23.499755859375,0.0,0.0,0.0,1,1789158861.0403063,38.99077258333333,-76.93787739166666,-4.4140000000000015,0,1,11.758040999999999,33.570435999999994,132.43406399999998,1,1,1789158862.0128582,-0.9142935130947784,0.4048750728270593,0.00048721709281061555,-0.011971212787197968,178.72301245817695,-0.504368222969612,-47.764618957335585,-0.009042899920433022,0.013037085913622045,-0.011884645008530188,-0.2426165250015259,0.18730701808929442,-9.672789387035369
2026-09-11T16:34:22.050,3.107954847999963,-1487.025634765625,-133832.30712890625,-535329.228515625,-1018.6125598144532,-0.29199462890625,-0.5386521816253662,-0.36897674441337586,-0.825377470502361,0.0,0.0,-0.06512832641601562,-533.53125,-23.446197509765625,0.015258789993822575,5.493164397776127,164.41244282619695,1,1789158862.0387006,38.990771725,-76.93787753666666,-4.413,0,1,9.084195999999999,18.887716,70.207641,1,1,1789158862.0408583,-0.9142210834229907,0.40507748295500934,-0.0003435873534210719,-0.010579478978560606,178.90750879204575,-0.5270854642533298,-47.78978461514325,0.00010140362954087054,0.013477083418049814,-0.011503988698670224,0.06315482704162598,0.08492559040069579,-9.84989748895645
2026-09-11T16:34:22.084,3.1413635199999135,-1487.04248046875,-133833.8232421875,-535335.29296875,-1018.6240991210939,-0.303533935546875,-0.5123491287231445,-0.35095915317535403,-0.7850732667666286,0.5393088129348136,0.0,-0.06439590454101562,-527.53125,-23.182525634765625,0.015258789993822575,5.493164397776127,0.0,1,1789158862.0387006,38.990771725,-76.93787753666666,-4.413,0,1,9.084195999999999,18.887716,70.207641,1,1,1789158862.0798583,-0.9141164351069652,0.4053449930821196,-0.0005932969791432462,-0.009285884410456894,179.05478354284278,-0.4934750858700641,-47.82362512204325,-0.002072403953818067,0.021341362494611063,-0.005942322504265094,0.04050146516799927,0.2184921656036377,-9.932665616321565
2026-09-11T16:34:22.117,3.1748276480000186,-1487.058837890625,-133835.29541015625,-535341.181640625,-1018.6353039550783,-0.31473876953125,-0.4865177571773529,-0.33326466366648677,-0.7454918210148676,0.5287599159557266,0.0,-0.06350517272949219,-520.234375,-22.861862182617188,0.0457763709127903,16.479493528604507,328.30167069627123,1,1789158862.0387006,38.990771725,-76.93787753666666,-4.413,0,1,9.084195999999999,18.887716,70.207641,1,1,1789158862.1128583,-0.9140485703224625,0.40551676035549683,8.674113763768855e-05,-0.008447522608424187,179.11110114789247,-0.3834636205462553,-47.845867620391,-0.0026904250419492594,0.024171762942570268,-0.0005839871677173026,0.028047019462585452,0.1883857496070862,-9.781054804821014
2026-09-11T16:34:22.151,3.208353087999967,-1487.0765380859375,-133836.88842773438,-535347.5537109375,-1018.6474285888672,-0.32686340332031255,-0.5386147499084473,-0.3689511036872864,-0.8253201138316169,-1.064458513321658,0.0,-0.062591552734375,-512.75,-22.532958984375,0.015258789993822575,5.493164397776127,-327.70126598920865,1,1789158862.0387006,38.990771725,-76.93787753666666,-4.413,0,1,9.084195999999999,18.887716,70.207641,1,1,1789158862.1408582,-0.9140092827321825,0.40561356947236615,-0.001172570579370301,-0.007955401782656586,179.22121732086768,-0.49258468063952227,-47.85746096792242,-0.0015222761735894544,0.034218227182900025,-0.005439493146765527,0.04775838628768921,-0.17024344680786133,-9.84617096189499
2026-09-11T16:34:22.184,3.241760735999833,-1487.093994140625,-133838.45947265625,-535353.837890625,-1018.6593859863282,-0.33882080078125004,-0.4860933721065521,-0.3329739598929882,-0.7448415351936916,1.0769134000227363,0.0,-0.06146049499511719,-503.484375,-22.125778198242188,0.0305175818502903,10.986329466104507,164.42836886782507,1,1789158862.0387006,38.990771725,-76.93787753666666,-4.413,0,1,9.084195999999999,18.887716,70.207641,1,1,1789158862.1808581,-0.9140222102095438,0.40561332125637445,-0.0019469937382418359,-0.006118993251929899,179.44956890086777,-0.48834250471580165,-47.85783608116612,-0.0004049163864626844,0.036295168992773276,-0.004406781828360483,-0.19838853277206422,-0.08110099683761596,-9.919916971111297
2026-09-11T16:34:22.217,3.2752407680000033,-1487.1043701171875,-133839.39331054688,-535357.5732421875,-1018.6664935302736,-0.34592834472656253,-0.38105055689811707,-0.26101963147521023,-0.5838842865855627,2.1491714350037547,0.0,-0.060932159423828125,-499.15625,-21.935577392578125,0.015258789993822575,5.493164397776127,-164.07287389392016,1,1789158862.0387006,38.990771725,-76.93787753666666,-4.413,0,1,9.084195999999999,18.887716,70.207641,1,1,1789158862.2128582,-0.9140283507748187,0.40560805783557535,-0.003070883598532142,-0.004984683805608803,179.62061648066526,-0.5533371591036761,-47.8575131158811,-0.001772556388325441,0.031898161008223964,-0.009278868435302654,0.03863820163726807,-0.136998902759552,-9.782133536338806
2026-09-11T16:34:22.251,3.308650655999827,-1487.11865234375,-133840.6787109375,-535362.71484375,-1018.6762768554688,-0.35571166992187503,-0.43259742856025696,-0.296329238563776,-0.6628696281401568,-1.0568609834535247,0.0,-0.060760498046875,-497.75,-21.873779296875,0.0,0.0,-164.41732452994498,1,1789158862.0387006,38.990771725,-76.93787753666666,-4.413,0,1,9.084195999999999,18.887716,70.207641,1,1,1789158862.2398582,-0.9140724568901898,0.40551413720254004,-0.0037454394940844567,-0.003974892024656316,179.7576819164852,-0.5770330278168202,-47.846237233814854,-0.0004625122517784973,0.03060085777521658,-0.007986103058350453,-0.12346572553634644,-0.1720086438369751,-9.708975926132203
2026-09-11T16:34:22.284,3.342057663999867,-1487.133056640625,-133841.97509765625,-535367.900390625,-1018.6861437988282,-0.36557861328125,-0.43259742856025696,-0.296329238563776,-0.6628696281401568,0.0,0.0,-0.060760498046875,-497.75,-21.873779296875,0.015258789993822575,5.493164397776127,164.43149885705193,1,1789158862.0387006,38.990771725,-76.93787753666666,-4.413,0,1,9.084195999999999,18.887716,70.207641,1,1,1789158862.2808583,-0.9141434975630109,0.4053588702420953,-0.004516393498646147,-0.0023354590732706944,179.96514121904795,-0.5816000569300503,-47.82771539555385,7.504915783575618e-05,0.022575135742845857,-0.008643917653427115,0.04697385427474975,-0.11071708032608032,-9.626305865268707
2026-09-11T16:34:22.318,3.3754716799999187,-1487.1395263671875,-133842.55737304688,-535370.2294921875,-1018.6905755615235,-0.37001037597656256,-0.250366747379303,-0.17150122195482256,-0.3836373075224194,3.7357980737412957,0.0,-0.060527801513671875,-495.84375,-21.790008544921875,0.015258789993822575,5.493164397776127,0.0,1,1789158862.0387006,38.990771725,-76.93787753666666,-4.413,0,1,9.084195999999999,18.887716,70.207641,1,1,1789158862.312858,-0.9142097386188922,0.4052163789753712,-0.004357298176033585,-0.0011198111762058334,-179.9149804205106,-0.5084780991846543,-47.8102658158978,0.003099181152766331,0.011160158836027343,-0.00425371645296058,-0.02020169933319092,-0.08090486383438111,-9.740161073646545
2026-09-11T16:34:22.352,3.408879871999943,-1487.1478271484375,-133843.30444335938,-535373.2177734375,-1018.6962615966797,-0.37569641113281255,-0.250366747379303,-0.17150122195482256,-0.3836373075224194,0.0,0.0,-0.060150146484375,-492.75,-21.654052734375,0.015258789993822575,5.493164397776127,0.0,1,1789158862.0387006,38.990771725,-76.93787753666666,-4.413,0,1,9.084195999999999,18.887716,70.207641,1,1,1789158862.3408582,-0.914285076959887,0.40504703592547375,-0.004244866241931623,-0.0012953173470223048,-179.93868182252507,-0.5048605376065731,-47.788919496092724,0.0006738716241950106,0.00495254628545911,-0.0024293237858509075,0.1734796413612366,0.0232417608833313,-9.775072748222351
2026-09-11T16:34:22.385,3.4422987519999424,-1487.1580810546875,-133844.22729492188,-535376.9091796875,-1018.703285522461,-0.38272033691406254,-0.329275906085968,-0.22555399566888812,-0.5045499187296167,-1.6174322333383628,0.0,-0.059452056884765625,-487.03125,-21.402740478515625,0.03051757998764515,10.986328795552254,164.3730848483327,1,1789158862.0387006,38.990771725,-76.93787753666666,-4.413,0,1,9.084195999999999,18.887716,70.207641,1,1,1789158862.3808582,-0.9143752577707938,0.40485441556121,-0.0031321027423755143,-0.0009900048467866816,-179.95842418226783,-0.37411259573893896,-47.76441825529444,-0.00042236967898262774,-0.008758062186507546,-0.003795916590162467,0.01019891616821289,0.018730701808929443,-9.787232994422913
2026-09-11T16:34:22.418,3.4757098239999777,-1487.1690673828125,-133845.21606445312,-535380.8642578125,-1018.7108111572267,-0.39024597167968755,-0.329275906085968,-0.22555399566888812,-0.5045499187296167,0.0,0.0,-0.05884361267089844,-482.046875,-21.183700561523438,0.015258789993822575,5.493164397776127,-164.41149801390137,1,1789158862.0387006,38.990771725,-76.93787753666666,-4.413,0,1,9.084195999999999,18.887716,70.207641,1,1,1789158862.4128582,-0.9144452545035622,0.40469376988003253,-0.0027914629984613836,-0.0022442973356576407,179.89427530780642,-0.3965923190811955,-47.74383662121412,-0.000911410935391439,-0.01877834648805739,-0.005266705550818088,0.1744603063774109,0.19691753524780273,-9.750065790309906
2026-09-11T16:34:22.452,3.5091226559998177,-1487.177001953125,-133845.93017578125,-535383.720703125,-1018.7162463378907,-0.39568115234375,-0.20011907815933228,-0.1370815685391426,-0.3066427356369507,2.647857779016439,0.0,-0.05850410461425781,-479.265625,-21.061477661132812,0.015258789993822575,5.493164397776127,0.0,1,1789158862.0387006,38.990771725,-76.93787753666666,-4.413,0,1,9.084195999999999,18.887716,70.207641,1,1,1789158862.4408581,-0.9144799868075079,0.40461344736605503,-0.001984401803753636,-0.003220883198490705,179.75448004641208,-0.35728829886637675,-47.73340936917212,-2.6354471705114377e-05,-0.016560207541697795,-0.00228376332623458,0.03775560312271118,0.15935806512832643,-9.700149940986634
2026-09-11T16:34:22.485,3.5425434239998594,-1487.1778564453125,-133846.00708007812,-535384.0283203125,-1018.7168316650392,-0.3962664794921875,-0.07096229493618011,-0.048609172031283385,-0.10873562104349349,2.6472281100107753,0.0,-0.058319091796875,-477.75,-20.994873046875,0.0,0.0,-164.3637991134512,1,1789158862.0387006,38.990771725,-76.93787753666666,-4.413,0,1,9.084195999999999,18.887716,70.207641,1,1,1789158862.480858,-0.9144915119990863,0.4045831058223202,-0.0013128707136875117,-0.00400765957630736,179.64088428750017,-0.32338373547105553,-47.72944746607051,0.0014351842439149372,-0.02404191044622189,-0.005540547710455999,0.1279767846107483,0.18397275703430174,-9.691225889339448
2026-09-11T16:34:22.518,3.575954367999884,-1487.1802978515625,-133846.22680664062,-535384.9072265625,-1018.7185040283204,-0.39793884277343755,-0.07096229493618011,-0.048609172031283385,-0.10873562104349349,0.0,0.0,-0.058197021484375,-476.75,-20.950927734375,0.0,0.0,0.0,1,1789158862.0387006,38.990771725,-76.93787753666666,-4.413,0,1,9.084195999999999,18.887716,70.207641,1,1,1789158862.5128582,-0.9145035355385513,0.40455059426903395,-0.00031830442774580844,-0.004690292778958196,179.52322956252837,-0.25079030120562273,-47.72545297341207,0.0025696482577112515,-0.021965841300974634,-0.005602157833051399,0.08149326284408569,0.21515790454864503,-9.697404078941345
2026-09-11T16:34:22.552,3.609371071999931,-1487.1826171875,-133846.435546875,-535385.7421875,-1018.7200927734376,-0.39952758789062504,-0.07096229493618011,-0.048609172031283385,-0.10873562104349349,0.0,0.0,-0.058197021484375,-476.75,-20.950927734375,0.0,0.0,0.0,1,1789158862.0387006,38.990771725,-76.93787753666666,-4.413,0,1,9.084195999999999,18.887716,70.207641,1,1,1789158862.5408583,-0.9144976934260339,0.40455128173884347,0.0001171604023426503,-0.005675864283324253,179.39975701496226,-0.2508457637670752,-47.7255253310314,0.0025298547507657805,-0.018657569703819384,-0.005972691233249796,0.06256642803192139,0.2661524853897095,-9.721430371837616
2026-09-11T16:34:22.585,3.6427807039999607,-1487.1983642578125,-133847.85278320312,-535391.4111328125,-1018.7308795166016,-0.4103143310546875,-0.670077383518219,-0.45900300770998004,-1.0267604861085797,-12.28369817657164,0.0,-0.058197021484375,-476.75,-20.950927734375,0.0,0.0,0.0,1,1789158862.0387006,38.990771725,-76.93787753666666,-4.413,0,1,9.084195999999999,18.887716,70.207641,1,1,1789158862.5808582,-0.9144468136385147,0.40466899301635945,0.0008609727573619092,-0.005412009183708829,179.3929485241048,-0.1607444956920568,-47.74068229928842,0.0026478390082005977,-0.022957013783182212,-0.004477816728916652,0.01265057870864868,0.13474337322235108,-9.722509103355407
2026-09-11T16:34:22.618,3.6761937279998165,-1487.218505859375,-133849.66552734375,-535398.662109375,-1018.744676513672,-0.424111328125,-0.5650346875190735,-0.3870487609505654,-0.8658034201650076,2.1534790373874926,0.0,-0.058197021484375,-476.75,-20.950927734375,0.0,0.0,0.0,1,1789158862.0387006,38.990771725,-76.93787753666666,-4.413,0,1,9.084195999999999,18.887716,70.207641,1,1,1789158862.6128583,-0.9144111414870111,0.4047524929441278,0.0008102684419454986,-0.005198773411786477,179.41765934650394,-0.15622263769544453,-47.75114420111351,0.003824016391119576,-0.01953529578464733,-0.0047399651825662,0.0582515019607544,0.11738560243606568,-9.72319556886673
2026-09-11T16:34:22.652,3.7096169599999484,-1487.218994140625,-133849.70947265625,-535398.837890625,-1018.7450109863282,-0.42444580078125005,-0.09234209358692169,-0.06325433410704136,-0.14149591559377525,9.687705451173768,0.0,-0.058197021484375,-476.75,-20.950927734375,0.0,0.0,0.0,1,1789158862.0387006,38.990771725,-76.93787753666666,-4.413,0,1,9.084195999999999,18.887716,70.207641,1,1,1789158862.6408582,-0.9143842108864267,0.4048161491986677,0.0012577735717534597,-0.0048803929361086965,179.43027254021635,-0.09460380661958143,-47.75938718556959,0.002624626129149073,-0.01906754754511285,-0.0030675906933052338,-0.04922938381195068,0.1199353314781189,-9.74839865978241
2026-09-11T16:34:22.686,3.743030719999979,-1487.2186279296875,-133849.67651367188,-535398.7060546875,-1018.744760131836,-0.4241949462890625,-0.013560003601014614,-0.00928860246669501,-0.02077801196021609,1.6150750960172482,0.0,-0.058197021484375,-476.75,-20.950927734375,0.0,0.0,0.0,1,1789158862.0387006,38.990771725,-76.93787753666666,-4.413,0,1,9.084195999999999,18.887716,70.207641,1,1,1789158862.6798582,-0.9143192670707229,0.40497183782549556,0.0011534462108929015,-0.004093652810822367,179.51756132245177,-0.06912118772929386,-47.77889276741615,0.0038660788260926394,-0.012573700997217548,-0.004076041935107557,-0.030792881507873536,0.06109543050765991,-9.736434546585082
2026-09-11T16:34:22.719,3.7764435199999298,-1487.218505859375,-133849.66552734375,-535398.662109375,-1018.744676513672,-0.424111328125,0.0,0.0,0.0,0.2779953331270844,0.0,-0.058074951171875,-475.75,-20.906982421875,0.0,0.0,0.0,1,1789158862.0387006,38.990771725,-76.93787753666666,-4.413,0,1,9.084195999999999,18.887716,70.207641,1,1,1789158862.7128582,-0.9142776008505922,0.4050740728753412,0.0008247391190693837,-0.003283880700257838,179.61766687001835,-0.0660247404710881,-47.79160874761809,0.003703937738582366,-0.006668204940169536,-0.0010183996185386913,-0.017750036792755126,-0.003138128051757813,-9.740945605659485
2026-09-11T16:34:22.752,3.8098629119999714,-1487.2198486328125,-133849.78637695312,-535399.1455078125,-1018.7455963134767,-0.42503112792968756,-0.026260698214173317,-0.017988578276708724,-0.04023930358963114,-0.538267670359961,0.0,-0.058074951171875,-475.75,-20.906982421875,0.0,0.0,0.0,1,1789158862.0387006,38.990771725,-76.93787753666666,-4.413,0,1,9.084195999999999,18.887716,70.207641,1,1,1789158862.740858,-0.9142372056672687,0.4051713632752264,0.0006788096664029625,-0.002457106598338493,179.71106610385561,-0.0429668169813428,-47.803788844961154,0.0022607249801082554,-0.0013639748104335686,-0.001205673447277683,-0.05834956846237183,-0.004609125576019287,-9.701719005012512
2026-09-11T16:34:22.786,3.8432849280000028,-1487.220703125,-133849.86328125,-535399.453125,-1018.7461816406251,-0.425616455078125,-0.026260698214173317,-0.017988578276708724,-0.04023930358963114,0.0,0.0,-0.058074951171875,-475.75,-20.906982421875,0.0,0.0,0.0,1,1789158862.0387006,38.990771725,-76.93787753666666,-4.413,0,1,9.084195999999999,18.887716,70.207641,1,1,1789158862.7808583,-0.9142035349311011,0.40525200602571765,0.0003912587906898068,-0.00159851436320398,179.8143698106144,-0.03324427167817837,-47.813855127766736,0.003597472654210712,0.005449092457651496,-0.0017282250253247851,-0.009904716663360597,-0.0063743226051330565,-9.717998044281005
2026-09-11T16:34:22.819,3.876693631999842,-1487.2215576171875,-133849.94018554688,-535399.7607421875,-1018.7467669677735,-0.4262017822265625,-0.026260698214173317,-0.017988578276708724,-0.04023930358963114,0.0,0.0,-0.05797576904296875,-474.9375,-20.87127685546875,0.015258789993822575,5.493164397776127,164.42315145785153,1,1789158862.0387006,38.990771725,-76.93787753666666,-4.413,0,1,9.084195999999999,18.887716,70.207641,1,1,1789158862.812858,-0.9141832652213521,0.4052996030899311,0.0002343233732931132,-0.0010650901033165097,179.8775406265516,-0.024919779029901994,-47.81980992488933,0.002277131075077002,0.006807831280329082,-0.0005251695719250938,-0.023634026889801023,-0.011571847190856934,-9.724274300384522
2026-09-11T16:34:22.852,3.9101059839999834,-1487.222412109375,-133850.01708984375,-535400.068359375,-1018.7473522949219,-0.42678710937500003,-0.026260698214173317,-0.017988578276708724,-0.04023930358963114,0.0,0.0,-0.05762481689453125,-472.0625,-20.74493408203125,0.015258789993822575,5.493164397776127,0.0,1,1789158862.0387006,38.990771725,-76.93787753666666,-4.413,0,1,9.084195999999999,18.887716,70.207641,1,1,1789158862.8408582,-0.9141719214064844,0.40532562295306357,0.0001395894821427046,-0.0009044359922781808,179.89877099210503,-0.027385355023297097,-47.82306499880655,0.0010560987303817688,0.006270618936565227,-0.00033283428835531863,-0.0,0.02736055395126343,-9.722705236358642
2026-09-11T16:34:22.886,3.9435185919999185,-1487.223388671875,-133850.10498046875,-535400.419921875,-1018.7480212402345,-0.42745605468750003,-0.026260698214173317,-0.017988578276708724,-0.04023930358963114,0.0,0.0,-0.05714607238769531,-468.140625,-20.572586059570312,0.015258789993822575,5.493164397776127,0.0,1,1789158862.0387006,38.990771725,-76.93787753666666,-4.413,0,1,9.084195999999999,18.887716,70.207641,1,1,1789158862.8808582,-0.9141651344785799,0.4053401269214075,0.000304737553855982,-0.001181332349671836,179.8620940476194,-0.022948215962842,-47.82489619072612,0.003570943649580398,0.0061196479562677175,9.948376736367678e-06,-0.011179581184387206,0.08669078742980958,-9.721430371837616
2026-09-11T16:34:22.919,3.9769286719999855,-1487.2242431640625,-133850.18188476562,-535400.7275390625,-1018.7486065673829,-0.42804138183593754,-0.026260698214173317,-0.017988578276708724,-0.04023930358963114,0.0,0.0,-0.0564727783203125,-462.625,-20.3302001953125,0.015258789993822575,5.493164397776127,0.0,1,1789158862.0387006,38.990771725,-76.93787753666666,-4.413,0,1,9.084195999999999,18.887716,70.207641,1,1,1789158862.9128582,-0.9141464115989476,0.4053786389993251,0.0006774365881428483,-0.002009548081333216,179.75802320099373,-0.022385649564374648,-47.829780558839964,0.0012655382406210885,0.003689276972865614,0.0010103711039795174,-0.006864655113220214,0.173577707862854,-9.72123423883438
2026-09-11T16:34:22.953,4.010342207999884,-1487.22509765625,-133850.2587890625,-535401.03515625,-1018.7491918945314,-0.42862670898437505,-0.026260698214173317,-0.017988578276708724,-0.04023930358963114,0.0,0.0,-0.05573081970214844,-456.546875,-20.063095092773438,0.0,0.0,-164.399373888261,1,1789158862.0387006,38.990771725,-76.93787753666666,-4.413,0,1,9.084195999999999,18.887716,70.207641,1,1,1789158862.9408581,-0.9141209336989449,0.4054291341262624,0.0010742722719166054,-0.002996950797728787,179.63615593793702,-0.026704004744257954,-47.8362161511583,0.0012337732482347915,-0.0005953318078552658,-0.0015432201246133861,-0.0036284605598449707,0.23202534282684326,-9.725156898899078
2026-09-11T16:34:22.986,4.043764767999846,-1487.2259521484375,-133850.33569335938,-535401.3427734375,-1018.7497772216798,-0.42921203613281256,-0.026260698214173317,-0.017988578276708724,-0.04023930358963114,0.0,0.0,-0.05515289306640625,-451.8125,-19.85504150390625,0.015258789993822575,5.493164397776127,164.35498650558964,1,1789158862.0387006,38.990771725,-76.93787753666666,-4.413,0,1,9.084195999999999,18.887716,70.207641,1,1,1789158862.980858,-0.9140526940882562,0.40556327745066856,0.0016320389002362735,-0.004841163341699498,179.41706546660853,-0.05404465516340835,-47.853248234995284,0.001961051947540829,0.0060199896559788415,0.0006028367236388415,0.0048052585792541505,0.3451940856933594,-9.722705236358642
2026-09-11T16:34:23.019,4.077178783999898,-1487.226806640625,-133850.41259765625,-535401.650390625,-1018.7503625488282,-0.42979736328125,-0.026260698214173317,-0.017988578276708724,-0.04023930358963114,0.0,0.0,-0.05476188659667969,-448.609375,-19.714279174804688,0.015258789993822575,5.493164397776127,0.0,1,1789158862.0387006,38.990771725,-76.93787753666666,-4.413,0,1,9.084195999999999,18.887716,70.207641,1,1,1789158863.0128582,-0.9139739904180982,0.4057111896370885,0.002254225616847213,-0.006700291735792544,179.1934249085423,-0.07541040614033384,-47.872143504476476,0.0013781119773747226,0.0074302156915902594,-0.001346346984988426,-0.011571847190856934,0.45306723747253413,-9.715742514743805
2026-09-11T16:34:23.053,4.110589823999817,-1487.2276611328125,-133850.48950195312,-535401.9580078125,-1018.7509478759766,-0.4303826904296875,-0.026260698214173317,-0.017988578276708724,-0.04023930358963114,0.0,0.0,-0.054656982421875,-447.75,-19.676513671875,0.0,0.0,-164.41165548242265,1,1789158863.0361872,38.990770821666665,-76.93787763166667,-4.475999999999999,0,1,9.585216,18.905103999999998,80.066704,1,1,1789158863.0408583,-0.9138874266026654,0.405869259980907,0.0027375474392030822,-0.008510060759306838,178.98141761063837,-0.10910978003305057,-47.89228549696743,0.0018816394665750868,0.007159515124605939,-0.00135123390689401,0.003530394058227539,0.5123974709510803,-9.71976324131012
2026-09-11T16:34:23.087,4.143999295999947,-1487.2286376953125,-133850.57739257812,-535402.3095703125,-1018.7516168212892,-0.4310516357421875,-0.026260698214173317,-0.017988578276708724,-0.04023930358963114,0.0,0.0,-0.0543365478515625,-445.125,-19.5611572265625,0.015258789993822575,5.493164397776127,164.419371780395,1,1789158863.0361872,38.990770821666665,-76.93787763166667,-4.475999999999999,0,1,9.585216,18.905103999999998,80.066704,1,1,1789158863.0808582,-0.9137010055670486,0.40622421490815286,0.0031953348428458385,-0.011052125734958977,178.6939537104719,-0.1799159693407145,-47.93705209569551,0.0022116812281272142,0.0038301250435015563,-0.0001059414855960558,0.017651970291137693,0.5468188130187988,-9.720743906326295
2026-09-11T16:34:23.120,4.1774114879999615,-1487.2294921875,-133850.654296875,-535402.6171875,-1018.7522021484376,-0.43163696289062503,-0.026260698214173317,-0.017988578276708724,-0.04023930358963114,0.0,0.0,-0.053924560546875,-441.75,-19.412841796875,0.0,0.0,-164.4059868258201,1,1789158863.0361872,38.990770821666665,-76.93787763166667,-4.475999999999999,0,1,9.585216,18.905103999999998,80.066704,1,1,1789158863.1128583,-0.9135031016461205,0.4066101477791478,0.003528044021571538,-0.012954686847577036,178.47932945054598,-0.2342977605131874,-47.98562162692654,0.0019170696503905715,-0.0033161255787892262,-0.002413441289657759,0.028635418472290036,0.5871241451835633,-9.714663783226012
2026-09-11T16:34:23.154,4.210832927999945,-1487.2303466796875,-133850.73120117188,-535402.9248046875,-1018.752787475586,-0.43222229003906254,-0.026260698214173317,-0.017988578276708724,-0.04023930358963114,0.0,0.0,-0.05331611633300781,-436.765625,-19.193801879882812,0.0457763709127903,16.479493528604507,493.0814928564581,1,1789158863.0361872,38.990770821666665,-76.93787763166667,-4.475999999999999,0,1,9.585216,18.905103999999998,80.066704,1,1,1789158863.1528583,-0.9132159039305876,0.4071696182025365,0.004035431408225263,-0.015275146951496612,178.21290555483822,-0.29041700415965704,-48.05616390888536,0.0040334559013588955,-0.004045324140272457,-0.00034871678454846704,-0.03912853414535522,0.629979206390381,-9.697502145442963
2026-09-11T16:34:23.186,4.24424540799987,-1487.231201171875,-133850.80810546875,-535403.232421875,-1018.7533728027345,-0.43280761718750005,-0.026260698214173317,-0.017988578276708724,-0.04023930358963114,0.0,0.0,-0.051624298095703125,-422.90625,-18.584747314453125,0.0762939527630806,27.465822994709015,328.8091595155266,1,1789158863.0361872,38.990770821666665,-76.93787763166667,-4.475999999999999,0,1,9.585216,18.905103999999998,80.066704,1,1,1789158863.1798582,-0.9129738007643269,0.4076644574284113,0.004647920684828146,-0.016337873204476442,178.07323373693035,-0.27696204736496016,-48.11913253005752,0.0025939083343139726,-0.010043322647676168,-0.000930784090088576,-0.036578805103302,0.5979114603614808,-9.714467650222778
2026-09-11T16:34:23.220,4.277662495999948,-1487.2320556640625,-133850.88500976562,-535403.5400390625,-1018.7539581298829,-0.43339294433593756,-0.026260698214173317,-0.017988578276708724,-0.04023930358963114,0.0,0.0,-0.04883384704589844,-400.046875,-17.580184936523438,0.0915527418255806,32.958987057209015,164.3818893641217,1,1789158863.0361872,38.990770821666665,-76.93787763166667,-4.475999999999999,0,1,9.585216,18.905103999999998,80.066704,1,1,1789158863.2128582,-0.9126453161470048,0.4083716300068853,0.004654323297330211,-0.017013994095953073,178.00241460385914,-0.30943150331191105,-48.207750918776924,0.002454107461229227,-0.014065782974747502,0.0012032299863248908,-0.02265336187362671,0.5096516089057923,-9.712996652698518
2026-09-11T16:34:23.254,4.311069471999872,-1487.2330322265625,-133850.97290039062,-535403.8916015625,-1018.7546270751953,-0.43406188964843756,-0.026260698214173317,-0.017988578276708724,-0.04023930358963114,0.0,0.0,-0.046234130859375,-378.75,-16.644287109375,0.0610351637005806,21.972658932209015,-328.86329265555355,1,1789158863.0361872,38.990770821666665,-76.93787763166667,-4.475999999999999,0,1,9.585216,18.905103999999998,80.066704,1,1,1789158863.2528582,-0.9122538505659878,0.4092573289267521,0.003946936615049993,-0.016904808151104053,178.0473068081291,-0.3801956392558256,-48.31764687826011,0.0035819392238679625,-0.00552466521426285,0.0024773203402807514,-0.006080123100280762,0.4149193683433533,-9.740847539157867
2026-09-11T16:34:23.287,4.34448547199986,-1487.248291015625,-133852.34619140625,-535409.384765625,-1018.7650793457032,-0.44451416015625006,-0.3613154888153076,-0.24750110983848575,-0.553644214921451,-6.868342457560962,0.0,-0.04380035400390625,-358.8125,-15.76812744140625,0.0762939527630806,27.465822994709015,164.38724151609756,1,1789158863.0361872,38.990770821666665,-76.93787763166667,-4.475999999999999,0,1,9.585216,18.905103999999998,80.066704,1,1,1789158863.2808583,-0.9120115258012446,0.4098225267885152,0.0033918898921723867,-0.016400256867555345,178.12635461696996,-0.4157134086915884,-48.387797195067165,0.0018943803701146453,-0.008282110899488692,-0.0004895648551844095,-0.01441577573776245,0.3796154277610779,-9.697698278446198
2026-09-11T16:34:23.320,4.377895264000017,-1487.2598876953125,-133853.38989257812,-535413.5595703125,-1018.7730230712891,-0.45245788574218754,-0.3352825343608856,-0.22966853603720666,-0.5137538834046314,0.5337529129542438,0.0,-0.040863037109375,-334.75,-14.710693359375,0.0915527418255806,32.958987057209015,164.41778693127503,1,1789158863.0361872,38.990770821666665,-76.93787763166667,-4.475999999999999,0,1,9.585216,18.905103999999998,80.066704,1,1,1789158863.312858,-0.9117897633795993,0.41034003982837375,0.003247746172272451,-0.015809214231692372,178.1951421214967,-0.4040407966082517,-48.452747255806386,0.0022636920398366456,-0.010136174163882268,-0.00044994588116413817,-0.013435110721588133,0.3767714992141724,-9.729177625465393
2026-09-11T16:34:23.354,4.411307167999894,-1487.26025390625,-133853.4228515625,-535413.69140625,-1018.7732739257814,-0.452708740234375,-0.04891993850469589,-0.033510157875716685,-0.07496008830466322,5.870912898654719,0.0,-0.03778839111328125,-309.5625,-13.60382080078125,0.0762939527630806,27.465822994709015,-164.40739391925263,1,1789158863.0361872,38.990770821666665,-76.93787763166667,-4.475999999999999,0,1,9.585216,18.905103999999998,80.066704,1,1,1789158863.3518581,-0.9115204421530909,0.4109374764843375,0.0033250780661432558,-0.015805626010145093,178.19214091436126,-0.39697669087627196,-48.527953821320416,0.0023710297888342967,-0.009875596506559515,0.003033382239966145,-0.0004903325080871582,0.44806584589004517,-9.726333696918488
2026-09-11T16:34:23.387,4.444718559999956,-1487.260986328125,-133853.48876953125,-535413.955078125,-1018.7737756347657,-0.45321044921875003,-0.04891993850469589,-0.033510157875716685,-0.07496008830466322,0.0,0.0,-0.036102294921875,-295.75,-12.996826171875,0.0,0.0,-822.0496468587179,1,1789158863.0361872,38.990770821666665,-76.93787763166667,-4.475999999999999,0,1,9.585216,18.905103999999998,80.066704,1,1,1789158863.3808582,-0.9113352331912817,0.4113435094197838,0.0032561678711656382,-0.01593760876679193,178.18177808569973,-0.41120060480121945,-48.57883829875982,0.0003853686988403479,-0.0044310419049632035,-0.000586954227445693,0.042756994705200196,0.4045243191719055,-9.73349255153656
2026-09-11T16:34:23.420,4.478128063999975,-1487.2625732421875,-133853.63159179688,-535414.5263671875,-1018.7748626708985,-0.45429748535156256,-0.04891993850469589,-0.033510157875716685,-0.07496008830466322,0.0,0.0,-0.036102294921875,-295.75,-12.996826171875,0.0,0.0,0.0,1,1789158863.0361872,38.990770821666665,-76.93787763166667,-4.475999999999999,0,1,9.585216,18.905103999999998,80.066704,1,1,1789158863.4128582,-0.9111640459767703,0.41171949304470734,0.0034604812618941184,-0.015973898575096047,178.1685190997262,-0.3923301081153824,-48.62643856136708,-8.115781021773632e-05,0.005246285198569756,-0.004546582701445229,-0.06442969156265259,0.4258047500228882,-9.699757674980164
2026-09-11T16:34:23.454,4.511538559999963,-1487.2642822265625,-133853.78540039062,-535415.1416015625,-1018.7760333251954,-0.4554681396484375,-0.04891993850469589,-0.033510157875716685,-0.07496008830466322,0.0,0.0,-0.036102294921875,-295.75,-12.996826171875,0.0,0.0,0.0,1,1789158863.0361872,38.990770821666665,-76.93787763166667,-4.475999999999999,0,1,9.585216,18.905103999999998,80.066704,1,1,1789158863.4518583,-0.9109492779585693,0.41216802060645197,0.0038339654549184774,-0.0165600871075888,178.0898623903383,-0.38193537886897433,-48.68332251686779,-0.0008625417163355976,-0.004566304921992764,-0.002927964353145687,-0.013827376728057861,0.488469244556427,-9.725254965400696
2026-09-11T16:34:23.487,4.544953919999898,-1487.2918701171875,-133856.26831054688,-535425.0732421875,-1018.7949310302735,-0.4743658447265625,-0.8117085099220276,-0.556020329296589,-1.243782053723578,-15.636826041134455,0.0,-0.03591728210449219,-294.234375,-12.930221557617188,0.015258789993822575,5.493164397776127,164.39040003719091,1,1789158863.0361872,38.990770821666665,-76.93787763166667,-4.475999999999999,0,1,9.585216,18.905103999999998,80.066704,1,1,1789158863.480858,-0.9107363014572453,0.4126256113507622,0.004035476484748966,-0.016828814424327692,178.05247190653589,-0.3745732436688054,-48.74116567233086,0.0024019221165945963,-0.015123801567306465,-0.0020504128052429385,0.015200307750701903,0.4817026559448242,-9.705543598575591
2026-09-11T16:34:23.521,4.578363903999843,-1487.3023681640625,-133857.21313476562,-535428.8525390625,-1018.8021221923829,-0.48155700683593755,-0.2692500650882721,-0.1844362945854664,-0.4125722409302662,11.121945904306049,0.0,-0.03533744812011719,-289.484375,-12.721481323242188,0.015258789993822575,5.493164397776127,0.0,1,1789158863.0361872,38.990770821666665,-76.93787763166667,-4.475999999999999,0,1,9.585216,18.905103999999998,80.066704,1,1,1789158863.5128582,-0.9105352050898965,0.4130743686022004,0.00403869546109467,-0.016700156728779846,178.065933125401,-0.3691056655336048,-48.79766077586708,0.0034517376616691854,-0.02427718082939073,-0.002790257875163335,0.030400615501403806,0.40776051372528077,-9.776347612743377
2026-09-11T16:34:23.554,4.611772576000021,-1487.30224609375,-133857.2021484375,-535428.80859375,-1018.8020385742188,-0.48147338867187506,-0.06259921193122864,-0.04288046017289162,-0.09592085758073454,4.237098511782249,0.0,-0.035247802734375,-288.75,-12.689208984375,0.0,0.0,-164.4233089464582,1,1789158863.0361872,38.990770821666665,-76.93787763166667,-4.475999999999999,0,1,9.585216,18.905103999999998,80.066704,1,1,1789158863.552858,-0.9103805006433564,0.4134508325546104,0.004510188690681093,-0.015665609028247447,178.15170864105633,-0.27169431097126473,-48.84612457588089,0.000748222650329969,-0.03448753148648275,-0.005375265030292136,0.00833565263748169,0.29733763290405274,-9.749869657306672
2026-09-11T16:34:23.587,4.645181087999845,-1487.3057861328125,-133857.52075195312,-535430.0830078125,-1018.8044635009767,-0.48389831542968753,-0.08843056857585907,-0.06057493947446347,-0.135502280499426,-0.5296398505166982,0.0,-0.035247802734375,-288.75,-12.689208984375,0.0,0.0,0.0,1,1789158863.0361872,38.990770821666665,-76.93787763166667,-4.475999999999999,0,1,9.585216,18.905103999999998,80.066704,1,1,1789158863.5808582,-0.9102548514781813,0.4137586158889593,0.004550235294350138,-0.014805691366933629,178.23962278659624,-0.22736269620090893,-48.88508533621153,0.004404687433258089,-0.038852949011570964,-0.0018531905997675791,-0.04962164981842041,0.3006718939590454,-9.623461936721801
2026-09-11T16:34:23.621,4.6785931199999595,-1487.3087158203125,-133857.78442382812,-535431.1376953125,-1018.8064703369141,-0.48590515136718754,-0.08843056857585907,-0.06057493947446347,-0.135502280499426,0.0,0.0,-0.035247802734375,-288.75,-12.689208984375,0.0,0.0,0.0,1,1789158863.0361872,38.990770821666665,-76.93787763166667,-4.475999999999999,0,1,9.585216,18.905103999999998,80.066704,1,1,1789158863.6128583,-0.9101046251300208,0.41410240087612615,0.005458435403749828,-0.014105969960105004,178.2696012005234,-0.10010365249637061,-48.93005882086647,0.007041530867171122,-0.03692470925396763,-0.0010225884087434777,-0.06982334915161133,0.37402563716888426,-9.602279572372437
2026-09-11T16:34:23.655,4.712012223999864,-1487.3367919921875,-133860.31127929688,-535441.2451171875,-1018.8257025146485,-0.5051373291015625,-0.687545657157898,-0.47096877515316016,-1.0535271455645123,-12.280216599459825,0.0,-0.035247802734375,-288.75,-12.689208984375,0.0,0.0,0.0,1,1789158863.0361872,38.990770821666665,-76.93787763166667,-4.475999999999999,0,1,9.585216,18.905103999999998,80.066704,1,1,1789158863.6528583,-0.9099077095856081,0.41456354421474684,0.005357955747868715,-0.01327855997404125,178.36071730805503,-0.07214246915684981,-48.987987865221754,0.0063697536380785055,-0.03109618221693257,-0.008317366550378976,-0.026281822433471682,0.2929246403312683,-9.813122550849915
2026-09-11T16:34:23.688,4.745423392000021,-1487.34375,-133860.9375,-535443.75,-1018.83046875,-0.509903564453125,-0.2148531973361969,-0.14717444017529488,-0.32921984649090624,9.691200707989136,0.0,-0.035247802734375,-288.75,-12.689208984375,0.0,0.0,0.0,1,1789158863.0361872,38.990770821666665,-76.93787763166667,-4.475999999999999,0,1,9.585216,18.905103999999998,80.066704,1,1,1789158863.6808581,-0.9098274599653934,0.41477954506498044,0.005730448547429658,-0.011793390015335938,178.49789635243079,0.03690564664951743,-49.015842947169595,0.008705178710172116,-0.027075118153262835,-0.0029052750728697607,-0.16347685819625854,0.17328350835800171,-9.755165248394013
2026-09-11T16:34:23.721,4.7788317759998336,-1487.345947265625,-133861.13525390625,-535444.541015625,-1018.8319738769532,-0.51140869140625,-0.10981038957834244,-0.07522011686116457,-0.1682626092993121,2.1537804197453307,0.0,-0.035247802734375,-288.75,-12.689208984375,0.0,0.0,0.0,1,1789158863.0361872,38.990770821666665,-76.93787763166667,-4.475999999999999,0,1,9.585216,18.905103999999998,80.066704,1,1,1789158863.7128582,-0.9096889034617957,0.4151186197790334,0.005941256860288379,-0.01036011091380569,178.63728240525325,0.12651153253322997,-49.058807346922976,0.009293703733944605,-0.03905296374384952,0.0015917402778188286,-0.04216859569549561,0.26576021938323974,-9.888045358085632
2026-09-11T16:34:23.755,4.812254239999902,-1487.349609375,-133861.46484375,-535445.859375,-1018.8344824218751,-0.513917236328125,-0.10981038957834244,-0.07522011686116457,-0.1682626092993121,0.0,0.0,-0.03237152099609375,-265.1875,-11.65374755859375,0.1068115383386612,38.45215380191803,1150.4883003790296,1,1789158863.0361872,38.990770821666665,-76.93787763166667,-4.475999999999999,0,1,9.585216,18.905103999999998,80.066704,1,1,1789158863.7528582,-0.9095101477334856,0.415494951095108,0.007963813398536315,-0.009581986247145728,178.62200749774814,0.3737891091851179,-49.10953808713904,0.009138194897591911,-0.05738904379945155,0.00431846816820957,-0.5119071384429932,0.3177354652404785,-9.513725521411896
2026-09-11T16:34:23.788,4.845666336000022,-1487.3668212890625,-133863.01391601562,-535452.0556640625,-1018.8462725830079,-0.5257073974609375,-0.6768262386322021,-0.4636259734630585,-1.0371017659785657,-11.624707908192832,0.0,-0.029439926147460938,-241.171875,-10.598373413085938,0.1068115383386612,38.45215380191803,0.0,1,1789158863.0361872,38.990770821666665,-76.93787763166667,-4.475999999999999,0,1,9.585216,18.905103999999998,80.066704,1,1,1789158863.7808583,-0.9093332719454535,0.41586919701443903,0.00863173461075344,-0.00955534746365385,178.59278456386807,0.4440867070460917,-49.15793054384292,0.0021504201713822137,-0.040868978830549615,0.009439438726486131,0.2339866728591919,0.3998171270942688,-9.649155360145569
2026-09-11T16:34:23.822,4.879077215999814,-1487.3851318359375,-133864.66186523438,-535458.6474609375,-1018.8588153076173,-0.5382501220703125,-0.46856242418289185,-0.32096526056528096,-0.7179788398471739,4.269887919703561,0.0,-0.024965286254882812,-204.515625,-8.987503051757812,0.1373291164636612,49.43848192691803,328.82486558475466,1,1789158863.0361872,38.990770821666665,-76.93787763166667,-4.475999999999999,0,1,9.585216,18.905103999999998,80.066704,1,1,1789158863.812858,-0.9091191399792873,0.4163189161412865,0.00789531259073877,-0.010890979081793014,178.48855113352505,0.3029424390862122,-49.21354872614389,-0.001253670001707527,-0.026627441200126292,-0.0008426449628628624,0.08404299188613891,0.4611086906051636,-9.512940989398956
2026-09-11T16:34:23.855,4.912490303999903,-1487.3858642578125,-133864.72778320312,-535458.9111328125,-1018.8593170166016,-0.5387518310546875,-0.13013394176959991,-0.08914175011217595,-0.19940441596317077,6.938104926204104,0.0,-0.017879486083984375,-146.46875,-6.436614990234375,0.2441406548023224,87.89063572883606,1150.8111372949493,1,1789158863.0361872,38.990770821666665,-76.93787763166667,-4.475999999999999,0,1,9.585216,18.905103999999998,80.066704,1,1,1789158863.852858,-0.9088465133230877,0.4168217271090515,0.010670304403677229,-0.011991982080819598,178.24106832659277,0.5384908831579217,-49.28322100250399,-0.011413580643416918,-0.01629771002219785,0.017026035919055084,0.003824593563079834,0.8287600051689148,-9.483717171916961
2026-09-11T16:34:23.888,4.945898016000001,-1487.39013671875,-133865.1123046875,-535460.44921875,-1018.8622436523439,-0.541678466796875,-0.13013394176959991,-0.08914175011217595,-0.19940441596317077,0.0,0.0,-0.0025959014892578125,-21.265625,-0.9345245361328125,0.6561279892921448,236.20607614517212,4439.556962652791,1,1789158863.0361872,38.990770821666665,-76.93787763166667,-4.475999999999999,0,1,9.585216,18.905103999999998,80.066704,1,1,1789158863.8808582,-0.9085410873045721,0.41749100080872875,0.010939033418252059,-0.011605794717551306,178.26802018347144,0.5836531468784971,-49.368089296492236,-0.018866660148208304,-0.0042120030838379155,0.01180069467150926,-0.39373700399398803,0.22113996114730836,-9.706916529598235
2026-09-11T16:34:23.922,4.979310527999814,-1487.4146728515625,-133867.32055664062,-535469.2822265625,-1018.8790509033204,-0.5584857177734376,-0.7614072561264038,-0.5215639704465866,-1.166705374119958,-12.941924879423171,0.0,0.00642013642936945,52.59375762939453,2.311249114573002,-0.1983642727136612,-71.41113817691803,-9206.647327917393,1,1789158863.0361872,38.990770821666665,-76.93787763166667,-4.475999999999999,0,1,9.585216,18.905103999999998,80.066704,1,1,1789158863.9128582,-0.908242231498148,0.4180862444153814,0.013168564296015598,-0.011248558498229533,178.1979032762307,0.8316635372552884,-49.44863744498913,-0.014308383740774713,0.03268914422522779,0.023216195177103372,-0.6894075063705445,0.568687642879486,-10.14017433374405
2026-09-11T16:34:23.955,5.012720511999987,-1487.427001953125,-133868.43017578125,-535473.720703125,-1018.8874963378908,-0.56693115234375,-0.32227423787117004,-0.2207578529417515,-0.49382125300141205,9.003479843129535,0.0,0.0086097726598382,70.53125762939453,3.099518157541752,0.1068115383386612,38.45215380191803,3288.3371622766467,1,1789158863.0361872,38.990770821666665,-76.93787763166667,-4.475999999999999,0,1,9.585216,18.905103999999998,80.066704,1,1,1789158863.9528582,-0.9077324005659048,0.41915256017339,0.010989102694326121,-0.014569141530159091,177.95622424319868,0.4432986140751499,-49.57891172302659,-0.012830438930185914,0.057953657812471714,0.026468790771120007,0.08737725294113159,0.770410436706543,-9.707602995109559
2026-09-11T16:34:23.988,5.046128799999906,-1487.433837890625,-133869.04541015625,-535476.181640625,-1018.8921789550782,-0.5716137695312501,-0.24478013813495636,-0.16767439462244513,-0.3750769385791986,1.5889308161925437,0.0,0.015550614334642887,127.39063262939453,5.598221160471439,0.2593994438648224,93.38379979133606,1644.2520487596291,1,1789158863.0361872,38.990770821666665,-76.93787763166667,-4.475999999999999,0,1,9.585216,18.905103999999998,80.066704,1,1,1789158863.980858,-0.9073902644676622,0.41978432977342395,0.011556764068090097,-0.01704305225767113,177.67125956376466,0.38183209216887926,-49.66094528158542,-0.011870856907439433,0.05810113813426523,0.028394761600695748,-0.3366623000526428,1.0279330699539184,-9.808611491775512
2026-09-11T16:34:24.022,5.079542111999899,-1487.4556884765625,-133871.01196289062,-535484.0478515625,-1018.9071466064454,-0.5865814208984376,-0.6615558862686157,-0.4531657820940018,-1.0137029842832885,-8.544240914268356,0.0,0.02534675784409046,207.64064025878906,9.124832823872566,0.2899170219898224,104.37012791633606,328.80093194599203,1,1789158863.0361872,38.990770821666665,-76.93787763166667,-4.475999999999999,0,1,9.585216,18.905103999999998,80.066704,1,1,1789158864.0128582,-0.9068136414728826,0.42089589562887614,0.012932682810185551,-0.01919401981836087,177.38074853460313,0.41813101052227186,-49.806129966569564,-0.014837916635829791,0.04002581026891116,0.04338731440825224,-0.25860136476516726,0.8579838226509094,-9.481559708881377
2026-09-11T16:34:24.055,5.112951231999887,-1487.47607421875,-133872.8466796875,-535491.38671875,-1018.9211108398438,-0.600545654296875,-0.609034538269043,-0.41718865871429445,-0.9332244513115023,1.076865340353796,0.0,0.03779983893036842,309.6562805175781,13.607942014932632,0.4882813096046448,175.78127145767212,2137.4745441173764,1,1789158864.0463874,38.990770075,-76.93787742833334,-4.425999999999998,0,1,9.084195999999999,18.896409000000002,70.22440000000002,1,1,1789158864.052858,-0.9059543066420049,0.4227069368632457,0.012222872835300616,-0.020401989710523476,177.28886969251027,0.28067042378818713,-50.03297699936359,-0.012772668531944902,0.022747574272942894,0.04559847203760385,-0.2027034588432312,0.5306378402519226,-9.611890089530945
2026-09-11T16:34:24.089,5.146363264000001,-1487.494140625,-133874.47265625,-535497.890625,-1018.9334863281251,-0.612921142578125,-0.531714141368866,-0.3642241868376732,-0.8147463019811937,1.585191582374855,0.0,0.04402351751923561,360.6406555175781,15.84846630692482,0.015258789993822575,5.493164397776127,-5096.610318681337,1,1789158864.0463874,38.990770075,-76.93787742833334,-4.425999999999998,0,1,9.084195999999999,18.896409000000002,70.22440000000002,1,1,1789158864.0808582,-0.9053927088006708,0.4239523068438993,0.010892074172679183,-0.020244680598532995,177.3695227497905,0.14654276737674865,-50.18627633871728,-0.0004956735075663896,0.014375578916976495,0.051082994679070834,-0.015788706760406494,0.6738149326133728,-10.063584395980834
2026-09-11T16:34:24.122,5.179774336000037,-1487.513916015625,-133876.25244140625,-535505.009765625,-1018.9470324707032,-0.62646728515625,-0.6098130941390991,-0.41772196948528295,-0.93441743353007,-1.6011992266381976,0.0,0.0502014197409153,411.2500305175781,18.072511106729507,0.030517607927322388,10.98633885383606,164.4117990603271,1,1789158864.0463874,38.990770075,-76.93787742833334,-4.425999999999998,0,1,9.084195999999999,18.896409000000002,70.22440000000002,1,1,1789158864.1128583,-0.9045940752353145,0.4255659200365286,0.011178923544806516,-0.021868662990873314,177.18683151944896,0.09234139270753922,-50.39150773024252,-0.006517059426946826,0.005005953360570137,0.05396627860336547,-0.20711645141601562,0.8459216429519654,-9.507155065803527
2026-09-11T16:34:24.156,5.213190655999824,-1487.5372314453125,-133878.35083007812,-535513.4033203125,-1018.9630035400392,-0.6424383544921876,-0.7150253057479858,-0.48979233443737036,-1.0956342484729997,-2.1567415248760433,0.0,0.052289966493844986,428.3594055175781,18.824387937784195,0.045776382088661194,16.47949755191803,164.38550678581336,1,1789158864.0463874,38.990770075,-76.93787742833334,-4.425999999999998,0,1,9.084195999999999,18.896409000000002,70.22440000000002,1,1,1789158864.1528583,-0.9036647916400896,0.42756826086279787,0.009734887827417172,-0.021921647105622836,177.25193867205502,-0.06599617518480998,-50.64068468684961,-0.019450123717150006,-0.007474372521665717,0.04631632595894912,0.1091480163002014,0.32724791589736935,-9.882749766998291
2026-09-11T16:34:24.189,5.24660185599987,-1487.5594482421875,-133880.35034179688,-535521.4013671875,-1018.9782220458985,-0.6576568603515626,-0.6633626222610474,-0.4544033962488175,-1.0164714483017558,1.059193868777662,0.0,0.0526428259909153,431.2500305175781,18.951417356729507,0.0,0.0,-493.2327348881624,1,1789158864.0463874,38.990770075,-76.93787742833334,-4.425999999999998,0,1,9.084195999999999,18.896409000000002,70.22440000000002,1,1,1789158864.1808581,-0.9031264256047306,0.42870553204953266,0.010058688103744462,-0.021749688691602768,177.25391524431686,-0.02749565309504518,-50.78583631053088,-0.01974717875583944,-0.016557415014894605,0.045164234119707665,0.05717277044296265,0.6629295509338379,-9.416247418804168
2026-09-11T16:34:24.222,5.280011648000027,-1487.58349609375,-133882.5146484375,-535530.05859375,-1018.9946948242189,-0.674129638671875,-0.7154595851898193,-0.49008981585502626,-1.096299695452366,-1.0681425255817598,0.0,0.0526428259909153,431.2500305175781,18.951417356729507,0.0,0.0,0.0,1,1789158864.0463874,38.990770075,-76.93787742833334,-4.425999999999998,0,1,9.084195999999999,18.896409000000002,70.22440000000002,1,1,1789158864.2128582,-0.9024564494401188,0.4299925560705963,0.011151604592495352,-0.023545706674936547,177.01421684124008,-0.006948959529597022,-50.95252667731619,-0.014750999239080475,-0.014879455472027257,0.051523690315199405,0.2336924733543396,1.0831445103645325,-9.641211973514556
2026-09-11T16:34:24.256,5.31342374399992,-1487.6116943359375,-133885.05249023438,-535540.2099609375,-1019.0140106201172,-0.6934454345703126,-0.8205022811889648,-0.562044062614441,-1.2572567613959384,-2.1535388489140512,0.0,0.0526428259909153,431.2500305175781,18.951417356729507,0.0,0.0,0.0,1,1789158864.0463874,38.990770075,-76.93787742833334,-4.425999999999998,0,1,9.084195999999999,18.896409000000002,70.22440000000002,1,1,1789158864.2528582,-0.9014177222764675,0.43195449859789753,0.012736173194617352,-0.026442220014609732,176.6363032065915,0.00673527283780323,-51.20717541234977,-0.011140960214255403,-0.023080408561298216,0.057685575239365385,-0.34176175813674925,1.1585576501083374,-9.543145471897125
2026-09-11T16:34:24.289,5.34683487999996,-1487.6397705078125,-133887.57934570312,-535550.3173828125,-1019.0332427978516,-0.7126776123046875,-0.8465352654457092,-0.5798766568303109,-1.2971471385788973,-0.5337320531647958,0.0,0.05418587103486061,443.8906555175781,19.50691357254982,0.0762939527630806,27.465822994709015,822.0559454989979,1,1789158864.0463874,38.990770075,-76.93787742833334,-4.425999999999998,0,1,9.084195999999999,18.896409000000002,70.22440000000002,1,1,1789158864.2808583,-0.9007023334534765,0.43332503831640695,0.013980519449146215,-0.027735586445559072,176.44083102835327,0.06574834596455222,-51.38616250680507,-0.007951021940385368,-0.023728798378414108,0.06274755366892454,-0.039226600646972656,1.1192329829597472,-9.429976729030608
2026-09-11T16:34:24.323,5.380243712000038,-1487.671875,-133890.46875,-535561.875,-1019.055234375,-0.7346691894531251,-0.951747477054596,-0.6519470217823983,-1.4583639535218271,-2.1572249204019007,0.0,0.05771065130829811,472.7656555175781,20.77583447098732,0.1220703274011612,43.94531786441803,493.26761467359427,1,1789158864.0463874,38.990770075,-76.93787742833334,-4.425999999999998,0,1,9.084195999999999,18.896409000000002,70.22440000000002,1,1,1789158864.312858,-0.899746959748547,0.43538251665179467,0.014694640744324566,-0.026106323957834143,176.57315006139086,0.21259318994910698,-51.65051928928144,-0.011335389892927572,-0.027122591108917078,0.06763290477818187,-0.5388754263877868,0.5844763496398926,-9.447432566318511
2026-09-11T16:34:24.356,5.413652640000009,-1487.702392578125,-133893.21533203125,-535572.861328125,-1019.0761389160157,-0.7555737304687501,-0.9259161353111267,-0.6342525526881219,-1.418782553436205,0.5296329500393258,0.0,0.06456185132265091,528.8906860351562,23.242266476154327,0.3509521782398224,126.34278416633606,2466.3307455416702,1,1789158864.0463874,38.990770075,-76.93787742833334,-4.425999999999998,0,1,9.084195999999999,18.896409000000002,70.22440000000002,1,1,1789158864.352858,-0.8984647157709237,0.438056498464619,0.014078025984391371,-0.02587407683326112,176.6274547204223,0.15060810195480123,-51.98856345773498,-0.017305463132299376,-0.016166635795373075,0.06740112505351702,0.024320492401123047,0.4228627549743652,-10.187736587028503
2026-09-11T16:34:24.389,5.4470645760000025,-1487.7362060546875,-133896.25854492188,-535585.0341796875,-1019.099301147461,-0.7787359619140626,-1.0046981573104858,-0.6882182377576829,-1.5395003528938844,-1.6151618711819655,0.0,0.0759582594037056,622.2500610351562,27.344973385334015,0.030517607927322388,10.98633885383606,-3452.5519656365814,1,1789158864.0463874,38.990770075,-76.93787742833334,-4.425999999999998,0,1,9.084195999999999,18.896409000000002,70.22440000000002,1,1,1789158864.3808582,-0.8977450112372677,0.4396835335097664,0.012900874781767614,-0.02378765622816559,176.90135260569534,0.1286469213334201,-52.19141354996651,-0.0033557445528094973,-0.002032086848096998,0.08991063641648789,-0.11228614435195923,0.23084854480743405,-9.31769058467865
2026-09-11T16:34:24.423,5.480475423999906,-1487.7674560546875,-133899.07104492188,-535596.2841796875,-1019.120707397461,-0.8001422119140625,-0.9794437289237976,-0.6709189543128015,-1.5008029579294935,0.5177744499310992,0.0,0.0753479078412056,617.2500610351562,27.125246822834015,0.0,0.0,-328.82550164150024,1,1789158864.0463874,38.990770075,-76.93787742833334,-4.425999999999998,0,1,9.084195999999999,18.896409000000002,70.22440000000002,1,1,1789158864.4208581,-0.8964830019296819,0.44232829748126506,0.01317492631391563,-0.022143301811029588,177.05611451415857,0.23107318753553885,-52.529769149802746,-0.02354326987892711,-0.0017577210896834892,0.07982368053751185,-0.89652395778656,0.622526152267456,-9.266107604827882
2026-09-11T16:34:24.456,5.513887807999936,-1487.80224609375,-133902.2021484375,-535608.80859375,-1019.1445385742188,-0.8239733886718751,-0.9808589220046997,-0.6718883615732194,-1.5029714602121034,-0.02901341192586156,0.0,0.0755920484662056,619.2500610351562,27.213137447834015,0.0,0.0,0.0,1,1789158864.0463874,38.990770075,-76.93787742833334,-4.425999999999998,0,1,9.084195999999999,18.896409000000002,70.22440000000002,1,1,1789158864.4528582,-0.8955822912811328,0.44424380268365515,0.01120782221520821,-0.02131168791987216,177.24124342706395,0.06531053546595167,-52.767988248447836,-0.008629780486485963,0.013766633540955673,0.09584981732809938,0.5536834681320191,0.42874674507141114,-9.546577799453736
2026-09-11T16:34:24.490,5.547298847999855,-1487.833740234375,-133905.03662109375,-535620.146484375,-1019.166112060547,-0.845546875,-0.9548104405403137,-0.6540451517701149,-1.463057336636798,0.5340513136720003,0.0,0.07608223706483841,623.2656860351562,27.389605343341827,0.0457763709127903,16.479493528604507,493.2349764821584,1,1789158864.0463874,38.990770075,-76.93787742833334,-4.425999999999998,0,1,9.084195999999999,18.896409000000002,70.22440000000002,1,1,1789158864.480858,-0.8949246998716079,0.4456722881648442,0.01114180161008567,-0.01902244407288399,177.4793936617014,0.171119518424373,-52.95035206266359,-0.001983043096115957,-0.008023278571417932,0.08137789623641281,0.027164420948028564,0.0523675118637085,-9.435958785629273
2026-09-11T16:34:24.523,5.580709663999869,-1487.8665771484375,-133907.99194335938,-535631.9677734375,-1019.1886053466798,-0.8680401611328126,-0.9304987788200378,-0.6373916634917259,-1.425804544317567,0.4984460205456195,0.0,0.07779312878847122,637.2813110351562,28.00552636384964,0.030517585575580597,10.986330807209015,-164.4127075912532,1,1789158864.0463874,38.990770075,-76.93787742833334,-4.425999999999998,0,1,9.084195999999999,18.896409000000002,70.22440000000002,1,1,1789158864.5208583,-0.8939250341510041,0.44776654691383944,0.00991434733113717,-0.017460197592818503,177.70211382052997,0.11970138593553808,-53.21492773166746,-0.019611741205884683,-0.0020451768174869554,0.09180519131952773,0.11601267141342163,0.5072980128669738,-9.146074206848144
