timestamp,time_s,drive_pos_turns,drive_encoder_count,drive_wheel_angle_deg,drive_distance_m,drive_distance_since_start_m,drive_velocity_turns_s,drive_velocity_mps,drive_velocity_mph,drive_acceleration_mps2,drive_iq_A,steer_pos_turns,steer_encoder_count,steer_angle_deg,steer_velocity_turns_s,steer_velocity_deg_s,steer_acceleration_deg_s2,gps_received,gps_ros_stamp_s,gps_latitude_deg,gps_longitude_deg,gps_altitude_m,gps_status,gps_service,gps_cov_x_m2,gps_cov_y_m2,gps_cov_z_m2,gps_covariance_type,imu_received,imu_ros_stamp_s,imu_qx,imu_qy,imu_qz,imu_qw,imu_roll_deg,imu_pitch_deg,imu_yaw_deg,imu_gyro_x_rad_s,imu_gyro_y_rad_s,imu_gyro_z_rad_s,imu_accel_x_mps2,imu_accel_y_mps2,imu_accel_z_mps2
2026-09-11T17:39:59.764,8.384000011574244e-06,-231.26101684570312,-20813.49151611328,-83253.96606445312,-158.41379653930665,0.0,0.0,0.0,0.0,0.0,0.0,-0.3795490264892578,-3109.265625,-136.6376495361328,0.0,0.0,0.0,1,1789162799.069151,38.991384366666665,-76.93669365166667,-10.235000000000003,0,1,17.098225,6.9484960000000004,72.62448400000001,1,1,1789162799.7615492,-0.909114574216159,0.41486480391677755,-0.009468488104067092,-0.03616950582865009,176.67653690182064,-2.706902670259217,-48.979621279178424,0.0006660176425610361,-0.006444628262989062,0.002018473279931442,0.4258047500228882,0.6157595636558533,-9.683086369705201
2026-09-11T17:39:59.797,0.033428064000020186,-231.26101684570312,-20813.49151611328,-83253.96606445312,-158.41379653930665,0.0,0.0,0.0,0.0,0.0,0.0,-0.3795490264892578,-3109.265625,-136.6376495361328,0.0,0.0,0.0,1,1789162799.069151,38.991384366666665,-76.93669365166667,-10.235000000000003,0,1,17.098225,6.9484960000000004,72.62448400000001,1,1,1789162799.7895494,-0.90905207144797,0.41500131065422724,-0.009278635574675672,-0.0362236176175301,176.66228459466438,-2.690178531764409,-48.996988088621876,-0.00022235494670407756,-0.011716569801563133,-0.0012032299863248908,0.4347288016700745,0.630469538898468,-9.673181653041839
2026-09-11T17:39:59.831,0.06684912000002896,-231.26101684570312,-20813.49151611328,-83253.96606445312,-158.41379653930665,0.0,0.0,0.0,0.0,0.0,0.0,-0.3795490264892578,-3109.265625,-136.6376495361328,0.0,0.0,0.0,1,1789162799.069151,38.991384366666665,-76.93669365166667,-10.235000000000003,0,1,17.098225,6.9484960000000004,72.62448400000001,1,1,1789162799.8215492,-0.9089623570895479,0.4151812995613831,-0.009084031348855999,-0.036460969037968326,176.62879618531923,-2.6818435388871,-49.019494702211766,-0.0015868533559132445,-0.013555274168539161,-0.004114439178651432,0.41864589540481567,0.6672444770050049,-9.688578093795776
2026-09-11T17:39:59.865,0.10026323200003162,-231.26101684570312,-20813.49151611328,-83253.96606445312,-158.41379653930665,0.0,0.0,0.0,0.0,0.0,0.0,-0.3795490264892578,-3109.265625,-136.6376495361328,0.0,0.0,0.0,1,1789162799.069151,38.991384366666665,-76.93669365166667,-10.235000000000003,0,1,17.098225,6.9484960000000004,72.62448400000001,1,1,1789162799.8615491,-0.9088328729674593,0.41547237618838,-0.008949836691975969,-0.0364062365712558,176.62899444283116,-2.6663265700717984,-49.05648640281101,-0.0005792747787369179,-0.009426174224170976,7.62708883121522e-05,0.4317868066215515,0.6129156351089478,-9.697306012439729
2026-09-11T17:39:59.898,0.13368688000002749,-231.26101684570312,-20813.49151611328,-83253.96606445312,-158.41379653930665,0.0,0.0,0.0,0.0,0.0,0.0,-0.3795490264892578,-3109.265625,-136.6376495361328,0.0,0.0,0.0,1,1789162799.069151,38.991384366666665,-76.93669365166667,-10.235000000000003,0,1,17.098225,6.9484960000000004,72.62448400000001,1,1,1789162799.8895493,-0.9087696303110683,0.41562517259078463,-0.008759476003813734,-0.036287001988363536,176.6328441057426,-2.641369931584278,-49.07626039728587,2.8623399732707005e-05,-0.012007516187870588,-0.003374419575805837,0.39050080944061283,0.6265468788337708,-9.680732773666382
2026-09-11T17:39:59.931,0.1671089600000073,-231.26101684570312,-20813.49151611328,-83253.96606445312,-158.41379653930665,0.0,0.0,0.0,0.0,0.0,0.0,-0.3795490264892578,-3109.265625,-136.6376495361328,0.0,0.0,0.0,1,1789162799.069151,38.991384366666665,-76.93669365166667,-10.235000000000003,0,1,17.098225,6.9484960000000004,72.62448400000001,1,1,1789162799.9215493,-0.9087010153139384,0.41579800578567755,-0.008489186090918132,-0.03608901317000441,176.64116315060951,-2.6044022956803623,-49.09883259952214,0.00024172810140121463,-0.011867540781860643,-0.0005496041814530144,0.40491658517837525,0.6133079011154174,-9.669553192481995
2026-09-11T17:39:59.965,0.20052681600003552,-231.26101684570312,-20813.49151611328,-83253.96606445312,-158.41379653930665,0.0,0.0,0.0,0.0,0.0,0.0,-0.3795490264892578,-3109.265625,-136.6376495361328,0.0,0.0,0.0,1,1789162799.069151,38.991384366666665,-76.93669365166667,-10.235000000000003,0,1,17.098225,6.9484960000000004,72.62448400000001,1,1,1789162799.9615493,-0.9085780004826286,0.4160618270963715,-0.008522459749796407,-0.03613780225789286,176.63840958863867,-2.6111710951447495,-49.13195002753257,-0.0004506440128649359,-0.009126850257453948,-0.001824043601259274,0.41962656042099,0.6340979994583129,-9.682105704689025
2026-09-11T17:39:59.999,0.23394288000002916,-231.26101684570312,-20813.49151611328,-83253.96606445312,-158.41379653930665,0.0,0.0,0.0,0.0,0.0,0.0,-0.3795490264892578,-3109.265625,-136.6376495361328,0.0,0.0,0.0,1,1789162799.069151,38.991384366666665,-76.93669365166667,-10.235000000000003,0,1,17.098225,6.9484960000000004,72.62448400000001,1,1,1789162799.9895492,-0.9085202006376707,0.4161890886598715,-0.008201266357780486,-0.03619981690397177,176.6170197720148,-2.58112936028019,-49.14837742957214,-0.0005592034923389831,-0.011187211439433253,-0.004412541414892064,0.37981156076431277,0.647042777671814,-9.68347863571167
2026-09-11T17:40:00.032,0.26736080000000584,-231.26101684570312,-20813.49151611328,-83253.96606445312,-158.41379653930665,0.0,0.0,0.0,0.0,0.0,0.0,-0.3796710968017578,-3110.265625,-136.6815948486328,-0.015258789993822575,-5.493164397776127,-164.37780681083566,1,1789162799.069151,38.991384366666665,-76.93669365166667,-10.235000000000003,0,1,17.098225,6.9484960000000004,72.62448400000001,1,1,1789162800.0295494,-0.9084110774816199,0.41642015145721406,-0.008157237487259453,-0.03629092511372263,176.60607270526404,-2.5817502129654306,-49.177412577414486,-8.901179185171081e-05,-0.0035075881977330043,0.0008784242125287461,0.4278641465568543,0.637039994506836,-9.673868118553163
2026-09-11T17:40:00.065,0.3007804480000118,-231.26101684570312,-20813.49151611328,-83253.96606445312,-158.41379653930665,0.0,0.0,0.0,0.0,0.0,0.0,-0.3799152374267578,-3112.265625,-136.7694854736328,0.0,0.0,164.36930747370968,1,1789162799.069151,38.991384366666665,-76.93669365166667,-10.235000000000003,0,1,17.098225,6.9484960000000004,72.62448400000001,1,1,1789162800.0615492,-0.9083189984043006,0.41659955043624186,-0.0079238601810367,-0.0365872129843306,176.56455264450025,-2.5722537799003464,-49.19986185036787,-0.0001270599695451872,-0.0011639600781550184,-0.0007967428035354115,0.3946196025085449,0.6795027897071839,-9.66974932548523
2026-09-11T17:40:00.098,0.3342112640000323,-231.26101684570312,-20813.49151611328,-83253.96606445312,-158.41379653930665,0.0,0.0,0.0,0.0,0.0,0.0,-0.3800373077392578,-3113.265625,-136.8134307861328,0.0,0.0,0.0,1,1789162800.075038,38.9913843,-76.93669355333333,-10.225000000000001,0,1,20.430399999999995,15.984004000000002,169.96336900000003,1,1,1789162800.0895493,-0.9082375158449245,0.41675461763006094,-0.008038477858700311,-0.03681828852047938,176.54634410760775,-2.5958182497494207,-49.21880035432008,0.0013624040141067737,-0.002017077016529847,-0.005473352534254217,0.42394148649215696,0.6592030238723755,-9.683380569210053
2026-09-11T17:40:00.132,0.36763174399999343,-231.26101684570312,-20813.49151611328,-83253.96606445312,-158.41379653930665,0.0,0.0,0.0,0.0,0.0,0.0,-0.3800373077392578,-3113.265625,-136.8134307861328,0.0,0.0,0.0,1,1789162800.075038,38.9913843,-76.93669355333333,-10.225000000000001,0,1,20.430399999999995,15.984004000000002,169.96336900000003,1,1,1789162800.1295493,-0.9081325741110063,0.4169714511037961,-0.007994811800521634,-0.03696105771195066,176.5299878931741,-2.5989172359169705,-49.24595377286863,-0.0014465288840529002,0.004109726789671048,-0.0028886944449758147,0.3865781493759155,0.6493963737106323,-9.690245224323272
2026-09-11T17:40:00.165,0.4010492159999899,-231.26101684570312,-20813.49151611328,-83253.96606445312,-158.41379653930665,0.0,0.0,0.0,0.0,0.0,0.0,-0.3800373077392578,-3113.265625,-136.8134307861328,0.0,0.0,0.0,1,1789162800.075038,38.9913843,-76.93669355333333,-10.225000000000001,0,1,20.430399999999995,15.984004000000002,169.96336900000003,1,1,1789162800.1615493,-0.908088326702634,0.4170706991214331,-0.008005261767028652,-0.036926123880126394,176.53441405018327,-2.598714679171669,-49.258520582684,-0.00032218777991815326,0.004594928321725472,-0.004854284248571828,0.4173710308837891,0.6363535289955139,-9.688087761287688
2026-09-11T17:40:00.199,0.43446627200000876,-231.3018341064453,-20817.165069580078,-83268.66027832031,-158.44175636291504,-0.02795982360839844,-0.7016115188598633,-0.48060389041900636,-1.0750802845808112,-14.381993746508815,0.0,-0.3800373077392578,-3113.265625,-136.8134307861328,0.0,0.0,0.0,1,1789162800.075038,38.9913843,-76.93669355333333,-10.225000000000001,0,1,20.430399999999995,15.984004000000002,169.96336900000003,1,1,1789162800.1895492,-0.9080360454437305,0.41717011658722747,-0.008125436833659289,-0.03706226217829921,176.5262287918063,-2.618120090211056,-49.27060842134447,0.0016427038919770629,0.0024724334183751674,-0.002326698425833641,0.4270796145439148,0.6444930486297608,-9.68200763818741
2026-09-11T17:40:00.232,0.4678863999999976,-231.30165100097656,-20817.14859008789,-83268.59436035156,-158.44163093566897,-0.02783439636230469,-0.12387625128030777,-0.08485523212701084,-0.189815748315611,11.841626049191904,0.0,-0.3800373077392578,-3113.265625,-136.8134307861328,0.0,0.0,0.0,1,1789162800.075038,38.9913843,-76.93669355333333,-10.225000000000001,0,1,20.430399999999995,15.984004000000002,169.96336900000003,1,1,1789162800.2295492,-0.9079431871231283,0.41738354311702464,-0.008289166351356526,-0.03689765050751386,176.55182532447665,-2.6281122244022366,-49.29757798270225,-0.0019936896045531227,-0.0042959534208588425,-0.008123809536332805,0.42354922048568727,0.6207609552383422,-9.662786603870392
2026-09-11T17:40:00.265,0.5013055680000207,-231.30174255371094,-20817.156829833984,-83268.62731933594,-158.441693649292,-0.027897109985351564,-0.01883346401154995,-0.012900922847911717,-0.028858542519487523,2.1530849983772606,0.0,-0.3800373077392578,-3113.265625,-136.8134307861328,0.0,0.0,0.0,1,1789162800.075038,38.9913843,-76.93669355333333,-10.225000000000001,0,1,20.430399999999995,15.984004000000002,169.96336900000003,1,1,1789162800.2615492,-0.907846433112651,0.4176121734231328,-0.008550721788399732,-0.03663074733528607,176.59280907787561,-2.643440631391272,-49.326518182925376,0.0009007644269542736,-0.011012853047159021,-0.004216366406967901,0.4182536293983459,0.6252720143127442,-9.677692712116242
2026-09-11T17:40:00.299,0.5347223360000157,-231.30165100097656,-20817.14859008789,-83268.59436035156,-158.44163093566897,-0.02783439636230469,0.0,0.0,0.0,0.3860613584148422,0.0,-0.3800373077392578,-3113.265625,-136.8134307861328,0.0,0.0,0.0,1,1789162800.075038,38.9913843,-76.93669355333333,-10.225000000000001,0,1,20.430399999999995,15.984004000000002,169.96336900000003,1,1,1789162800.2895494,-0.9077824947718142,0.41775332632315965,-0.008269393645124022,-0.03667039215141874,176.57564921013233,-2.6165750823662073,-49.34469463611757,0.0028977701570861857,-0.010032152540463406,-0.005126381078957744,0.3855974843597412,0.6744033316230774,-9.688480027294158
2026-09-11T17:40:00.333,0.5681379520000291,-231.30165100097656,-20817.14859008789,-83268.59436035156,-158.44163093566897,-0.02783439636230469,0.0,0.0,0.0,0.0,0.0,-0.3800373077392578,-3113.265625,-136.8134307861328,0.0,0.0,0.0,1,1789162800.075038,38.9913843,-76.93669355333333,-10.225000000000001,0,1,20.430399999999995,15.984004000000002,169.96336900000003,1,1,1789162800.3295493,-0.9076545386916036,0.41798943384194065,-0.00822395995573861,-0.03715424702066216,176.52370697212638,-2.635916469444844,-49.3736503205973,0.0010464994194958,-0.014018484552018455,-0.005899212871740834,0.46483521766662594,0.703627149105072,-9.670337724494933
2026-09-11T17:40:00.366,0.6015518400000133,-231.30165100097656,-20817.14859008789,-83268.59436035156,-158.44163093566897,-0.02783439636230469,0.0,0.0,0.0,0.0,0.0,-0.3800373077392578,-3113.265625,-136.8134307861328,0.0,0.0,0.0,1,1789162800.075038,38.9913843,-76.93669355333333,-10.225000000000001,0,1,20.430399999999995,15.984004000000002,169.96336900000003,1,1,1789162800.3615491,-0.9076142659825808,0.4180127867464211,-0.007892277736065946,-0.03793898066011998,176.4260996252301,-2.6390740202863565,-49.375668349755856,0.0009182177194742167,-0.01633802712791892,-0.012102462099179081,0.4427702548027039,0.7506010033798217,-9.674358451061249
2026-09-11T17:40:00.399,0.6349702400000297,-231.30165100097656,-20817.14859008789,-83268.59436035156,-158.44163093566897,-0.02783439636230469,0.0,0.0,0.0,0.0,0.0,-0.3800373077392578,-3113.265625,-136.8134307861328,0.0,0.0,0.0,1,1789162800.075038,38.9913843,-76.93669355333333,-10.225000000000001,0,1,20.430399999999995,15.984004000000002,169.96336900000003,1,1,1789162800.3895493,-0.9075894456270481,0.41799638569389913,-0.007751767013384016,-0.038734091462106705,176.33642632873602,-2.6624768016050893,-49.37233419598157,0.003728372348110287,-0.009262462340333906,-0.014703875349276628,0.4642468186569214,0.7707046362113952,-9.684753500232697
2026-09-11T17:40:00.433,0.668388096000001,-231.30165100097656,-20817.14859008789,-83268.59436035156,-158.44163093566897,-0.02783439636230469,0.0,0.0,0.0,0.0,0.0,-0.3800373077392578,-3113.265625,-136.8134307861328,0.0,0.0,0.0,1,1789162800.075038,38.9913843,-76.93669355333333,-10.225000000000001,0,1,20.430399999999995,15.984004000000002,169.96336900000003,1,1,1789162800.4295492,-0.9075270744808194,0.4180151575135732,-0.0077502232253906555,-0.039973381307374226,176.2071689813503,-2.7217728514175437,-49.37231060136353,0.0019156733869889761,-0.010035468666042196,-0.017796598783810583,0.46081449110031125,0.8237586135864259,-9.703778401546478
2026-09-11T17:40:00.466,0.7018022080000037,-231.30165100097656,-20817.14859008789,-83268.59436035156,-158.44163093566897,-0.02783439636230469,0.0,0.0,0.0,0.0,0.0,-0.3800373077392578,-3113.265625,-136.8134307861328,0.0,0.0,0.0,1,1789162800.075038,38.9913843,-76.93669355333333,-10.225000000000001,0,1,20.430399999999995,15.984004000000002,169.96336900000003,1,1,1789162800.4615493,-0.9075425535768419,0.4178835019818321,-0.0072993594021676525,-0.04106837677512174,176.0710368175586,-2.726735654900189,-49.354445059890246,0.0017992599258809543,-0.011490898729280266,-0.0243166252704858,0.4495368434143066,0.8419009163856506,-9.663865335388184
2026-09-11T17:40:00.500,0.7352323200000228,-231.30165100097656,-20817.14859008789,-83268.59436035156,-158.44163093566897,-0.02783439636230469,0.0,0.0,0.0,0.0,0.0,-0.3800373077392578,-3113.265625,-136.8134307861328,0.0,0.0,0.0,1,1789162800.075038,38.9913843,-76.93669355333333,-10.225000000000001,0,1,20.430399999999995,15.984004000000002,169.96336900000003,1,1,1789162800.4895492,-0.9075474081541349,0.4178020624341499,-0.007293333980237968,-0.041784516964247766,175.99580419401462,-2.7600543629404513,-49.34276965602892,0.00467224640758882,-0.0037632789331501736,-0.02992960414489956,0.45326337047576903,0.844254512424469,-9.686322564258575
2026-09-11T17:40:00.533,0.7686584960000005,-231.30165100097656,-20817.14859008789,-83268.59436035156,-158.44163093566897,-0.02783439636230469,0.0,0.0,0.0,0.0,0.0,-0.37829017639160156,-3098.953125,-136.18446350097656,0.0915527418255806,32.958987057209015,986.0232608489539,1,1789162800.075038,38.9913843,-76.93669355333333,-10.225000000000001,0,1,20.430399999999995,15.984004000000002,169.96336900000003,1,1,1789162800.5295494,-0.9075967817818494,0.4176158445254341,-0.0069455044880507725,-0.04262450079408466,175.89101112547826,-2.7632300258713016,-49.31835808796149,0.002290570110317358,-0.0030272735875841645,-0.03214687042663315,0.43080614160537717,0.8461177759552001,-9.652587687702178
2026-09-11T17:40:00.566,0.8020779199999879,-231.3029327392578,-20817.263946533203,-83269.05578613281,-158.4425089263916,-0.02871238708496094,-0.026260698214173317,-0.017988578276708724,-0.04023930358963114,-0.5382671549550193,0.0,-0.3756904602050781,-3077.65625,-135.24856567382812,0.0610351637005806,21.972658932209015,-328.7407983154986,1,1789162800.075038,38.9913843,-76.93669355333333,-10.225000000000001,0,1,20.430399999999995,15.984004000000002,169.96336900000003,1,1,1789162800.5615492,-0.9076388333771771,0.4174399934124923,-0.007731285546438618,-0.0433108216187909,175.85633607656493,-2.8771000387080155,-49.29305876112112,0.001991944275301128,0.01091494007612214,-0.04278971367236938,0.5006294907569885,0.8261122096252441,-9.668474460964202
2026-09-11T17:40:00.599,0.8354956800000082,-231.30381774902344,-20817.34359741211,-83269.37438964844,-158.44311515808107,-0.029318618774414065,-0.026260698214173317,-0.017988578276708724,-0.04023930358963114,0.0,0.0,-0.373382568359375,-3058.75,-134.417724609375,0.0610351637005806,21.972658932209015,0.0,1,1789162800.075038,38.9913843,-76.93669355333333,-10.225000000000001,0,1,20.430399999999995,15.984004000000002,169.96336900000003,1,1,1789162800.5895493,-0.9077248585883143,0.41718544333317925,-0.008273025868526166,-0.04385708625412747,175.82433469516528,-2.9584836394759537,-49.25863484789309,0.0014440854231001082,0.028999518186511784,-0.049042006651788664,0.46973854274749755,0.8400376528549194,-9.705053266067505
2026-09-11T17:40:00.634,0.8689114880000375,-231.3046875,-20817.421875,-83269.6875,-158.44371093750001,-0.02991439819335938,-0.026260698214173317,-0.017988578276708724,-0.04023930358963114,0.0,0.0,-0.3716773986816406,-3044.78125,-133.80386352539062,0.030517585575580597,10.986330807209015,-328.77637209880925,1,1789162800.075038,38.9913843,-76.93669355333333,-10.225000000000001,0,1,20.430399999999995,15.984004000000002,169.96336900000003,1,1,1789162800.6295493,-0.9078846660495978,0.4167142044176644,-0.00894092381684064,-0.04488613226670945,175.74715426449904,-3.075052732201512,-49.19553497449554,-0.0010862929264412707,0.03817244513621838,-0.05390170142104168,0.4896460425758362,0.8922090317153931,-9.657392946281433
2026-09-11T17:40:00.667,0.9023457600000029,-231.3385009765625,-20820.465087890625,-83281.8603515625,-158.4668731689453,-0.05307662963867188,-0.8510111570358276,-0.582942642569542,-1.3040055533499046,-16.89745373529945,0.0,-0.3704338073730469,-3034.59375,-133.35617065429688,0.015258795581758022,5.493166409432888,-164.29741307906482,1,1789162800.075038,38.9913843,-76.93669355333333,-10.225000000000001,0,1,20.430399999999995,15.984004000000002,169.96336900000003,1,1,1789162800.6615493,-0.9081167971607553,0.4162212025219951,-0.010235947036707146,-0.044486162723906666,175.84881387366497,-3.1886110508264824,-49.13164349008423,0.001507266342022303,0.04948025882696444,-0.06012170580929906,0.40923151124954227,0.5186737270545959,-9.74006300714493
2026-09-11T17:40:00.700,0.9357711680000307,-231.34295654296875,-20820.866088867188,-83283.46435546875,-158.46992523193362,-0.05612869262695313,-0.20018687844276428,-0.13712801173329353,-0.30674662610346587,13.337597280364616,0.0,-0.36915016174316406,-3024.078125,-132.89405822753906,0.0457763746380806,16.479494869709015,328.68195536362606,1,1789162800.075038,38.9913843,-76.93669355333333,-10.225000000000001,0,1,20.430399999999995,15.984004000000002,169.96336900000003,1,1,1789162800.6895492,-0.9084558880024761,0.41565581660311307,-0.010690516836583985,-0.042706609879484256,176.05430977129933,-3.148625554378046,-49.06358889640042,0.00020525072003453314,0.0463835211351509,-0.05950473191871907,0.1866205525779724,0.44463351833343506,-9.683674768714905
2026-09-11T17:40:00.733,0.9692075520000003,-231.34323120117188,-20820.89080810547,-83283.56323242188,-158.47011337280276,-0.05631683349609375,-0.043989092111587524,-0.030132528096437457,-0.06740454567026982,3.199971732498146,0.0,-0.36716270446777344,-3007.796875,-132.17857360839844,0.0610351637005806,21.972658932209015,164.28702525084623,1,1789162800.075038,38.9913843,-76.93669355333333,-10.225000000000001,0,1,20.430399999999995,15.984004000000002,169.96336900000003,1,1,1789162800.7295492,-0.908839206228202,0.4150496302792765,-0.011316967221250205,-0.04021228519296778,176.34252116411542,-3.0926543985881527,-48.991794522744094,0.0009583602922700864,0.02192482606355277,-0.04473837378222105,0.42384341999053954,0.40128812461853025,-9.648959227142335
2026-09-11T17:40:00.767,1.0026226560000282,-231.34466552734375,-20821.019897460938,-83284.07958984375,-158.47109588623047,-0.057299346923828126,-0.043989092111587524,-0.030132528096437457,-0.06740454567026982,0.0,0.0,-0.36473655700683594,-2987.921875,-131.30516052246094,0.0762939527630806,27.465822994709015,164.39164943180828,1,1789162800.075038,38.9913843,-76.93669355333333,-10.225000000000001,0,1,20.430399999999995,15.984004000000002,169.96336900000003,1,1,1789162800.7615492,-0.9091140148615436,0.4145789573848191,-0.011617016307839293,-0.03874327048849889,176.50863274230542,-3.0522531516074625,-48.93532154633679,0.0017481217787975204,0.008302880317587424,-0.044072530672585215,0.39530606801986695,0.4962164981842041,-9.677300446109772
2026-09-11T17:40:00.801,1.0360477440000295,-231.3461456298828,-20821.153106689453,-83284.61242675781,-158.47210975646973,-0.05831321716308594,-0.043989092111587524,-0.030132528096437457,-0.06740454567026982,0.0,0.0,-0.36252593994140625,-2969.8125,-130.50933837890625,0.0457763746380806,16.479494869709015,-328.6850920182937,1,1789162800.075038,38.9913843,-76.93669355333333,-10.225000000000001,0,1,20.430399999999995,15.984004000000002,169.96336900000003,1,1,1789162800.7895494,-0.9093593564057204,0.4141519416497061,-0.010934401751089002,-0.037738163753659855,176.57992237870988,-2.931687121750607,-48.88459446943787,-0.001314581992602129,-0.0012002629265965004,-0.04544313773417636,0.3491167457580566,0.5649611158180237,-9.659452342815399
2026-09-11T17:40:00.834,1.0694740480000178,-231.3476104736328,-20821.284942626953,-83285.13977050781,-158.47311317443848,-0.059316635131835944,-0.043989092111587524,-0.030132528096437457,-0.06740454567026982,0.0,0.0,-0.3610706329345703,-2957.890625,-129.9854278564453,0.030517585575580597,10.986330807209015,-164.3365674680016,1,1789162800.075038,38.9913843,-76.93669355333333,-10.225000000000001,0,1,20.430399999999995,15.984004000000002,169.96336900000003,1,1,1789162800.8295493,-0.9095928455636261,0.41361415600939905,-0.010667879810677062,-0.038083875701443594,176.52945682225655,-2.918242102319496,-48.816484134286625,0.001335176877775662,0.002117258915594321,-0.0413983371926795,0.5058270153427125,0.7340277646064758,-9.661021406841277
2026-09-11T17:40:00.867,1.1028915200000142,-231.3726043701172,-20823.534393310547,-83294.13757324219,-158.4902339935303,-0.07643745422363282,-0.7804746031761169,-0.5346251031756402,-1.1959222959369173,-15.096670839710926,0.0,-0.360687255859375,-2954.75,-129.847412109375,0.0,0.0,-328.76008116981984,1,1789162800.075038,38.9913843,-76.93669355333333,-10.225000000000001,0,1,20.430399999999995,15.984004000000002,169.96336900000003,1,1,1789162800.8615491,-0.9098411273192082,0.4131494445133994,-0.011829739179328044,-0.03683363690611086,176.71354218243647,-2.978542380314468,-48.759148542947685,0.002307499804061703,0.014065433908897102,-0.042090883839870856,0.45228270545959476,0.16867438278198243,-9.7686003591156
2026-09-11T17:40:00.900,1.1363159040000141,-231.38546752929688,-20824.69207763672,-83298.76831054688,-158.49904525756838,-0.08524871826171876,-0.31551021337509155,-0.21612449616193774,-0.48345672906661036,9.528989584780476,0.0,-0.360687255859375,-2954.75,-129.847412109375,0.0,0.0,0.0,1,1789162800.075038,38.9913843,-76.93669355333333,-10.225000000000001,0,1,20.430399999999995,15.984004000000002,169.96336900000003,1,1,1789162800.8895493,-0.9101076378784139,0.4127756996380658,-0.011233009657050435,-0.034556168157422504,176.92227158426476,-2.807148696296754,-48.71752979442846,0.0027330110756979206,0.01200995964882338,-0.02839703052872334,0.041874396190643315,0.1378815012741089,-9.813710949859619
2026-09-11T17:40:00.934,1.1697335680000265,-231.3851318359375,-20824.661865234375,-83298.6474609375,-158.4988153076172,-0.08501876831054689,-0.057196613401174545,-0.03917968017980457,-0.0876424485052893,5.294948682890218,0.0,-0.360687255859375,-2954.75,-129.847412109375,0.0,0.0,0.0,1,1789162800.075038,38.9913843,-76.93669355333333,-10.225000000000001,0,1,20.430399999999995,15.984004000000002,169.96336900000003,1,1,1789162800.9295492,-0.910305280666709,0.41260258669683103,-0.01077459924281891,-0.031421480750353024,177.22779580239646,-2.6104689915155315,-48.70234633528112,0.003485073450382277,0.011423005421377688,-0.005622752718224932,0.3265614503860474,0.07325567670822143,-9.717703844776153
2026-09-11T17:40:00.968,1.203149824000036,-231.38497924804688,-20824.64813232422,-83298.59252929688,-158.49871078491213,-0.08491424560546876,0.0,0.0,0.0,1.1724736661041082,0.0,-0.360687255859375,-2954.75,-129.847412109375,0.0,0.0,0.0,1,1789162800.075038,38.9913843,-76.93669355333333,-10.225000000000001,0,1,20.430399999999995,15.984004000000002,169.96336900000003,1,1,1789162800.9615493,-0.9103734121886891,0.4125765840017209,-0.010710354763106921,-0.029767448903837295,177.39756713964712,-2.525473090504221,-48.70220824599179,0.004564035993965172,0.014818194415282256,0.002300518487053726,0.320579393787384,0.3617673244667053,-9.712212120685576
2026-09-11T17:40:01.001,1.2365732160000107,-231.38497924804688,-20824.64813232422,-83298.59252929688,-158.49871078491213,-0.08491424560546876,0.0,0.0,0.0,0.0,0.0,-0.360687255859375,-2954.75,-129.847412109375,0.0,0.0,0.0,1,1789162800.075038,38.9913843,-76.93669355333333,-10.225000000000001,0,1,20.430399999999995,15.984004000000002,169.96336900000003,1,1,1789162800.9895492,-0.9103467760557353,0.41262436468445485,-0.010288442406758767,-0.03006707412638632,177.34646792209665,-2.495729016608809,-48.70802063562977,0.0006602580560294549,0.008951095601778118,0.008006697943523986,0.44257412179946903,0.5827111526107788,-9.680340507659912
2026-09-11T17:40:01.034,1.2699934400000075,-231.38497924804688,-20824.64813232422,-83298.59252929688,-158.49871078491213,-0.08491424560546876,0.0,0.0,0.0,0.0,0.0,-0.3614826202392578,-2961.265625,-130.1337432861328,-0.0305175818502903,-10.986329466104507,-328.73296917775195,1,1789162800.075038,38.9913843,-76.93669355333333,-10.225000000000001,0,1,20.430399999999995,15.984004000000002,169.96336900000003,1,1,1789162801.0295494,-0.9101997671351747,0.41273038207417767,-0.010068472886309715,-0.0329945673363732,177.0304071623421,-2.611549937065017,-48.716158611500795,0.003669031153542479,0.004090179102048712,0.0013023646878381689,0.5815343545913696,0.926728440284729,-9.654941283740998
2026-09-11T17:40:01.067,1.3034103040000105,-231.38497924804688,-20824.64813232422,-83298.59252929688,-158.49871078491213,-0.08491424560546876,0.0,0.0,0.0,0.0,0.0,-0.36234283447265625,-2968.3125,-130.44342041015625,-0.015258791856467724,-5.493165068328381,164.38300128269475,1,1789162800.075038,38.9913843,-76.93669355333333,-10.225000000000001,0,1,20.430399999999995,15.984004000000002,169.96336900000003,1,1,1789162801.0615492,-0.9101417187412939,0.41266997546971274,-0.010032706034904637,-0.03528296985923323,176.7893254259253,-2.715852107991567,-48.70417509404697,0.001755975760431495,-0.0017214182412420072,-0.0073743651555264415,0.5301475077438355,0.7981632566642761,-9.637289313449859
2026-09-11T17:40:01.101,1.3368304319999993,-231.38497924804688,-20824.64813232422,-83298.59252929688,-158.49871078491213,-0.08491424560546876,0.0,0.0,0.0,0.0,0.0,-0.3624591827392578,-2969.265625,-130.4853057861328,0.0,0.0,164.36696676715948,1,1789162801.0734162,38.99138408333334,-76.93669351,-10.214000000000002,0,1,17.089956000000004,6.9484960000000004,72.62448400000001,1,1,1789162801.0895493,-0.9101103668467517,0.4127124621784463,-0.00930432970449811,-0.03579068551209156,176.70200481501703,-2.663979195697486,-48.70951942352323,-0.0013194689145077131,-0.017644231540111473,-0.004499109745790983,0.3387216965866089,0.630665671901703,-9.704661000061035
2026-09-11T17:40:01.136,1.3702501760000132,-231.38497924804688,-20824.64813232422,-83298.59252929688,-158.49871078491213,-0.08491424560546876,0.0,0.0,0.0,0.0,0.0,-0.3624591827392578,-2969.265625,-130.4853057861328,0.0,0.0,0.0,1,1789162801.0734162,38.99138408333334,-76.93669351,-10.214000000000002,0,1,17.089956000000004,6.9484960000000004,72.62448400000001,1,1,1789162801.1295493,-0.9100659461740258,0.41301905396410377,-0.008089246421663974,-0.03361247936855271,176.87317089283542,-2.4351553530456997,-48.753870244691676,0.00041102503884466466,-0.024831497399824123,0.007414856794172709,0.21378497352600098,0.4024649226379395,-9.753792317371369
2026-09-11T17:40:01.168,1.4036712640000246,-231.38497924804688,-20824.64813232422,-83298.59252929688,-158.49871078491213,-0.08491424560546876,0.0,0.0,0.0,0.0,0.0,-0.36049842834472656,-2953.203125,-129.77943420410156,0.1220703199505806,43.945315182209015,1314.8978029139564,1,1789162801.0734162,38.99138408333334,-76.93669351,-10.214000000000002,0,1,17.089956000000004,6.9484960000000004,72.62448400000001,1,1,1789162801.1615493,-0.9099349234986766,0.413428595431915,-0.0073648813042494704,-0.03226437664090558,176.98085808258713,-2.2970964756773498,-48.80876707225661,-0.000787667091425041,-0.01525452672828084,0.018119310162504332,0.32342332233428955,0.4832717199707031,-9.710348857154846
2026-09-11T17:40:01.201,1.4370900160000133,-231.38497924804688,-20824.64813232422,-83298.59252929688,-158.49871078491213,-0.08491424560546876,0.0,0.0,0.0,0.0,0.0,-0.3569450378417969,-2924.09375,-128.50021362304688,0.0915527492761612,32.95898973941803,-328.74732852964434,1,1789162801.0734162,38.99138408333334,-76.93669351,-10.214000000000002,0,1,17.089956000000004,6.9484960000000004,72.62448400000001,1,1,1789162801.1895492,-0.9097328729047937,0.4138333810078098,-0.00739962213127654,-0.03276092661006097,176.93165955739195,-2.325614690998694,-48.85885310661669,-0.0014812609361675875,0.0005593780252641827,0.016695121492876958,0.42962934358596805,0.6969586269950866,-9.711525655174254
2026-09-11T17:40:01.235,1.4705100799999968,-231.38497924804688,-20824.64813232422,-83298.59252929688,-158.49871078491213,-0.08491424560546876,0.0,0.0,0.0,0.0,0.0,-0.3554859161376953,-2912.140625,-127.97492980957031,0.045776382088661194,16.47949755191803,-493.1017543086727,1,1789162801.0734162,38.99138408333334,-76.93669351,-10.214000000000002,0,1,17.089956000000004,6.9484960000000004,72.62448400000001,1,1,1789162801.2295492,-0.9094305172969062,0.41425348079602065,-0.008063622950024335,-0.035569169829819,176.6708925708916,-2.529623349512576,-48.905829091201035,0.001387536755335492,0.04672804912949458,0.013313895132988343,0.5692760418891907,0.8488636380004883,-9.6937756183815
2026-09-11T17:40:01.268,1.5039450240000178,-231.38497924804688,-20824.64813232422,-83298.59252929688,-158.49871078491213,-0.08491424560546876,0.0,0.0,0.0,0.0,0.0,-0.355194091796875,-2909.75,-127.869873046875,0.0,0.0,-492.8824630873519,1,1789162801.0734162,38.99138408333334,-76.93669351,-10.214000000000002,0,1,17.089956000000004,6.9484960000000004,72.62448400000001,1,1,1789162801.2615492,-0.909253725009031,0.41436414319208226,-0.00976527457650387,-0.0382708741256109,176.4695771204462,-2.835830884066001,-48.91189191262333,0.002456899988032418,0.07290397365212993,0.0006026621907136419,0.6792085902023316,0.8883844381523133,-9.638073845462799
2026-09-11T17:40:01.302,1.5373688000000243,-231.38497924804688,-20824.64813232422,-83298.59252929688,-158.49871078491213,-0.08491424560546876,0.0,0.0,0.0,0.0,0.0,-0.355194091796875,-2909.75,-127.869873046875,0.0,0.0,0.0,1,1789162801.0734162,38.99138408333334,-76.93669351,-10.214000000000002,0,1,17.089956000000004,6.9484960000000004,72.62448400000001,1,1,1789162801.3015492,-0.9091467968627827,0.41433313734480004,-0.011583234131883283,-0.04057070050175976,176.3152348578586,-3.134570639858021,-48.90030152143908,0.0035489525010052696,0.06855147156350648,-0.007141189167459999,0.5422096874427795,0.689309439868927,-9.637485446453095
2026-09-11T17:40:01.335,1.5707875200000103,-231.38497924804688,-20824.64813232422,-83298.59252929688,-158.49871078491213,-0.08491424560546876,0.0,0.0,0.0,0.0,0.0,-0.355194091796875,-2909.75,-127.869873046875,0.0,0.0,0.0,1,1789162801.0734162,38.99138408333334,-76.93669351,-10.214000000000002,0,1,17.089956000000004,6.9484960000000004,72.62448400000001,1,1,1789162801.3295493,-0.9091635405555475,0.4142781707398369,-0.012479592303301831,-0.04049090699032779,176.3658137688642,-3.224071872846148,-48.892312120636475,0.0016777850099421489,0.05031976219717371,-0.008567995830965363,0.5065134808540345,0.5558409311676026,-9.664159534893036
2026-09-11T17:40:01.368,1.6042033280000396,-231.38497924804688,-20824.64813232422,-83298.59252929688,-158.49871078491213,-0.08491424560546876,0.0,0.0,0.0,0.0,0.0,-0.355194091796875,-2909.75,-127.869873046875,0.0,0.0,0.0,1,1789162801.0734162,38.99138408333334,-76.93669351,-10.214000000000002,0,1,17.089956000000004,6.9484960000000004,72.62448400000001,1,1,1789162801.3615491,-0.9092385110065955,0.4142329605203593,-0.012822406944451551,-0.0391403934727086,176.52303322157874,-3.195537131359388,-48.88932409375017,0.0009998991284675513,0.013862103051039762,-0.007094239810581352,0.4363959321975708,0.42266662197113036,-9.639054510478973
2026-09-11T17:40:01.402,1.6376187200000345,-231.38497924804688,-20824.64813232422,-83298.59252929688,-158.49871078491213,-0.08491424560546876,0.0,0.0,0.0,0.0,0.0,-0.355194091796875,-2909.75,-127.869873046875,0.0,0.0,0.0,1,1789162801.0734162,38.99138408333334,-76.93669351,-10.214000000000002,0,1,17.089956000000004,6.9484960000000004,72.62448400000001,1,1,1789162801.4015493,-0.9092807738374227,0.41432326331051933,-0.012968067063594687,-0.037101712170380344,176.7432905176974,-3.1142658511970347,-48.90519991564834,0.0027274260220915385,-0.026100875364799603,-0.0035725144459071933,0.5023946877861023,0.4245298855018616,-9.615812749595642
2026-09-11T17:40:01.436,1.671038144000022,-231.38497924804688,-20824.64813232422,-83298.59252929688,-158.49871078491213,-0.08491424560546876,0.0,0.0,0.0,0.0,0.0,-0.355194091796875,-2909.75,-127.869873046875,0.0,0.0,0.0,1,1789162801.0734162,38.99138408333334,-76.93669351,-10.214000000000002,0,1,17.089956000000004,6.9484960000000004,72.62448400000001,1,1,1789162801.4295492,-0.9093082361286438,0.4142946350749988,-0.012383751000337721,-0.03694766254920591,176.73161616696092,-3.045887532062658,-48.90254115803569,0.0017845991601642018,-0.04463609748805418,-0.0036266196527190175,0.5094554759025574,0.6559668293190003,-9.64297717054367
2026-09-11T17:40:01.469,1.7044534720000115,-231.38497924804688,-20824.64813232422,-83298.59252929688,-158.49871078491213,-0.08491424560546876,0.0,0.0,0.0,0.0,0.0,-0.355194091796875,-2909.75,-127.869873046875,0.0,0.0,0.0,1,1789162801.0734162,38.99138408333334,-76.93669351,-10.214000000000002,0,1,17.089956000000004,6.9484960000000004,72.62448400000001,1,1,1789162801.4615493,-0.9093022448767598,0.41425468420214084,-0.011195971826165451,-0.03790955411947541,176.57473010784938,-2.9674984022653215,-48.8968275817389,-0.003057293250718467,-0.04059147147948252,-0.00454605910266963,0.6020302534294129,0.7369697596549988,-9.518726912994385
2026-09-11T17:40:01.502,1.7378771840000127,-231.38497924804688,-20824.64813232422,-83298.59252929688,-158.49871078491213,-0.08491424560546876,0.0,0.0,0.0,0.0,0.0,-0.355194091796875,-2909.75,-127.869873046875,-0.03051757998764515,-10.986328795552254,-328.6986435124822,1,1789162801.0734162,38.99138408333334,-76.93669351,-10.214000000000002,0,1,17.089956000000004,6.9484960000000004,72.62448400000001,1,1,1789162801.5015492,-0.9092564484931742,0.41403384443635816,-0.01152833532050472,-0.04117989824619825,176.2479278671618,-3.156541033110529,-48.86128537812641,0.000774402589109884,-0.0013728759896187396,-0.021156008528049268,0.8780874554824829,1.4527571549606322,-9.564229769744873
2026-09-11T17:40:01.535,1.7712958079999908,-231.38497924804688,-20824.64813232422,-83298.59252929688,-158.49871078491213,-0.08491424560546876,0.0,0.0,0.0,0.0,0.0,-0.3555011749267578,-2912.265625,-127.98042297363281,0.0,0.0,328.74868802376363,1,1789162801.0734162,38.99138408333334,-76.93669351,-10.214000000000002,0,1,17.089956000000004,6.9484960000000004,72.62448400000001,1,1,1789162801.5295494,-0.9093703943584093,0.4134942990860325,-0.011324709632851624,-0.044042041727347866,175.93713731722457,-3.268719597888981,-48.78698675941082,-0.007364242245864874,0.007579092276785377,-0.051351251785102366,0.8428815814018249,1.8882704886436463,-9.394868921451568
2026-09-11T17:40:01.569,1.804712832000007,-231.38497924804688,-20824.64813232422,-83298.59252929688,-158.49871078491213,-0.08491424560546876,0.0,0.0,0.0,0.0,0.0,-0.3555011749267578,-2912.265625,-127.98042297363281,0.0,0.0,0.0,1,1789162801.0734162,38.99138408333334,-76.93669351,-10.214000000000002,0,1,17.089956000000004,6.9484960000000004,72.62448400000001,1,1,1789162801.5615492,-0.909687960556293,0.4124520954148896,-0.011475996361090248,-0.04711034827210846,175.61940975631248,-3.4249278481350984,-48.648004192830435,0.0062292546332929615,-0.025302038166161795,-0.08413324752653625,1.3737155546569826,2.1409878633117674,-9.638662244472505
2026-09-11T17:40:01.603,1.8381357760000014,-231.38632202148438,-20824.768981933594,-83299.07592773438,-158.4996305847168,-0.08583404541015625,-0.02583135850727558,-0.017694480577483775,-0.03958142577282515,-0.5294111906325998,0.0,-0.3555011749267578,-2912.265625,-127.98042297363281,0.0,0.0,0.0,1,1789162801.0734162,38.99138408333334,-76.93669351,-10.214000000000002,0,1,17.089956000000004,6.9484960000000004,72.62448400000001,1,1,1789162801.6015491,-0.9105348576895395,0.4102168270413406,-0.010771021719309593,-0.05032308451940304,175.24133461618163,-3.491561477221792,-48.36018971178905,0.026145032194875056,-0.0670038881157631,-0.13950469071068236,1.5991704418754578,2.326235484867096,-9.682105704689025
2026-09-11T17:40:01.636,1.8715551040000378,-231.4252166748047,-20828.269500732422,-83313.07800292969,-158.52627342224122,-0.11247688293457032,-0.9114797711372375,-0.6243636432290077,-1.3966616929782727,-18.15324241860472,0.0,-0.3555469512939453,-2912.640625,-127.99690246582031,-0.015258789993822575,-5.493164397776127,-164.37088135854063,1,1789162801.0734162,38.99138408333334,-76.93669351,-10.214000000000002,0,1,17.089956000000004,6.9484960000000004,72.62448400000001,1,1,1789162801.6295493,-0.9114032547028734,0.40806549790671875,-0.009495155197487481,-0.05231155477451,174.96509174155182,-3.4398651151466892,-48.08801128377994,0.01605161859766665,-0.10236652768919582,-0.1909179016842305,1.2617236098098754,3.2794418805885313,-9.831853252658844
2026-09-11T17:40:01.669,1.9049673920000032,-231.45626831054688,-20831.06414794922,-83324.25659179688,-158.5475437927246,-0.13374725341796875,-0.9372532367706299,-0.6420184671878815,-1.436154409421709,-0.528393145626304,0.0,-0.35533714294433594,-2910.921875,-127.92137145996094,0.015258789993822575,5.493164397776127,328.81102891138795,1,1789162801.0734162,38.99138408333334,-76.93669351,-10.214000000000002,0,1,17.089956000000004,6.9484960000000004,72.62448400000001,1,1,1789162801.6615493,-0.9128090487363743,0.40462250245643394,-0.00827448716065319,-0.05469738488370919,174.64507506233414,-3.403631240607312,-47.65350203555417,0.010648951898118203,-0.07517970846380534,-0.26440237184557375,1.0534303603744506,2.8514796675300595,-10.665810782413482
2026-09-11T17:40:01.702,1.9383942400000365,-231.49974060058594,-20834.976654052734,-83339.90661621094,-158.5773223114014,-0.16352577209472657,-1.2775722742080688,-0.8751370078325272,-1.9576257333404756,-6.97399110572477,0.0,-0.355072021484375,-2908.75,-127.825927734375,0.0,0.0,-164.33390302820837,1,1789162801.0734162,38.99138408333334,-76.93669351,-10.214000000000002,0,1,17.089956000000004,6.9484960000000004,72.62448400000001,1,1,1789162801.7015493,-0.9151398597202048,0.39888437573563007,-0.008668434163726235,-0.057750759254141505,174.31986977984766,-3.5510251124735257,-46.92591473278315,0.041987211282302386,-0.0022396064961591237,-0.36058362719862685,1.2119058269882201,3.26002471326828,-10.705037383060455
2026-09-11T17:40:01.736,1.9718135360000133,-231.5484619140625,-20839.361572265625,-83357.4462890625,-158.61069641113284,-0.19689987182617188,-1.4857333898544312,-1.0177273720502855,-2.276591293956434,-4.26670759964115,0.0,-0.3553791046142578,-2911.265625,-127.93647766113281,-0.015258789993822575,-5.493164397776127,-164.37103874898904,1,1789162801.0734162,38.99138408333334,-76.93669351,-10.214000000000002,0,1,17.089956000000004,6.9484960000000004,72.62448400000001,1,1,1789162801.7295492,-0.9172027714172384,0.3939505720480532,-0.009095446568621442,-0.058815777978924275,174.2074849579411,-3.6135048263649714,-46.30543361526417,0.026519056253577443,0.07478718391503182,-0.37978818309002127,4.016607773246765,2.2802422956085207,-7.943190498008728
2026-09-11T17:40:01.770,2.005226912000012,-231.6044158935547,-20844.397430419922,-83377.58972167969,-158.64902488708498,-0.23522834777832033,-1.5902889966964722,-1.0893479627370835,-2.436801992522106,-2.14347064740782,0.0,-0.3571453094482422,-2925.734375,-128.5723114013672,-0.1525879055261612,-54.93164598941803,-1479.6015102348222,1,1789162801.0734162,38.99138408333334,-76.93669351,-10.214000000000002,0,1,17.089956000000004,6.9484960000000004,72.62448400000001,1,1,1789162801.7615492,-0.9194708614685604,0.3879683966908886,-0.011923393070404114,-0.06254351107071957,173.91374334679722,-4.040192341356864,-45.5395032468214,-0.009283929890133437,0.19327461977319846,-0.43915869918926204,1.5270915631866455,1.7590188395118713,-8.745766747245789
2026-09-11T17:40:01.803,2.038651296000012,-231.6614990234375,-20849.534912109375,-83398.1396484375,-158.6881268310547,-0.2743302917480469,-1.6691981554031372,-1.1434007364511491,-2.5577146037293037,-1.617165890448896,0.0,-0.3595600128173828,-2945.515625,-129.4416046142578,-0.0762939602136612,-27.46582567691803,821.7300373433977,1,1789162801.0734162,38.99138408333334,-76.93669351,-10.214000000000002,0,1,17.089956000000004,6.9484960000000004,72.62448400000001,1,1,1789162801.8015492,-0.9227286891936479,0.38018862253966496,-0.014416838142894921,-0.06181045387574928,174.06577107452458,-4.221068707040972,-44.56702656180888,0.08551659549166697,0.14076586562817345,-0.47008226834317235,-0.05452497489929199,1.4239256034851073,-9.611399757022857
2026-09-11T17:40:01.836,2.0720687360000056,-231.71800231933594,-20854.620208740234,-83418.48083496094,-158.72683158874514,-0.3130350494384766,-1.6443676948547363,-1.1263918709754945,-2.519666855260141,0.5089817016401545,0.0,-0.360076904296875,-2949.75,-129.627685546875,0.0,0.0,821.9009498310799,1,1789162801.0734162,38.99138408333334,-76.93669351,-10.214000000000002,0,1,17.089956000000004,6.9484960000000004,72.62448400000001,1,1,1789162801.8295493,-0.9251329894135508,0.3743888905460928,-0.013253259285493596,-0.06153260641906765,174.01962029832868,-4.048237613532607,-43.85348368947152,0.08745129296750268,0.1098223997207904,-0.435052463058095,-3.1667634702301024,0.3964828660392761,-7.956919808235169
2026-09-11T17:40:01.869,2.105483616000015,-231.7781982421875,-20860.037841796875,-83440.1513671875,-158.76806579589845,-0.3542692565917969,-1.7758829593658447,-1.2164798271656037,-2.7211878739388027,-2.696043085897178,0.0,-0.359344482421875,-2943.75,-129.364013671875,0.0,0.0,0.0,1,1789162801.0734162,38.99138408333334,-76.93669351,-10.214000000000002,0,1,17.089956000000004,6.9484960000000004,72.62448400000001,1,1,1789162801.8615491,-0.9275812640882937,0.3681206157074874,-0.014489595126300865,-0.06221143332683684,173.97155105853147,-4.1681146630706305,-43.07279649401327,0.029731334741873006,0.060694173803953214,-0.4445964470067756,4.033279078521728,1.8730701808929444,-8.914244997024536
2026-09-11T17:40:01.904,2.1389072960000135,-231.8425750732422,-20865.831756591797,-83463.32702636719,-158.81216392517092,-0.39836738586425785,-1.8293473720550537,-1.253102949857712,-2.803111466217141,-1.0957238308920487,0.0,-0.3577919006347656,-2931.03125,-128.80508422851562,0.0762939527630806,27.465822994709015,821.7474256189096,1,1789162801.0734162,38.99138408333334,-76.93669351,-10.214000000000002,0,1,17.089956000000004,6.9484960000000004,72.62448400000001,1,1,1789162801.9015493,-0.9307404612392263,0.35982803874952146,-0.018653828708592234,-0.06243405333930805,174.08095715671635,-4.568723463112981,-42.03708307673594,0.02258578225128302,0.0841850838053205,-0.4797168348800314,1.5440570679664611,-0.0657045560836792,-11.127507872028351
2026-09-11T17:40:01.937,2.172324032000006,-231.9087371826172,-20871.786346435547,-83487.14538574219,-158.8574849700928,-0.44368843078613285,-1.9603753089904785,-1.342857086658478,-3.0038857521887894,-2.685903757948902,0.0,-0.3553733825683594,-2911.21875,-127.93441772460938,0.0610351637005806,21.972658932209015,-164.3836209048439,1,1789162801.0734162,38.99138408333334,-76.93669351,-10.214000000000002,0,1,17.089956000000004,6.9484960000000004,72.62448400000001,1,1,1789162801.9295492,-0.933129179021494,0.35356003223656424,-0.01953870295248569,-0.06231755732124735,174.09851079704947,-4.61904590173599,-41.26489440677977,0.05336466361020303,0.07540520500316301,-0.5113526729016806,-1.3669489660453795,-0.3195006622695923,-12.147889821357726
2026-09-11T17:40:01.970,2.2057395520000114,-231.9749298095703,-20877.743682861328,-83510.97473144531,-158.90282691955568,-0.48903038024902346,-1.9352850914001465,-1.3256702876091004,-2.9654399776509908,0.514335825070945,0.0,-0.3541145324707031,-2900.90625,-127.48123168945312,0.0457763746380806,16.479494869709015,-164.3896028701364,1,1789162801.0734162,38.99138408333334,-76.93669351,-10.214000000000002,0,1,17.089956000000004,6.9484960000000004,72.62448400000001,1,1,1789162801.9615493,-0.9360721332585736,0.3458774117802193,-0.019687301344343933,-0.06123877466717228,174.18322620283126,-4.54371468869931,-40.327446787957214,0.10110413104122833,0.04167060855599062,-0.5141465959682732,-3.9518838821792603,-0.8585722216606141,-9.910110320949554
2026-09-11T17:40:02.003,2.2391623359999926,-232.04209899902344,-20883.78890991211,-83535.15563964844,-158.94883781433106,-0.5350412750244141,-1.9618802070617676,-1.3438879418373109,-3.006191709550173,-0.5450669288417344,0.0,-0.3545360565185547,-2904.359375,-127.63298034667969,-0.0457763709127903,-16.479493528604507,-986.1233701636596,1,1789162801.0734162,38.99138408333334,-76.93669351,-10.214000000000002,0,1,17.089956000000004,6.9484960000000004,72.62448400000001,1,1,1789162802.0015492,-0.9395617038294827,0.3365740814627096,-0.019557334810942278,-0.059659056644112564,174.30484085826745,-4.410976031968062,-39.19803012460875,0.06905779157951003,-0.010958049708646398,-0.4840684643040289,-1.2219086101531982,-1.386562266368866,-8.766851045093537
2026-09-11T17:40:02.036,2.2725861760000043,-232.11517333984375,-20890.365600585938,-83561.46240234375,-158.99889373779297,-0.5850971984863281,-2.1718757152557373,-1.4877348649501803,-3.3279681123617095,-4.303722226794372,0.0,-0.35453224182128906,-2904.328125,-127.63160705566406,0.0457763709127903,16.479493528604507,986.0921742444144,1,1789162801.0734162,38.99138408333334,-76.93669351,-10.214000000000002,0,1,17.089956000000004,6.9484960000000004,72.62448400000001,1,1,1789162802.0295494,-0.9417953474790792,0.3300266683238818,-0.020046064972069483,-0.06084469525714316,174.1638384884949,-4.468978476642455,-38.395342308239925,0.07807520969286394,-0.018768572644246223,-0.5602936249897789,0.4018765236282349,1.259958412780762,-9.417424216823578
2026-09-11T17:40:02.070,2.306000480000023,-232.18898010253906,-20897.008209228516,-83588.03283691406,-159.04945137023927,-0.6356548309326172,-2.2243921756744385,-1.5237086403369904,-3.4084391560866782,-1.0765980756860942,0.0,-0.354339599609375,-2902.75,-127.562255859375,0.0,0.0,-493.1867959480874,1,1789162801.0734162,38.99138408333334,-76.93669351,-10.214000000000002,0,1,17.089956000000004,6.9484960000000004,72.62448400000001,1,1,1789162802.0615492,-0.9445820778925991,0.32205466623634393,-0.021943344973465142,-0.059699076130812136,174.3204897191973,-4.5832380977209395,-37.42608867909832,0.07130472845852755,-0.025806961918763756,-0.5703556226604514,1.9719212145233156,1.2737857895088196,-8.509524544849397
2026-09-11T17:40:02.104,2.3394274880000125,-232.2659454345703,-20903.935089111328,-83615.74035644531,-159.10217262268068,-0.6883760833740235,-2.2767388820648193,-1.5595661342144014,-3.4886500854831777,-1.072710243089124,0.0,-0.35417938232421875,-2901.4375,-127.50457763671875,0.015258789993822575,5.493164397776127,164.33311643620112,1,1789162802.0702615,38.99138215666667,-76.93669234833334,-10.193000000000001,0,1,18.113536000000003,7.300803999999999,72.67562500000001,1,1,1789162802.1015491,-0.9482281322999576,0.3115981693609139,-0.02108152696956632,-0.05766766153133682,174.46206479269853,-4.353997194959194,-36.17149791650491,0.06376734955086483,-0.061047952043332465,-0.5824423767963625,-0.4140367698287964,-0.4817026559448242,-11.131136332588195
2026-09-11T17:40:02.137,2.372844576000034,-232.34307861328125,-20910.877075195312,-83643.50830078125,-159.15500885009766,-0.7412123107910157,-2.3027400970458984,-1.5773769664764405,-3.5284917825618263,-0.532985766504481,0.0,-0.354095458984375,-2900.75,-127.474365234375,0.0,0.0,-164.3818993974756,1,1789162802.0702615,38.99138215666667,-76.93669234833334,-10.193000000000001,0,1,18.113536000000003,7.300803999999999,72.67562500000001,1,1,1789162802.1295493,-0.9507144169577628,0.3039708692417973,-0.021594507305581826,-0.05724932571896677,174.4908917723089,-4.350905998255507,-35.25172425475353,0.16484407892283684,-0.04347318460745036,-0.5862901296653091,1.906412791442871,0.010591182174682617,-7.391076093902588
2026-09-11T17:40:02.170,2.4062608319999867,-232.4206085205078,-20917.854766845703,-83671.41906738281,-159.20811683654787,-0.794320297241211,-2.3285715579986572,-1.5950715172290804,-3.5680733653120047,-0.5295192481367413,0.0,-0.3546466827392578,-2905.265625,-127.67280578613281,0.0,0.0,0.0,1,1789162802.0702615,38.99138215666667,-76.93669234833334,-10.193000000000001,0,1,18.113536000000003,7.300803999999999,72.67562500000001,1,1,1789162802.1615493,-0.9533607002202549,0.2956022137628242,-0.022946745306808042,-0.05653453257865486,174.57680887238658,-4.426290089455754,-34.243754891685846,-0.13012075345440965,-0.0796276800625129,-0.5738159124354553,3.8805895355033875,0.22113996114730836,-16.65443783668518
2026-09-11T17:40:02.204,2.4396841920000156,-232.4997100830078,-20924.973907470703,-83699.89562988281,-159.26230140686036,-0.848504867553711,-2.355102300643921,-1.613245075941086,-3.6087264583506715,-0.5437382331396318,0.0,-0.3553657531738281,-2911.15625,-127.93167114257812,-0.0915527492761612,-32.95898973941803,-986.1064159734256,1,1789162802.0702615,38.99138215666667,-76.93669234833334,-10.193000000000001,0,1,18.113536000000003,7.300803999999999,72.67562500000001,1,1,1789162802.2015493,-0.9568253767728995,0.28435638498070576,-0.024456672921067048,-0.0550319528431927,174.7395550365586,-4.479299064769539,-32.89668896176742,0.003603581306592692,-0.12245561644550094,-0.593593110854429,2.1630528261756896,0.027850886459350587,-11.666579431419372
2026-09-11T17:40:02.238,2.4731080960000327,-232.57424926757812,-20931.68243408203,-83726.72973632812,-159.31336074829102,-0.8995642089843751,-2.2263357639312744,-1.525039998292923,-3.4114173190160195,2.638981898946272,0.0,-0.35543251037597656,-2911.703125,-127.95570373535156,0.0305175818502903,10.986329466104507,1314.787141726476,1,1789162802.0702615,38.99138215666667,-76.93669234833334,-10.193000000000001,0,1,18.113536000000003,7.300803999999999,72.67562500000001,1,1,1789162802.2295492,-0.9592484680439642,0.2768356147703408,-0.022220592381818033,-0.05206403964577141,174.9625849235753,-4.0976480036433935,-32.0155702657802,0.04128960318028026,-0.11012591247771221,-0.6023030019535816,-1.6858612293052675,0.4214898239517212,-10.230297448730468
2026-09-11T17:40:02.271,2.506528096000011,-232.64744567871094,-20938.270111083984,-83753.08044433594,-159.363500289917,-0.9497037506103516,-2.1744027137756348,-1.48946585893631,-3.3318402356306107,1.0644565935558434,0.0,-0.354827880859375,-2906.75,-127.738037109375,0.0,0.0,-328.7351725347594,1,1789162802.0702615,38.99138215666667,-76.93669234833334,-10.193000000000001,0,1,18.113536000000003,7.300803999999999,72.67562500000001,1,1,1789162802.2615492,-0.961709366403457,0.26849996632153217,-0.020835883169621424,-0.05087955021164318,175.01635680490278,-3.864575944779523,-31.030197914417467,0.025824938810059296,-0.10489498617656,-0.5686469453227488,1.380187943763733,0.30655588405609135,-9.445569302787781
2026-09-11T17:40:02.304,2.539957216000005,-232.72320556640625,-20945.088500976562,-83780.35400390625,-159.4153958129883,-1.0015992736816408,-2.2532317638397217,-1.5434637582302095,-3.4526300962558336,-1.6152952663399318,0.0,-0.3546466827392578,-2905.265625,-127.67280578613281,0.0,0.0,0.0,1,1789162802.0702615,38.99138215666667,-76.93669234833334,-10.193000000000001,0,1,18.113536000000003,7.300803999999999,72.67562500000001,1,1,1789162802.3015492,-0.9644763757822878,0.25840788788983027,-0.020689178690332752,-0.0508197001102886,174.9785806105223,-3.7941987011424576,-29.831045388286306,-0.029180159764093196,0.014702653618800233,-0.5869242077825587,-0.4212936909484863,1.1799361474609376,-11.247835469512939
2026-09-11T17:40:02.337,2.5733776960000228,-232.80271911621094,-20952.244720458984,-83808.97888183594,-159.4698625946045,-1.0560660552978516,-2.3850913047790527,-1.6337875437736513,-3.654678650173697,-2.702647763987628,0.0,-0.3545246124267578,-2904.265625,-127.62886047363281,0.0,0.0,0.0,1,1789162802.0702615,38.99138215666667,-76.93669234833334,-10.193000000000001,0,1,18.113536000000003,7.300803999999999,72.67562500000001,1,1,1789162802.3295493,-0.9665731317107482,0.25037173328828793,-0.020739416943395365,-0.05118840503417857,174.9076408372009,-3.7684578165415803,-28.876687037948262,-0.02261126405836214,0.04307699486724764,-0.6214161025921715,2.3390821965789796,1.6777217096710206,-9.066738407039642
2026-09-11T17:40:02.371,2.6067940160000376,-232.88478088378906,-20959.630279541016,-83838.52111816406,-159.52607490539552,-1.1122783660888673,-2.489572525024414,-1.7053571796417237,-3.8147753660561063,-2.1417569579187856,0.0,-0.3545246124267578,-2904.265625,-127.62886047363281,0.0,0.0,0.0,1,1789162802.0702615,38.99138215666667,-76.93669234833334,-10.193000000000001,0,1,18.113536000000003,7.300803999999999,72.67562500000001,1,1,1789162802.3615491,-0.9687997128427197,0.24128042346796755,-0.02153472068275391,-0.05241306566208327,174.75762280290283,-3.8427377128929097,-27.794113369521856,0.018233629228509962,0.0962805645874916,-0.6397520081148483,0.34372308816909786,2.0702819156455994,-10.141743397769929
2026-09-11T17:40:02.405,2.6402236160000143,-232.9720458984375,-20967.484130859375,-83869.9365234375,-159.5858514404297,-1.172054901123047,-2.567882776260376,-1.7589997017383576,-3.9347702705313967,-1.6046414583683684,0.0,-0.35478973388671875,-2906.4375,-127.72430419921875,-0.0457763746380806,-16.479494869709015,-492.96117422046564,1,1789162802.0702615,38.99138215666667,-76.93669234833334,-10.193000000000001,0,1,18.113536000000003,7.300803999999999,72.67562500000001,1,1,1789162802.4015493,-0.9715190528124228,0.22879151399312395,-0.027270558913766882,-0.05533073073544075,174.53003871025905,-4.4912091466714745,-26.2885989794637,0.06292732258187995,0.27484572395780704,-0.6814009745881142,2.079696299800873,2.1601108311271666,-12.039134071063994
2026-09-11T17:40:02.438,2.673639680000008,-233.0629119873047,-20975.662078857422,-83902.64831542969,-159.6480947113037,-1.2342981719970705,-2.699100971221924,-1.848884165287018,-4.135836089135236,-2.689857894355168,0.0,-0.3531494140625,-2893.0,-127.1337890625,0.0762939527630806,27.465822994709015,1315.0955739259534,1,1789162802.0702615,38.99138215666667,-76.93669234833334,-10.193000000000001,0,1,18.113536000000003,7.300803999999999,72.67562500000001,1,1,1789162802.4295492,-0.9735098303842357,0.21960708111699567,-0.030519712156545437,-0.055855950787819804,174.50920920656958,-4.815947726305186,-25.193251467482998,-0.04973560049653121,0.2557441424922803,-0.7028285563477737,4.578430761013031,4.3566043343544,-8.099214302082062
2026-09-11T17:40:02.471,2.7070562879999898,-233.1544189453125,-20983.897705078125,-83935.5908203125,-159.71077697753907,-1.296980438232422,-2.725457191467285,-1.8669381761550905,-4.1762217612631725,-0.5402706004176812,0.0,-0.342376708984375,-2804.75,-123.255615234375,0.4272461533546448,153.80861520767212,3780.8383248542727,1,1789162802.0702615,38.99138215666667,-76.93669234833334,-10.193000000000001,0,1,18.113536000000003,7.300803999999999,72.67562500000001,1,1,1789162802.4615493,-0.975451721845423,0.20914200436347052,-0.03684443551767406,-0.05827562038291709,174.33354583402394,-5.52359714780143,-23.92904270677058,0.05615963387434674,0.30189309137596315,-0.6724161941317726,5.316479252185822,1.0471541042709351,-8.521782857551575
2026-09-11T17:40:02.504,2.740482560000032,-233.24462890625,-20992.0166015625,-83968.06640625,-159.77257080078127,-1.3587742614746094,-2.726256847381592,-1.8674859404563906,-4.177447075108242,-0.0163872387952628,0.0,-0.3151378631591797,-2581.609375,-113.44963073730469,0.6866456270217896,247.19242572784424,2793.7249634076315,1,1789162802.0702615,38.99138215666667,-76.93669234833334,-10.193000000000001,0,1,18.113536000000003,7.300803999999999,72.67562500000001,1,1,1789162802.5015492,-0.9778754028058375,0.196926690735909,-0.040024322784951216,-0.05811736959576114,174.3527126233666,-5.806394141482466,-22.485493293992477,0.03455280680050734,0.18192945603645974,-0.595347690351459,5.208213834400176,0.6249778148078918,-8.187376087036132
2026-09-11T17:40:02.538,2.7739020800000276,-233.3350372314453,-21000.153350830078,-84000.61340332031,-159.83450050354006,-1.4207039642333985,-2.726898193359375,-1.867925262451172,-4.178429810422267,-0.013145670398061424,0.0,-0.29866981506347656,-2446.703125,-107.52113342285156,1.0681153535842896,384.52152729034424,4109.248174794821,1,1789162802.0702615,38.99138215666667,-76.93669234833334,-10.193000000000001,0,1,18.113536000000003,7.300803999999999,72.67562500000001,1,1,1789162802.5295494,-0.9791461890727086,0.18940893081027552,-0.04157393293387791,-0.06056901397669642,174.06341674626225,-5.990210593900487,-21.58558749828656,0.019769518970264972,0.15961385075338544,-0.56791285983936,-0.7858068774604798,1.380874409275055,-5.599793375358582
2026-09-11T17:40:02.572,2.807318176000024,-233.42425537109375,-21008.182983398438,-84032.73193359375,-159.89561492919924,-1.4818183898925783,-2.7278096675872803,-1.868549622297287,-4.1798264636213425,-0.01868440424983083,0.0,-0.27101707458496094,-2220.171875,-97.56614685058594,0.5493165254592896,197.75394916534424,-5589.150154614733,1,1789162802.0702615,38.99138215666667,-76.93669234833334,-10.193000000000001,0,1,18.113536000000003,7.300803999999999,72.67562500000001,1,1,1789162802.5695493,-0.9812599715139957,0.17905133452644173,-0.03891399694297161,-0.059625403567397865,174.05483680576998,-5.6079799915098585,-20.390637946364105,0.028054247863631657,0.02035141174287988,-0.4767256896079636,-2.6181794601821897,2.2117918774795533,-11.795634947547912
2026-09-11T17:40:02.606,2.8407376000000113,-233.5189971923828,-21016.709747314453,-84066.83898925781,-159.96051307678223,-1.546716537475586,-2.8065173625946045,-1.9224643933773042,-4.300430371728038,-1.613276490942437,0.0,-0.23923492431640625,-1959.8125,-86.12457275390625,0.7324219942092896,263.67191791534424,1972.4447898929914,1,1789162802.0702615,38.99138215666667,-76.93669234833334,-10.193000000000001,0,1,18.113536000000003,7.300803999999999,72.67562500000001,1,1,1789162802.6015491,-0.9824715964676154,0.17152668358134435,-0.03986486852775129,-0.06114696403931599,173.8573915791078,-5.699373767264023,-19.500502175117067,0.10771159852342846,0.042803850839310535,-0.5058061910717678,-4.0702501496315,2.4325395726203918,-7.584463235092163
2026-09-11T17:40:02.639,2.8741511040000205,-233.6103973388672,-21024.935760498047,-84099.74304199219,-160.02312217712404,-1.609325637817383,-2.8339500427246094,-1.9412557792663576,-4.34246550480126,-0.5623889637270071,0.0,-0.2266826629638672,-1856.984375,-81.60575866699219,0.6713868379592896,241.69926166534424,-657.5980851931588,1,1789162802.0702615,38.99138215666667,-76.93669234833334,-10.193000000000001,0,1,18.113536000000003,7.300803999999999,72.67562500000001,1,1,1789162802.6295493,-0.9833966189378847,0.1654958343856715,-0.0402959048364766,-0.06259759353151408,173.66556534709935,-5.737615417201957,-18.787837075075057,-0.03193725638346864,-0.038064583788445135,-0.42821723010850954,-5.449849694385528,-0.723632715435028,-9.278071718025208
2026-09-11T17:40:02.672,2.907567744000005,-233.71055603027344,-21033.95004272461,-84135.80017089844,-160.09173088073732,-1.6779343414306642,-2.9392518997192383,-2.0133875513076784,-4.503819683490686,-2.1585584918577805,0.0,-0.19966506958007812,-1635.65625,-71.87942504882812,0.44250500202178955,159.30180072784424,-2465.7613972421623,1,1789162802.0702615,38.99138215666667,-76.93669234833334,-10.193000000000001,0,1,18.113536000000003,7.300803999999999,72.67562500000001,1,1,1789162802.6695492,-0.9845306394195562,0.15752100911827846,-0.042686608687553876,-0.06375268754519056,173.5291550681472,-5.977466371377346,-17.841906754583395,0.028296325030883265,0.005546830895763178,-0.3846766757919322,-0.9979247204589844,0.006276256103515626,-11.529188262653351
2026-09-11T17:40:02.705,2.9409915200000114,-233.8138427734375,-21043.245849609375,-84172.9833984375,-160.1624822998047,-1.748685760498047,-3.0969536304473877,-2.1214132368564607,-4.745466259968813,-3.232001242132587,0.0,-0.18932151794433594,-1550.921875,-68.15574645996094,0.7324219942092896,263.67191791534424,3122.6309435379126,1,1789162802.0702615,38.99138215666667,-76.93669234833334,-10.193000000000001,0,1,18.113536000000003,7.300803999999999,72.67562500000001,1,1,1789162802.7015493,-0.9854548109928446,0.1516283285844681,-0.04267726105940577,-0.06376767872680429,173.49174739191065,-5.937929233912872,-17.156674011336655,0.046133066387489714,-0.0032416000197290685,-0.3933043618833158,-1.2002359132957459,2.619748524208069,-9.57433061941147
2026-09-11T17:40:02.738,2.9744059839999863,-233.91912841796875,-21052.721557617188,-84210.88623046875,-160.23460296630861,-1.8208064270019533,-3.149867534637451,-2.1576592612266543,-4.826546307325188,-1.0847405593643766,0.0,-0.1683025360107422,-1378.734375,-60.58891296386719,-0.0457763709127903,-16.479493528604507,-8384.136026966013,1,1789162802.0702615,38.99138215666667,-76.93669234833334,-10.193000000000001,0,1,18.113536000000003,7.300803999999999,72.67562500000001,1,1,1789162802.7295492,-0.9861328371945385,0.14713067626711773,-0.04395659397423079,-0.06294767155356049,173.57886079000536,-6.039677550121055,-16.632724604905142,0.007343472827766141,0.011817973431104006,-0.38356193399868344,1.5253263661575318,1.2813369101333618,-9.503036272735596
2026-09-11T17:40:02.772,3.0078209600000037,-234.02935791015625,-21062.642211914062,-84250.56884765625,-160.31011016845704,-1.8963136291503908,-3.255535125732422,-2.230041561126709,-4.988460900873986,-2.166163456170588,0.0,-0.16089630126953125,-1318.0625,-57.92266845703125,0.4119873642921448,148.31545114517212,4931.769056895067,1,1789162802.0702615,38.99138215666667,-76.93669234833334,-10.193000000000001,0,1,18.113536000000003,7.300803999999999,72.67562500000001,1,1,1789162802.7695494,-0.9870427777202021,0.1405373480610777,-0.04487223155655041,-0.06310540060472213,173.53471331152636,-6.10316254413433,-15.861834971855735,-0.021661804945277224,-0.1100985108084559,-0.32639925940321557,0.5421116209411622,-0.33156284196853636,-7.296147720336914
2026-09-11T17:40:02.806,3.0412680960000102,-234.141845703125,-21072.76611328125,-84291.064453125,-160.38716430664064,-1.9733677673339844,-3.3606624603271484,-2.3020537853240968,-5.14954765865268,-2.153016156521549,0.0,-0.14447593688964844,-1183.546875,-52.01133728027344,0.5340576767921448,192.26076364517212,1313.8737050607663,1,1789162802.0702615,38.99138215666667,-76.93669234833334,-10.193000000000001,0,1,18.113536000000003,7.300803999999999,72.67562500000001,1,1,1789162802.8015492,-0.9878001454039242,0.1358041532349718,-0.042213575826791125,-0.06345170383870108,173.4269018914302,-5.775516768132138,-15.324127863118752,0.0070785318473134025,-0.1484838861134176,-0.3279032096196591,-1.2191627481079101,1.9719212145233156,-11.491726859035492
2026-09-11T17:40:02.839,3.0746859520000385,-234.25660705566406,-21083.094635009766,-84332.37854003906,-160.4657758331299,-2.0519792938232424,-3.439269781112671,-2.3558998000621796,-5.2699977632027935,-1.6112947143598122,0.0,-0.13297080993652344,-1089.296875,-47.86949157714844,0.061035215854644775,21.97267770767212,-5095.721459131196,1,1789162802.0702615,38.99138215666667,-76.93669234833334,-10.193000000000001,0,1,18.113536000000003,7.300803999999999,72.67562500000001,1,1,1789162802.8295493,-0.9883668410177536,0.13226953304891687,-0.041567474798901126,-0.06251322454049789,173.50432516041684,-5.66460451294544,-14.92308628572731,0.07153947524292077,-0.13764137720125322,-0.3095725400847382,2.479219227390289,1.7127314507484437,-10.219117867546082
2026-09-11T17:40:02.872,3.108104351999998,-234.3734893798828,-21093.614044189453,-84374.45617675781,-160.54584022521973,-2.1320436859130862,-3.491144895553589,-2.3914342534542086,-5.349486071613739,-1.0633200090989394,0.0,-0.1298503875732422,-1063.734375,-46.74613952636719,0.04577639698982239,16.47950291633606,-164.37575680890495,1,1789162802.0702615,38.99138215666667,-76.93669234833334,-10.193000000000001,0,1,18.113536000000003,7.300803999999999,72.67562500000001,1,1,1789162802.8695493,-0.9889244515123272,0.12701213598513178,-0.04113492871349856,-0.06484029729475806,173.20237509338554,-5.614207614397946,-14.303696155926918,-0.04172733175668043,-0.1432747764279153,-0.30363178837679994,4.088098252925873,1.0161650897598267,-11.735127916049958
2026-09-11T17:40:02.906,3.141532799999993,-234.4911651611328,-21104.204864501953,-84416.81945800781,-160.626448135376,-2.2126515960693363,-3.4906625747680664,-2.3911038637161255,-5.348747010818099,0.009883490196228356,0.0,-0.13210296630859375,-1082.1875,-47.55706787109375,-0.1525879055261612,-54.93164598941803,-2136.2388378235364,1,1789162802.0702615,38.99138215666667,-76.93669234833334,-10.193000000000001,0,1,18.113536000000003,7.300803999999999,72.67562500000001,1,1,1789162802.9015493,-0.9896485025482326,0.12275792296497226,-0.03821002664287439,-0.06376776315127902,173.26231047175392,-5.237535790739741,-13.83340056414313,0.012692208853427964,-0.18451393959281293,-0.2817228448094403,5.561743572731018,-1.095304756565094,-12.350593280200957
2026-09-11T17:40:02.940,3.1749504640000055,-234.6049346923828,-21114.444122314453,-84457.77648925781,-160.70438026428224,-2.290583724975586,-3.4139456748962402,-2.3385527873039247,-5.231193600805123,1.5725538569117639,0.0,-0.1354084014892578,-1109.265625,-48.74702453613281,-0.1525879055261612,-54.93164598941803,0.0,1,1789162802.0702615,38.99138215666667,-76.93669234833334,-10.193000000000001,0,1,18.113536000000003,7.300803999999999,72.67562500000001,1,1,1789162802.9295492,-0.990123297092318,0.11846928032517523,-0.03868514163714736,-0.0642210712366734,173.19398518865336,-5.268466793452809,-13.332622504505839,-0.09219544694027365,-0.014742098059895303,-0.32967611507383493,8.706638213100433,3.741727369213104,-7.476590083312988
2026-09-11T17:40:02.973,3.208366176000027,-234.71836853027344,-21124.65316772461,-84498.61267089844,-160.78208244323733,-2.3682859039306643,-3.3633100986480713,-2.303867417573929,-5.15360463845277,1.03799583052348,0.0,-0.13748550415039062,-1126.28125,-49.494781494140625,-0.01525880303233862,-5.493169091641903,1479.497934915902,1,1789162802.0702615,38.99138215666667,-76.93669234833334,-10.193000000000001,0,1,18.113536000000003,7.300803999999999,72.67562500000001,1,1,1789162802.9695492,-0.9907137049319467,0.11258025374218739,-0.037703395403352484,-0.06626081272078574,172.91752850738467,-5.1420834239459685,-12.64761942825294,-0.006832091356931804,-0.14774473917519798,-0.36279461029505333,-2.9353265264129638,1.036464855594635,-0.34784188123703
2026-09-11T17:40:03.006,3.241792320000002,-234.83221435546875,-21134.899291992188,-84539.59716796875,-160.86006683349612,-2.4462702941894534,-3.3905670642852783,-2.322538439035416,-5.195370523969697,-0.5585753912117608,0.0,-0.138519287109375,-1134.75,-49.866943359375,0.0,0.0,164.3375045487152,1,1789162802.0702615,38.99138215666667,-76.93669234833334,-10.193000000000001,0,1,18.113536000000003,7.300803999999999,72.67562500000001,1,1,1789162803.0015492,-0.9914104126374724,0.10757632749278702,-0.03604968760829143,-0.0650626428951815,173.00996098996328,-4.9035394173727,-12.086017242829962,-0.053243014161339024,-0.1570042344558035,-0.3463422641011287,6.268312716884614,1.2956546193695067,-5.910468052482605
2026-09-11T17:40:03.039,3.275207488000035,-234.94293212890625,-21144.863891601562,-84579.45556640625,-160.9359085083008,-2.5221119689941407,-3.3389148712158203,-2.2871566867828372,-5.116223798279426,1.0588530410065098,0.0,-0.1387195587158203,-1136.390625,-49.93904113769531,-0.01525880303233862,-5.493169091641903,-164.39148507756857,1,1789162802.0702615,38.99138215666667,-76.93669234833334,-10.193000000000001,0,1,18.113536000000003,7.300803999999999,72.67562500000001,1,1,1789162803.0295494,-0.9919935651487027,0.10340648368407715,-0.03423326498304395,-0.06390578537395518,173.10187556213663,-4.653802924735548,-11.621522110404849,-0.06500408985882801,-0.10903281276718815,-0.3405413132662752,4.306002019519806,2.149519648952484,-14.738708727588655
2026-09-11T17:40:03.073,3.3086234880000234,-235.05101013183594,-21154.590911865234,-84618.36364746094,-161.00994194030764,-2.596145401000977,-3.2876439094543457,-2.252036077976227,-5.037661233840875,1.0510117550461546,0.0,-0.13857650756835938,-1135.21875,-49.887542724609375,-0.03051757998764515,-10.986328795552254,-164.38711108188494,1,1789162802.0702615,38.99138215666667,-76.93669234833334,-10.193000000000001,0,1,18.113536000000003,7.300803999999999,72.67562500000001,1,1,1789162803.0695493,-0.9927797229316444,0.09784654971163186,-0.032696084603091945,-0.06120000405983596,173.36985862891018,-4.410194959739649,-11.001997078074412,-0.0859668904386815,-0.061530884647359285,-0.31778693220924953,2.7448813802719116,1.435889716682434,-11.264800974292754
2026-09-11T17:40:03.107,3.3420504640000104,-235.16006469726562,-21164.405822753906,-84657.62329101562,-161.08464431762695,-2.670847778320313,-3.2099857330322266,-2.1988402271270755,-4.918665504489694,1.5914048237319571,0.0,-0.1381397247314453,-1131.640625,-49.73030090332031,-0.0915527418255806,-32.958987057209015,-657.3331150764371,1,1789162803.0724263,38.991375195,-76.93668467333333,-10.066000000000003,0,1,17.089956000000004,6.9484960000000004,72.64152899999999,1,1,1789162803.1015491,-0.9933263044015354,0.09249495694276119,-0.031065697163788156,-0.061501694154494226,173.2955453409463,-4.191712544509276,-10.394036150236145,-0.019482412308311905,-0.04707292618968867,-0.36434847692810385,-1.775788211288452,4.666004146957397,-8.272595876941681
2026-09-11T17:40:03.140,3.375465408000025,-235.2672882080078,-21174.055938720703,-84696.22375488281,-161.15809242248537,-2.744295883178711,-3.1855528354644775,-2.1821036922931674,-4.881226942316493,0.5008697555770494,0.0,-0.13811302185058594,-1131.421875,-49.72068786621094,-0.01525880303233862,-5.493169091641903,821.9621126869183,1,1789162803.0724263,38.991375195,-76.93668467333333,-10.066000000000003,0,1,17.089956000000004,6.9484960000000004,72.64152899999999,1,1,1789162803.1295493,-0.9938153031647937,0.08868118298804664,-0.031245089981090723,-0.059080752630473736,173.55871880368088,-4.162325275466965,-9.964027712086118,-0.02315493412035837,-0.06241489391349442,-0.3028957830312339,-0.3785366962432862,-1.8569872746276856,-6.549175177516938
2026-09-11T17:40:03.173,3.4088779840000143,-235.37185668945312,-21183.46710205078,-84733.86840820312,-161.2297218322754,-2.81592529296875,-3.161003351211548,-2.1652872955799105,-4.843609734207024,0.5032954272445878,0.0,-0.1360931396484375,-1114.875,-48.9935302734375,0.1068115383386612,38.45215380191803,1315.2330096779747,1,1789162803.0724263,38.991375195,-76.93668467333333,-10.066000000000003,0,1,17.089956000000004,6.9484960000000004,72.64152899999999,1,1,1789162803.1695492,-0.9943790995025699,0.08274157794971866,-0.032334499402699474,-0.05760657861065724,173.71271735989734,-4.234483561517317,-9.280494879834093,0.015461173711716967,0.023149872665527586,-0.27653066481768235,2.0569448714256287,0.04481639123916626,-9.23521665681839
2026-09-11T17:40:03.207,3.4423003840000206,-235.47703552246094,-21192.933197021484,-84771.73278808594,-161.30176933288575,-2.887972793579102,-3.1357970237731934,-2.1480209612846375,-4.8049860443911845,0.5166096478789606,0.0,-0.13190650939941406,-1080.578125,-47.48634338378906,0.2136230617761612,76.90430223941803,1150.490342928478,1,1789162803.0724263,38.991375195,-76.93668467333333,-10.066000000000003,0,1,17.089956000000004,6.9484960000000004,72.64152899999999,1,1,1789162803.2015493,-0.9945583083082029,0.0789753195773183,-0.03541185574487837,-0.05798853977718369,173.678805225328,-4.565438315186123,-8.828136363570257,0.02743692490720126,0.05682547698398258,-0.25836824502265376,4.631288605384827,-3.2105991964530944,-14.603376955356598
2026-09-11T17:40:03.240,3.4757159680000314,-235.57443237304688,-21201.69891357422,-84806.79565429688,-161.36848617553713,-2.954689636230469,-2.9042091369628906,-1.9893832588195803,-4.45012361045897,4.747416728224952,0.0,-0.12376594543457031,-1013.890625,-44.55574035644531,0.5950928330421448,214.23341989517212,4109.732682083601,1,1789162803.0724263,38.991375195,-76.93668467333333,-10.066000000000003,0,1,17.089956000000004,6.9484960000000004,72.64152899999999,1,1,1789162803.2295492,-0.9950178735189605,0.07540028956036714,-0.03582458738852174,-0.05450529011445799,174.0654431391772,-4.5604952818038615,-8.430416621716205,-0.001503252084742716,-0.006834883883734994,-0.2672519709153049,0.23938033044815066,-0.5518202046012879,-4.851840167522431
2026-09-11T17:40:03.273,3.5091258560000256,-235.66787719726562,-21210.108947753906,-84840.43579101562,-161.43249588012696,-3.0186993408203127,-2.800624370574951,-1.9184276938438416,-4.291400532041516,2.1237893696546064,0.0,-0.10744857788085938,-880.21875,-38.681488037109375,0.5035400986671448,181.27443552017212,-986.5038869632157,1,1789162803.0724263,38.991375195,-76.93668467333333,-10.066000000000003,0,1,17.089956000000004,6.9484960000000004,72.64152899999999,1,1,1789162803.2695494,-0.9954963132056741,0.0714306251953877,-0.033972477943658846,-0.05225540087372905,174.29148118770493,-4.307210847027633,-7.993462298754487,0.06750497214401067,-0.033530218391763865,-0.2600144395731348,-1.2169072185707093,0.5890854752159118,-8.055672775363922
2026-09-11T17:40:03.306,3.542550463999987,-235.76634216308594,-21218.970794677734,-84875.88317871094,-161.49994438171387,-3.0861478424072266,-2.9320809841156006,-2.0084754741191864,-4.492831679758376,-2.694056435170405,0.0,-0.10639190673828125,-871.5625,-38.30108642578125,0.030517585575580597,10.986330807209015,-5094.692650192298,1,1789162803.0724263,38.991375195,-76.93668467333333,-10.066000000000003,0,1,17.089956000000004,6.9484960000000004,72.64152899999999,1,1,1789162803.3015492,-0.9956276578075547,0.06870061851566513,-0.037239591695308064,-0.051176213562302064,174.4272996480612,-4.656694884252264,-7.667806907464949,0.0378593330684106,0.02353052897538755,-0.19673072075799763,1.6299633233833313,1.9352443429183959,-11.927044059715271
2026-09-11T17:40:03.340,3.575965856000039,-235.86692810058594,-21228.023529052734,-84912.09411621094,-161.56884574890137,-3.155049209594727,-3.037203550338745,-2.0804844319820406,-4.6539111309548105,-2.154963732364497,0.0,-0.105072021484375,-860.75,-37.825927734375,0.0,0.0,-328.7805454202665,1,1789162803.0724263,38.991375195,-76.93668467333333,-10.066000000000003,0,1,17.089956000000004,6.9484960000000004,72.64152899999999,1,1,1789162803.3295493,-0.9958287824635413,0.066422993302588,-0.037922786125357134,-0.04974820871544418,174.58537911199787,-4.7114717618021835,-7.409176304361983,0.02061565459163182,0.048790155640725884,-0.20042034679671367,2.0400774331474305,3.4900887260627744,-8.83275173418045
2026-09-11T17:40:03.374,3.6093827519999877,-235.96954345703125,-21237.258911132812,-84949.03564453125,-161.6391372680664,-3.225340728759766,-3.0634169578552246,-2.098440616130829,-4.694077970944047,-0.5373384813722986,0.0,-0.10296821594238281,-843.515625,-37.06855773925781,0.0762939602136612,27.46582567691803,821.9143297139303,1,1789162803.0724263,38.991375195,-76.93668467333333,-10.066000000000003,0,1,17.089956000000004,6.9484960000000004,72.64152899999999,1,1,1789162803.3695493,-0.9960601135919093,0.06292019669402374,-0.03855230907553053,-0.04918351781037373,174.63786181589575,-4.760458124500222,-7.005988461808446,0.035929697047405666,0.06988752110590815,-0.19287668470374375,0.40903537824630737,3.549124760036469,-9.970813485450744
2026-09-11T17:40:03.407,3.6427984320000064,-236.07754516601562,-21246.979064941406,-84987.91625976562,-161.71311843872073,-3.2993218994140627,-3.2196621894836426,-2.2054685997962955,-4.933492751870734,-3.2029269991036085,0.0,-0.10318756103515625,-845.3125,-37.14752197265625,-0.061035171151161194,-21.97266161441803,-1479.4996627723385,1,1789162803.0724263,38.991375195,-76.93668467333333,-10.066000000000003,0,1,17.089956000000004,6.9484960000000004,72.64152899999999,1,1,1789162803.4015493,-0.996094637507209,0.06029029692625631,-0.041960928294082565,-0.0489880977649129,174.6691474748263,-5.134907849880633,-6.688184352729418,-0.03194563396387821,0.05757945922084413,-0.2148969802773806,1.925045426750183,1.0379358531188965,-12.413061641731261
2026-09-11T17:40:03.440,3.6762278080000215,-236.18988037109375,-21257.089233398438,-85028.35693359375,-161.79006805419922,-3.3762715148925784,-3.349921703338623,-2.294696366786957,-5.133089582111118,-2.6691424629230647,0.0,-0.10368919372558594,-849.421875,-37.32810974121094,-0.015258791856467724,-5.493165068328381,492.9645275485318,1,1789162803.0724263,38.991375195,-76.93668467333333,-10.066000000000003,0,1,17.089956000000004,6.9484960000000004,72.64152899999999,1,1,1789162803.4295492,-0.9961849304478554,0.05769655229984355,-0.04245528791625964,-0.04984215815211477,174.5606196104934,-5.183056730510295,-6.383072273892643,0.04057733431254137,0.0781485135214477,-0.23381093884831797,1.0676500031089782,6.059921400947571,-7.974473712024688
2026-09-11T17:40:03.474,3.709643136000011,-236.31007385253906,-21267.906646728516,-85071.62658691406,-161.87240058898928,-3.4586040496826174,-3.584296703338623,-2.455243241786957,-5.49222271337454,-4.804587732912576,0.0,-0.10374832153320312,-849.90625,-37.349395751953125,-0.1831054836511612,-65.91797411441803,-1808.2961521762852,1,1789162803.0724263,38.991375195,-76.93668467333333,-10.066000000000003,0,1,17.089956000000004,6.9484960000000004,72.64152899999999,1,1,1789162803.4695492,-0.9964856310987358,0.05326433290085224,-0.04320682212262425,-0.04808813134698957,174.74332783712615,-5.23452848788616,-5.878885906631795,0.09750264412973803,0.11036380085475904,-0.25680076482143765,-2.8545197290802005,2.55669176366806,-6.898095790271759
2026-09-11T17:40:03.507,3.7430598720000035,-236.4356689453125,-21279.210205078125,-85116.8408203125,-161.95843322753908,-3.5446366882324223,-3.7407636642456055,-2.5624231100082397,-5.731977250376335,-3.207370947937799,0.0,-0.10520172119140625,-861.8125,-37.87261962890625,-0.1525879055261612,-54.93164598941803,328.7672418096878,1,1789162803.0724263,38.991375195,-76.93668467333333,-10.066000000000003,0,1,17.089956000000004,6.9484960000000004,72.64152899999999,1,1,1789162803.5015492,-0.996576230727283,0.04937755172768809,-0.04354458418458766,-0.050015426849845494,174.50309456249977,-5.263156304465217,-5.420207990923109,-0.04483715941788392,0.009099099522347238,-0.2855903198989345,-1.7710810192108155,2.6886892748451237,-12.210750448894501
2026-09-11T17:40:03.541,3.7764835199999993,-236.56675720214844,-21291.00814819336,-85164.03259277344,-162.0482286834717,-3.6344321441650393,-3.8970136642456055,-2.66945436000824,-5.971399337885283,-3.2022611655081334,0.0,-0.10586738586425781,-867.265625,-38.11225891113281,0.0,0.0,1643.496424729725,1,1789162803.0724263,38.991375195,-76.93668467333333,-10.066000000000003,0,1,17.089956000000004,6.9484960000000004,72.64152899999999,1,1,1789162803.5295494,-0.9965860657260278,0.04549266225991271,-0.045825054970521494,-0.05144604570004851,174.32831201873935,-5.509918100175909,-4.954159005871816,0.018839258478951994,0.04348889257071831,-0.28604340737275225,2.412632072792053,3.4082031972122193,-9.976501342544555
2026-09-11T17:40:03.574,3.809899392000034,-236.7004852294922,-21303.043670654297,-85212.17468261719,-162.13983238220217,-3.726035842895508,-4.0018815994262695,-2.7412888956069947,-6.1320886175890115,-2.149713034532819,0.0,-0.1060333251953125,-868.625,-38.1719970703125,0.015258791856467724,5.493165068328381,164.38790130398792,1,1789162803.0724263,38.991375195,-76.93668467333333,-10.066000000000003,0,1,17.089956000000004,6.9484960000000004,72.64152899999999,1,1,1789162803.5695493,-0.9969308466516494,0.03971322251683514,-0.04591498888545617,-0.04943238561310188,174.52853260251698,-5.47862367046454,-4.3004088175448665,-0.007815933456281007,-0.06187017665394699,-0.29418798632718385,2.8183331899833677,4.902932814865112,-9.953161515159607
2026-09-11T17:40:03.607,3.843314784000029,-236.83824157714844,-21315.44174194336,-85261.76696777344,-162.2341954803467,-3.820398941040039,-4.106522560119629,-2.812967953681946,-6.292430103977145,-2.1450910429230365,0.0,-0.10725975036621094,-878.671875,-38.61351013183594,-0.1525879055261612,-54.93164598941803,-1808.2927489749534,1,1789162803.0724263,38.991375195,-76.93668467333333,-10.066000000000003,0,1,17.089956000000004,6.9484960000000004,72.64152899999999,1,1,1789162803.6015491,-0.9970511264353835,0.035402629979871904,-0.047894713081834996,-0.0483921638620309,174.63116633723436,-5.677752786472008,-3.800706426580488,-0.0350270127582742,0.02246046761098983,-0.3141219153129866,5.022083614330291,3.37113405960083,-9.106945672702789
2026-09-11T17:40:03.641,3.8767360319999966,-236.97647094726562,-21327.882385253906,-85311.52954101562,-162.32888259887696,-3.9150860595703127,-4.1591291427612305,-2.849003462791443,-6.373039242106836,-1.0782215286973116,0.0,-0.10935592651367188,-895.84375,-39.368133544921875,-0.1373291164636612,-49.43848192691803,164.36142846925674,1,1789162803.0724263,38.991375195,-76.93668467333333,-10.066000000000003,0,1,17.089956000000004,6.9484960000000004,72.64152899999999,1,1,1789162803.6295493,-0.9972547463446784,0.031321473674395195,-0.04804844615366815,-0.04683249942180692,174.7879438686765,-5.668162215129025,-3.339676609309195,-0.021967935696077027,0.00047996554429844063,-0.30978773918150915,8.359776996879578,3.9624750643539426,-8.669078742980957
2026-09-11T17:40:03.675,3.910154048000038,-237.1154327392578,-21340.388946533203,-85361.55578613281,-162.4240714263916,-4.010274887084961,-4.15980863571167,-2.849468915462494,-6.374080430078943,-0.013928195828574859,0.0,-0.11348915100097656,-929.703125,-40.85609436035156,-0.1983642876148224,-71.41114354133606,-657.5094588018262,1,1789162803.0724263,38.991375195,-76.93668467333333,-10.066000000000003,0,1,17.089956000000004,6.9484960000000004,72.64152899999999,1,1,1789162803.6695492,-0.9973787955018015,0.02521312545482019,-0.050734221212657235,-0.045009725461506146,174.96893371667483,-5.939147407960065,-2.6350322170418488,0.030614645876307335,0.06131359115548599,-0.33493845730152305,3.5760930479812623,1.6374163775062562,-10.435256437110901
2026-09-11T17:40:03.708,3.9435695679999867,-237.2514190673828,-21352.627716064453,-85410.51086425781,-162.51722206115724,-4.103425521850586,-4.109645843505859,-2.8151074028015137,-6.29721591535771,1.0283099787473977,0.0,-0.11735153198242188,-961.34375,-42.246551513671875,-0.015258817933499813,-5.493174456059933,1972.6752444785377,1,1789162803.0724263,38.991375195,-76.93668467333333,-10.066000000000003,0,1,17.089956000000004,6.9484960000000004,72.64152899999999,1,1,1789162803.7015493,-0.9976024705943065,0.019856453028716473,-0.04925429800674874,-0.04437393452373289,175.00806389546028,-5.741165012389232,-2.0300800757942006,-0.046010195208149314,-0.016431925841676215,-0.3599345392498102,2.3416319256210327,-0.7521700674057007,-4.194892673187256
2026-09-11T17:40:03.741,3.9769908800000167,-237.38507080078125,-21364.656372070312,-85458.62548828125,-162.60877349853516,-4.194976959228516,-3.982269525527954,-2.727854624986649,-6.102037010081079,2.6106927763573924,0.0,-0.12100410461425781,-991.265625,-43.56147766113281,0.0,0.0,164.36142471172315,1,1789162803.0724263,38.991375195,-76.93668467333333,-10.066000000000003,0,1,17.089956000000004,6.9484960000000004,72.64152899999999,1,1,1789162803.7295492,-0.9978692183556244,0.015290383810343667,-0.04785670807153815,-0.04162886875502458,175.29636190972863,-5.55392320036916,-1.5274745333045598,0.15323327607394455,-0.03628277715508412,-0.3277312946883376,2.9779854546165465,-3.868233156299591,-15.159315953025818
2026-09-11T17:40:03.774,4.010457952000024,-237.51663208007812,-21376.49688720703,-85505.98754882812,-162.69889297485352,-4.285096435546875,-3.958005666732788,-2.71123388171196,-6.064857466249009,0.4966297402618666,0.0,-0.11992645263671875,-982.4375,-43.17352294921875,0.030517593026161194,10.98633348941803,328.272921198948,1,1789162803.0724263,38.991375195,-76.93668467333333,-10.066000000000003,0,1,17.089956000000004,6.9484960000000004,72.64152899999999,1,1,1789162803.7695494,-0.998175921908291,0.008295498983780064,-0.04242742913363909,-0.0421417474276256,175.19690167048316,-4.898983691729473,-0.746723374766501,-0.08645313916828712,-0.27203731465842296,-0.32098751699155675,-6.9586028217697145,-1.7983435066604614,-8.96984870344162
2026-09-11T17:40:03.807,4.043861375999995,-237.64759826660156,-21388.28384399414,-85553.13537597656,-162.78860481262208,-4.37480827331543,-3.985294818878174,-2.7299269509315494,-6.106672671196193,-0.5596153621738209,0.0,-0.11896324157714844,-974.546875,-42.82676696777344,0.030517585575580597,10.986330807209015,-8.029742744022015e-05,1,1789162803.0724263,38.991375195,-76.93668467333333,-10.066000000000003,0,1,17.089956000000004,6.9484960000000004,72.64152899999999,1,1,1789162803.8015492,-0.9980868523490948,0.0029345316958474476,-0.0455085405913565,-0.04174920867330647,175.21491930265606,-5.226200910002492,-0.11840380590464224,-0.014143799192311648,-0.05896996303590801,-0.3436424142812187,6.556628231639862,3.3789793797302243,-6.392268774929047
2026-09-11T17:40:03.840,4.077267552000023,-237.78025817871094,-21400.223236083984,-85600.89294433594,-162.879476852417,-4.465680313110352,-3.9606246948242188,-2.7130279159545903,-6.068870606555537,0.505865591348883,0.0,-0.11934089660644531,-977.640625,-42.96272277832031,-0.0457763709127903,-16.479493528604507,-822.1780408446143,1,1789162803.0724263,38.991375195,-76.93668467333333,-10.066000000000003,0,1,17.089956000000004,6.9484960000000004,72.64152899999999,1,1,1789162803.8295493,-0.9980249729933734,-0.001868251713511791,-0.045114627373969804,-0.0436730273054061,174.96886201660163,-5.157156088293642,0.44123242352143005,-0.013179853846435179,0.021999351622612927,-0.3733992308301709,0.5863396131706238,2.500009325733185,-8.451861441898346
2026-09-11T17:40:03.874,4.110668799999985,-237.91143798828125,-21412.029418945312,-85648.11767578125,-162.96933502197268,-4.555538482666016,-3.935084819793701,-2.6955331015586856,-6.029735821310582,0.5237772671226175,0.0,-0.11898612976074219,-974.734375,-42.83500671386719,0.030517585575580597,10.986330807209015,822.2993444989004,1,1789162803.0724263,38.991375195,-76.93668467333333,-10.066000000000003,0,1,17.089956000000004,6.9484960000000004,72.64152899999999,1,1,1789162803.8695493,-0.9980064338870909,-0.008446806830842257,-0.0452459709125034,-0.04318114739697116,174.99138611184404,-5.139563458248474,1.1947789263250665,0.024176300798625452,0.008974133947904443,-0.35448352692998153,-1.051469030342102,3.4936191201210023,-11.613427387542725
2026-09-11T17:40:03.909,4.144089055999984,-238.0458984375,-21424.130859375,-85696.5234375,-163.0614404296875,-4.64764389038086,-3.96087384223938,-2.7131985819339755,-6.0692523754786425,-0.5285860280450908,0.0,-0.11712265014648438,-959.46875,-42.164154052734375,0.015258789993822575,5.493164397776127,-164.36637736805434,1,1789162803.0724263,38.991375195,-76.93668467333333,-10.066000000000003,0,1,17.089956000000004,6.9484960000000004,72.64152899999999,1,1,1789162803.9015493,-0.9979560659266877,-0.013546219483347877,-0.04519918998268172,-0.043095517664217126,174.97517506068016,-5.108729372329248,1.7796753004196464,-0.095353271155907,-0.04273019794487637,-0.3342535901030404,-2.934443927898407,-0.4283544790649414,-11.318639483680725
2026-09-11T17:40:03.942,4.177507584000011,-238.17623901367188,-21435.86151123047,-85743.44604492188,-163.15072372436524,-4.736927185058594,-3.9083101749420166,-2.6771924698352816,-5.9887089965892955,1.0774296252266047,0.0,-0.11190605163574219,-916.734375,-40.28617858886719,0.1831054985523224,65.91797947883606,1808.1231788848133,1,1789162803.0724263,38.991375195,-76.93668467333333,-10.066000000000003,0,1,17.089956000000004,6.9484960000000004,72.64152899999999,1,1,1789162803.9415493,-0.9979202075027528,-0.01929188462300804,-0.04447735466475515,-0.042483497588840256,175.0183531952418,-4.998549814648251,2.432595631811694,0.02535300178032003,0.019969359169618322,-0.28959550146641116,-4.486640515499115,-0.032558078536987306,-8.667705811958312
2026-09-11T17:40:03.974,4.210909568000034,-238.3055419921875,-21447.498779296875,-85789.9951171875,-163.23929626464846,-4.825499725341797,-3.9091577529907227,-2.6777730607986454,-5.990007741586083,-0.017381930467466732,0.0,-0.10383796691894531,-850.640625,-37.38166809082031,0.1373291313648224,49.43848729133606,-493.36866299585574,1,1789162803.0724263,38.991375195,-76.93668467333333,-10.066000000000003,0,1,17.089956000000004,6.9484960000000004,72.64152899999999,1,1,1789162803.9695492,-0.997882834835628,-0.022727120391980278,-0.04540363698710591,-0.040642781492438565,175.20982810222034,-5.09271390253176,2.8225610575228077,0.0562338103675565,0.03658070485839955,-0.2491192217175602,0.08149326284408569,-0.7038232821083069,-12.030406152420044
2026-09-11T17:40:04.007,4.244316416000004,-238.43197631835938,-21458.877868652344,-85835.51147460938,-163.3259037780762,-4.912107238769532,-3.832319498062134,-2.625138856172562,-5.872268379054579,1.5755513548039803,0.0,-0.09763145446777344,-799.796875,-35.14732360839844,0.3662109673023224,131.83594822883606,2466.48414533373,1,1789162803.0724263,38.991375195,-76.93668467333333,-10.066000000000003,0,1,17.089956000000004,6.9484960000000004,72.64152899999999,1,1,1789162804.0015492,-0.9979333858690321,-0.02512794875685847,-0.045014827141437244,-0.03835634102295138,175.4618551749925,-5.0437253952477725,3.084783292768543,0.004741012380117397,-0.045626746371486164,-0.21868137769447993,-0.4663062151908875,0.9719370975303651,-11.666383298416138
2026-09-11T17:40:04.042,4.277719967999985,-238.55691528320312,-21470.12237548828,-85880.48950195312,-163.41148696899415,-4.9976904296875,-3.7548890113830566,-2.572098972797394,-5.753621539006334,1.5878515965965834,0.0,-0.08924102783203125,-731.0625,-32.12677001953125,0.3051758110523224,109.86329197883606,-657.7940049612724,1,1789162803.0724263,38.991375195,-76.93668467333333,-10.066000000000003,0,1,17.089956000000004,6.9484960000000004,72.64152899999999,1,1,1789162804.0415492,-0.997964715941199,-0.028817235190490537,-0.04390796547606216,-0.03616743369567149,175.69916786750719,-4.907808580571921,3.492425550776361,0.06955067256027324,-0.02134886741039464,-0.1821116684103679,0.7114724692344666,-2.865699310264587,-9.971205751457214
2026-09-11T17:40:04.076,4.311136704000035,-238.68157958984375,-21481.342163085938,-85925.36865234375,-163.49688201904297,-5.0830854797363285,-3.7040364742279053,-2.5372649848461153,-5.675700127161132,1.0424114417167365,0.0,-0.08484268188476562,-695.03125,-30.543365478515625,0.1373291313648224,49.43848729133606,-1808.219829950207,1,1789162804.0698495,38.99136700333333,-76.93667309833333,-10.014000000000003,0,1,23.892543999999997,19.642624000000005,185.368225,1,1,1789162804.0695493,-0.9978782941423341,-0.030926548800301993,-0.043667751556846,-0.037088895007232704,175.5839047869696,-4.86775240086026,3.7381178711017395,-0.046345123891607026,-0.06520916604593734,-0.16046923661978785,-2.7242874149322507,-2.0198757338142395,-11.65559598323822
2026-09-11T17:40:04.108,4.344555552000031,-238.80128479003906,-21492.115631103516,-85968.46252441406,-163.57888008117678,-5.165083541870118,-3.626981258392334,-2.484482161998749,-5.55762831513678,1.5794327454785904,0.0,-0.08541297912597656,-699.703125,-30.748672485351562,-0.015258789993822575,-5.493164397776127,-1643.7326531757692,1,1789162804.0698495,38.99136700333333,-76.93667309833333,-10.014000000000003,0,1,23.892543999999997,19.642624000000005,185.368225,1,1,1789162804.1015491,-0.997882564237361,-0.0332736944979073,-0.04302309451123352,-0.035668790058066786,175.73847725635093,-4.789218371834002,3.9978511538366863,0.04043142478707464,-0.08846410753243499,-0.1897291579306972,-2.751353769378662,0.7409904862213135,-10.204604025306702
2026-09-11T17:40:04.141,4.377960352000002,-238.92002868652344,-21502.80258178711,-86011.21032714844,-163.66021965026857,-5.246423110961914,-3.5751545429229736,-2.4489808619022373,-5.478214168535779,1.0627604445032544,0.0,-0.0898284912109375,-735.875,-32.3382568359375,-0.1831054836511612,-65.91797411441803,-1808.8660826196863,1,1789162804.0698495,38.99136700333333,-76.93667309833333,-10.014000000000003,0,1,23.892543999999997,19.642624000000005,185.368225,1,1,1789162804.1295493,-0.9978118747233007,-0.035527328393862516,-0.043758693968812094,-0.03456079137564249,175.85156538987798,-4.868559972402007,4.254771093997577,0.10454626939201153,-0.0077490873459296235,-0.18974783295369352,-3.1068448377418516,-1.355671318359375,-6.082967028827667
2026-09-11T17:40:04.175,4.411362496000038,-239.04144287109375,-21513.729858398438,-86054.91943359375,-163.74338836669924,-5.329591827392578,-3.601611852645874,-2.467104119062424,-5.518754740207635,-0.5425776608880937,0.0,-0.09923553466796875,-812.9375,-35.72479248046875,-0.4425049126148224,-159.30176854133606,-2795.7425255941203,1,1789162804.0698495,38.99136700333333,-76.93667309833333,-10.014000000000003,0,1,23.892543999999997,19.642624000000005,185.368225,1,1,1789162804.1695492,-0.9975733759587133,-0.038818282968516526,-0.046495872858539546,-0.0343312436831868,175.84814579817848,-5.169402029577321,4.644325043350274,-0.011701385437070784,0.006465397681087794,-0.23809310416808607,1.4337322536468506,1.0369551881027221,-8.786464345417023
2026-09-11T17:40:04.209,4.4447698559999935,-239.16307067871094,-21524.676361083984,-86098.70544433594,-163.826703414917,-5.412906875610352,-3.603052854537964,-2.4680912053585056,-5.520962789366729,-0.029546970969361163,0.0,-0.10429573059082031,-854.390625,-37.54646301269531,-0.015258789993822575,-5.493164397776127,4604.033486745568,1,1789162804.0698495,38.99136700333333,-76.93667309833333,-10.014000000000003,0,1,23.892543999999997,19.642624000000005,185.368225,1,1,1789162804.2015493,-0.9973095891733996,-0.042700950459406195,-0.049427876763571715,-0.03327306976059141,175.93350554513168,-5.494385260997847,5.098583560010728,0.032825454439808555,0.061437160466527196,-0.26842814829822387,2.957881821784973,2.0205621993255614,-8.24856958404541
2026-09-11T17:40:04.243,4.478187680000019,-239.2863311767578,-21535.769805908203,-86143.07922363281,-163.9111368560791,-5.497340316772461,-3.6303205490112305,-2.486769576072693,-5.562745114693741,-0.5589343792753539,0.0,-0.11226844787597656,-919.703125,-40.41664123535156,-0.3051758110523224,-109.86329197883606,-3123.1874218075977,1,1789162804.0698495,38.99136700333333,-76.93667309833333,-10.014000000000003,0,1,23.892543999999997,19.642624000000005,185.368225,1,1,1789162804.2415493,-0.996823691855954,-0.048234496687620934,-0.053958201724836695,-0.03323361476848098,175.87952901791118,-5.990733349662814,5.756260191871078,0.02809910282540791,0.040350266976856904,-0.3075765815521575,2.384192787322998,-0.6083065095329285,-8.614455701580049
2026-09-11T17:40:04.275,4.511595935999992,-239.41058349609375,-21546.952514648438,-86187.81005859375,-163.99624969482423,-5.5824531555175785,-3.683647394180298,-2.523298465013504,-5.644457912073867,-1.0934090346063245,0.0,-0.11924362182617188,-976.84375,-42.927703857421875,-0.1678467094898224,-60.42481541633606,1479.828116814602,1,1789162804.0698495,38.99136700333333,-76.93667309833333,-10.014000000000003,0,1,23.892543999999997,19.642624000000005,185.368225,1,1,1789162804.2695494,-0.996581628802284,-0.05229588988552073,-0.05438100051828171,-0.033658636595957414,175.80343118368629,-6.019664972719321,6.228466069027295,-0.02435484798110447,0.04295534541838364,-0.33671415528250204,-1.316640850715637,1.5965226463317872,-9.22943073322296
2026-09-11T17:40:04.308,4.545012671999984,-239.53570556640625,-21558.213500976562,-86232.85400390625,-164.0819583129883,-5.668161773681641,-3.710655689239502,-2.541799147129059,-5.685842759325912,-0.5536352238458859,0.0,-0.12014961242675781,-984.265625,-43.25386047363281,0.0,0.0,1808.2201510150426,1,1789162804.0698495,38.99136700333333,-76.93667309833333,-10.014000000000003,0,1,23.892543999999997,19.642624000000005,185.368225,1,1,1789162804.3015492,-0.9962454696534276,-0.05736034177631074,-0.05639562409953001,-0.03200451481823488,175.9482707031551,-6.240162109662936,6.811456231357172,0.042933354269808516,0.0739276092584246,-0.31680151931357353,-0.7500126043701173,-3.001031082496643,-9.693873684883117
2026-09-11T17:40:04.341,4.578416032000007,-239.664306640625,-21569.78759765625,-86279.150390625,-164.17005004882813,-5.756253509521485,-3.815751314163208,-2.613789650201798,-5.846880928332577,-2.1551874743346318,0.0,-0.11865997314453125,-972.0625,-42.71759033203125,0.061035171151161194,21.97266161441803,657.7979465060763,1,1789162804.0698495,38.99136700333333,-76.93667309833333,-10.014000000000003,0,1,23.892543999999997,19.642624000000005,185.368225,1,1,1789162804.3295493,-0.9957040015377775,-0.06176692646947427,-0.06015087941937732,-0.033767733433672655,175.68842711704664,-6.639011146850584,7.349603472572221,0.01138530630953461,0.1476127922837472,-0.35308935792348844,2.8046038797569275,2.123532026023865,-7.444228137779236
2026-09-11T17:40:04.375,4.611825696000039,-239.79354858398438,-21581.419372558594,-86325.67749023438,-164.25858078002932,-5.844784240722657,-3.842494249343872,-2.6321085608005528,-5.887859164281831,-0.5483117279699988,0.0,-0.11552238464355469,-946.359375,-41.58805847167969,0.061035171151161194,21.97266161441803,0.0,1,1789162804.0698495,38.99136700333333,-76.93667309833333,-10.014000000000003,0,1,23.892543999999997,19.642624000000005,185.368225,1,1,1789162804.3695493,-0.9950247368152133,-0.0679939730810512,-0.06454309805671568,-0.03371618667212995,175.61472755780366,-7.114867135917866,8.091099880736142,0.05911971228572912,0.1723638300050544,-0.30176934753199675,0.11552233890533448,1.618293409690857,-8.640737524013518
2026-09-11T17:40:04.409,4.645235520000028,-239.92510986328125,-21593.259887695312,-86373.03955078125,-164.34870025634766,-5.934903717041016,-3.946673631668091,-2.7034714376926425,-6.047493373507157,-2.1359848196779905,0.0,-0.11194610595703125,-917.0625,-40.30059814453125,0.2593994438648224,93.38379979133606,2137.42934344526,1,1789162804.0698495,38.99136700333333,-76.93667309833333,-10.014000000000003,0,1,23.892543999999997,19.642624000000005,185.368225,1,1,1789162804.4015493,-0.9943872340293854,-0.07265345117688748,-0.06874882031013382,-0.03448339509736211,175.45397291002425,-7.568719760370809,8.658471829606093,-0.018993894650678692,0.23845700531712688,-0.3020808888034778,5.548112329006194,2.5635564187812805,-5.943320330524444
2026-09-11T17:40:04.443,4.678653183999984,-240.0598907470703,-21605.390167236328,-86421.56066894531,-164.44102516174317,-6.027228622436524,-3.999194860458374,-2.7394484794139866,-6.127971723814387,-1.0765875712135953,0.0,-0.10720252990722656,-878.203125,-38.59291076660156,0.09155276417732239,32.95899510383606,-1808.1696161521186,1,1789162804.0698495,38.99136700333333,-76.93667309833333,-10.014000000000003,0,1,23.892543999999997,19.642624000000005,185.368225,1,1,1789162804.4415493,-0.9938359542611288,-0.07863047119995598,-0.06991130151615779,-0.03492499015119442,175.34592184482108,-7.670063811816792,9.359579295211372,0.06582195114631255,0.25671559275394035,-0.30253624520532313,-2.1474602524185182,0.5514279385948181,-9.821262070484162
2026-09-11T17:40:04.476,4.712063680000028,-240.1961212158203,-21617.650909423828,-86470.60363769531,-164.53434303283692,-6.120546493530274,-4.052236080169678,-2.7757817149162296,-6.2092468569171135,-1.087479680103958,0.0,-0.10487937927246094,-859.171875,-37.75657653808594,0.2593994438648224,93.38379979133606,1808.5575469283503,1,1789162804.0698495,38.99136700333333,-76.93667309833333,-10.014000000000003,0,1,23.892543999999997,19.642624000000005,185.368225,1,1,1789162804.4695492,-0.993309714250535,-0.08265935427022812,-0.07197208121217569,-0.03637667182600816,175.1259481543973,-7.872399971563733,9.849516103801035,0.014124426037614511,0.2226279161990895,-0.2583094274268616,-0.24526432054519653,0.6236048837852477,-7.329588397388458
2026-09-11T17:40:04.508,4.745471103999989,-240.33316040039062,-21629.984436035156,-86519.93774414062,-164.6282148742676,-6.214418334960938,-4.130558013916016,-2.829432239532471,-6.3292596625189415,-1.6059461698185449,0.0,-0.09754180908203125,-799.0625,-35.11505126953125,0.1983642876148224,71.41114354133606,-657.7177650699955,1,1789162804.0698495,38.99136700333333,-76.93667309833333,-10.014000000000003,0,1,23.892543999999997,19.642624000000005,185.368225,1,1,1789162804.5015492,-0.9929744630588303,-0.08643866493281052,-0.07280320172762515,-0.03506803011102466,175.23726047323152,-7.9622703571932725,10.281797535395421,0.012666028914648048,0.17878454725729115,-0.24314653048431042,-1.4940431521415711,0.35598140087127683,-7.520229676532746
2026-09-11T17:40:04.542,4.778880319999985,-240.47198486328125,-21642.478637695312,-86569.91455078125,-164.72330963134766,-6.3095130920410165,-4.157328128814697,-2.847769768238068,-6.370279545987081,-0.5488763551230712,0.0,-0.08748817443847656,-716.703125,-31.495742797851562,0.13732916116714478,49.43849802017212,-657.6821653392561,1,1789162804.0698495,38.99136700333333,-76.93667309833333,-10.014000000000003,0,1,23.892543999999997,19.642624000000005,185.368225,1,1,1789162804.5415492,-0.9925647216275403,-0.09034959064384195,-0.07419050962801306,-0.03388204734175846,175.32622893372647,-8.114704382575798,10.733896326084167,-0.06440526739246875,0.17709506854136065,-0.19402458775278042,1.305265136528015,-0.9575213217926026,-9.159018985061646
2026-09-11T17:40:04.577,4.812286975999996,-240.61505126953125,-21655.354614257812,-86621.41845703125,-164.82131011962892,-6.4075135803222665,-4.26249885559082,-2.919811716079712,-6.5314327936643455,-2.1565147927892134,0.0,-0.07496452331542969,-614.109375,-26.987228393554688,0.4730225205421448,170.28810739517212,3617.5308709426085,1,1789162804.0698495,38.99136700333333,-76.93667309833333,-10.014000000000003,0,1,23.892543999999997,19.642624000000005,185.368225,1,1,1789162804.5695493,-0.9921675130761203,-0.09284002789248405,-0.07536384481882326,-0.036119885262746496,175.03454629594827,-8.212240000324725,11.048219945939353,-0.05023598639307798,0.11147505198950383,-0.16310520738907489,0.6169363616752623,2.2379756334114074,-12.280769931049345
2026-09-11T17:40:04.610,4.845706624000002,-240.75962829589844,-21668.36654663086,-86673.46618652344,-164.92034538269044,-6.50654884338379,-4.315577030181885,-2.9561702656745914,-6.61276455277959,-1.0879393342165897,0.0,-0.06362533569335938,-521.21875,-22.905120849609375,0.2746582627296448,98.87697458267212,-2136.800866738251,1,1789162804.0698495,38.99136700333333,-76.93667309833333,-10.014000000000003,0,1,23.892543999999997,19.642624000000005,185.368225,1,1,1789162804.6015491,-0.9919168978625621,-0.09513180480040721,-0.07598594663635323,-0.03573434431896194,175.05228963701228,-8.276164828737805,11.31480798218819,-0.02679062948518776,0.05255203831047447,-0.1537162086779714,-1.3773440152168273,1.3882293968963622,-12.204179993286132
2026-09-11T17:40:04.643,4.879124671999989,-240.90823364257812,-21681.74102783203,-86726.96411132812,-165.02214004516603,-6.608343505859375,-4.420440196990967,-3.0280015349388125,-6.773446525901059,-2.1494753153819306,0.0,-0.04584693908691406,-375.578125,-16.504898071289062,0.7171631455421448,258.1787323951721,4766.937847852774,1,1789162804.0698495,38.99136700333333,-76.93667309833333,-10.014000000000003,0,1,23.892543999999997,19.642624000000005,185.368225,1,1,1789162804.6415493,-0.9916319143826867,-0.09667261021149426,-0.07750088422870519,-0.03625142419813602,174.96117630108006,-8.43548350334462,11.507992773455051,-0.07370804683852372,0.022082080229157457,-0.08850459917108126,2.5144251014709473,0.43492493467330934,-10.979623587589264
2026-09-11T17:40:04.676,4.912534528000037,-241.06069946289062,-21695.462951660156,-86781.85180664062,-165.12657913208008,-6.712782592773438,-4.57826042175293,-3.136108388900757,-7.015274670948357,-3.235777309599534,0.0,-0.03224754333496094,-264.171875,-11.609115600585938,-0.3509521782398224,-126.34278416633606,-11509.224001472825,1,1789162804.0698495,38.99136700333333,-76.93667309833333,-10.014000000000003,0,1,23.892543999999997,19.642624000000005,185.368225,1,1,1789162804.6695492,-0.9914343634578993,-0.0972359152361951,-0.07874196262979026,-0.03745374566339328,174.80255656628515,-8.560362238930283,11.592108802987607,-0.011663337259377305,-0.03434005116468923,-0.04147443354806646,0.7076478756713868,3.9988577364540103,-15.356821887283326
2026-09-11T17:40:04.709,4.945936896000035,-241.2155303955078,-21709.397735595703,-86837.59094238281,-165.23263832092286,-6.818841781616212,-4.657075881958008,-3.1900969791412357,-7.136043707814138,-1.6163102640053248,0.0,-0.025667190551757812,-210.265625,-9.240188598632812,0.24414068460464478,87.89064645767212,6413.719848366006,1,1789162804.0698495,38.99136700333333,-76.93667309833333,-10.014000000000003,0,1,23.892543999999997,19.642624000000005,185.368225,1,1,1789162804.7015493,-0.9915824590870059,-0.09721848462034498,-0.07623382947818119,-0.038745274836828825,174.6855576118083,-8.259154472438448,11.583171309153796,0.10932585354859801,-0.11213548457845848,-0.005957157802907046,-0.39305053848266597,1.168266233768463,-8.780874554824829
2026-09-11T17:40:04.743,4.979338719999987,-241.37344360351562,-21723.609924316406,-86894.43969726562,-165.3408088684082,-6.927012329101563,-4.7367072105407715,-3.2446444392204286,-7.258062900904672,-1.63306830427197,0.0,-0.020397186279296875,-167.09375,-7.342987060546875,0.2746582627296448,98.87697458267212,328.9140175403503,1,1789162804.0698495,38.99136700333333,-76.93667309833333,-10.014000000000003,0,1,23.892543999999997,19.642624000000005,185.368225,1,1,1789162804.741527,-0.9920528734678442,-0.09602190887500514,-0.07195295860899906,-0.03786371624135208,174.84953494267762,-7.7870006173487365,11.407773589646869,0.09171094353992003,-0.11490165690994429,0.06351008801912086,-3.8499927869987487,-1.1620880441665649,-10.58421945306778
2026-09-11T17:40:04.777,5.012747423999997,-241.53463745117188,-21738.11737060547,-86952.46948242188,-165.45122665405276,-7.037430114746094,-4.763540744781494,-3.2630254101753238,-7.299179961916876,-0.5501850941266606,0.0,-0.015758514404296875,-129.09375,-5.673065185546875,0.13732916116714478,49.43849802017212,-1479.808272792781,1,1789162804.0698495,38.99136700333333,-76.93667309833333,-10.014000000000003,0,1,23.892543999999997,19.642624000000005,185.368225,1,1,1789162804.769527,-0.9922787969816077,-0.09519594909527412,-0.06943659977031126,-0.03871794091788412,174.78840650244643,-7.494403454839599,11.301557744718451,-0.04124230475755121,-0.12746104620729548,0.07281216933347504,3.497247580680847,3.073796426696777,-11.516145417938233
2026-09-11T17:40:04.810,5.046171232000006,-241.6971893310547,-21752.747039794922,-87010.98815917969,-165.56257469177248,-7.1487781524658205,-4.841831207275391,-3.3166543769836427,-7.4191445440757855,-1.604513968255932,0.0,-0.016038894653320312,-131.390625,-5.7740020751953125,-0.0762939602136612,-27.46582567691803,-2300.884558009345,1,1789162804.0698495,38.99136700333333,-76.93667309833333,-10.014000000000003,0,1,23.892543999999997,19.642624000000005,185.368225,1,1,1789162804.801527,-0.9926493785514108,-0.09378557765123506,-0.06648662257571109,-0.03782863603934337,174.93629730391638,-7.174995279292116,11.112252695801917,-0.02523292312778282,-0.1356768345952084,0.053034098249875296,-1.2943797548484801,-1.0706900646591186,-5.714629248752594
2026-09-11T17:40:04.843,5.079577599999993,-241.85845947265625,-21767.261352539062,-87069.04541015625,-165.67304473876953,-7.259248199462891,-4.841614246368408,-3.31650575876236,-7.418812094582937,0.004448799141616566,0.0,-0.016267776489257812,-133.265625,-5.8563995361328125,-0.015258789993822575,-5.493164397776127,657.738706558891,1,1789162804.0698495,38.99136700333333,-76.93667309833333,-10.014000000000003,0,1,23.892543999999997,19.642624000000005,185.368225,1,1,1789162804.841527,-0.9928169185489363,-0.09220286186793117,-0.06526926796946596,-0.03940965827164746,174.78044512584898,-7.026794727893518,10.932362433479202,-0.04837284741657404,-0.13439000333771298,0.04049390757429604,3.963161529865265,1.0281292029571534,-4.510470675392151
2026-09-11T17:40:04.876,5.112980768,-242.0176544189453,-21781.588897705078,-87126.35559082031,-165.78209327697755,-7.368296737670899,-4.789914131164551,-3.2810911798477176,-7.339591937740949,1.0602161721497565,0.0,-0.016521453857421875,-135.34375,-5.947723388671875,-0.015258795581758022,-5.493166409432888,-6.022353212632507e-05,1,1789162804.0698495,38.99136700333333,-76.93667309833333,-10.014000000000003,0,1,23.892543999999997,19.642624000000005,185.368225,1,1,1789162804.869527,-0.9930414163367662,-0.09127722704800946,-0.0629299063622124,-0.03971196479070996,174.77930829705988,-6.761366946602211,10.81199291569075,-0.13326548770065302,-0.25599669163504385,0.0633732542057645,4.625894947795868,1.5626897032737732,-12.838964458255768
2026-09-11T17:40:04.910,5.146387135999987,-242.17803955078125,-21796.023559570312,-87184.09423828125,-165.89195709228517,-7.478160552978516,-4.790931224822998,-3.2817878890037537,-7.341150431737093,-0.02085557927268277,0.0,-0.022951126098632812,-188.015625,-8.262405395507812,-0.2899170219898224,-104.37012791633606,-2959.8237529725193,1,1789162804.0698495,38.99136700333333,-76.93667309833333,-10.014000000000003,0,1,23.892543999999997,19.642624000000005,185.368225,1,1,1789162804.9015272,-0.9932615982381263,-0.09049839258958009,-0.060552123975943464,-0.039684741225654754,174.81485755347902,-6.494358781944081,10.706335523144993,0.005765520651038069,-0.15628149361255264,0.02169583886569111,-2.0710664476585388,0.10650022075653076,-6.820721320495606
2026-09-11T17:40:04.943,5.179793312000015,-242.3385467529297,-21810.469207763672,-87241.87683105469,-166.00190452575686,-7.588107986450196,-4.817415237426758,-3.299929437637329,-7.3817319202696074,-0.5430597214586947,0.0,-0.03457832336425781,-283.265625,-12.448196411132812,-0.030517637729644775,-10.98634958267212,2795.4046082252944,1,1789162804.0698495,38.99136700333333,-76.93667309833333,-10.014000000000003,0,1,23.892543999999997,19.642624000000005,185.368225,1,1,1789162804.9415271,-0.9935585680042089,-0.09059721592804727,-0.0559742698668451,-0.038734965139861216,174.97502172181316,-5.9815881488209826,10.682872762235903,-0.010438988789103284,-0.10399073109110175,-0.06553990593919026,-8.551693140544891,-1.1003061481475829,-15.172260731239318
2026-09-11T17:40:04.978,5.213201567999988,-242.49961853027344,-21824.96566772461,-87299.86267089844,-166.11223869323732,-7.698442153930665,-4.818221092224121,-3.300481448173523,-7.382966732671616,-0.01652317727074629,0.0,-0.035732269287109375,-292.71875,-12.863616943359375,-0.1373291164636612,-49.43848192691803,-1150.9769424742533,1,1789162804.0698495,38.99136700333333,-76.93667309833333,-10.014000000000003,0,1,23.892543999999997,19.642624000000005,185.368225,1,1,1789162804.969527,-0.9934959607094535,-0.09139231219451822,-0.055695481245661926,-0.038874602178723794,174.95739962937236,-5.944253948618024,10.773744731302628,0.05708762543763213,0.01156088643228524,-0.08734901667333582,-2.8909024011802673,0.775215695285797,-4.026806689414978
2026-09-11T17:40:05.011,5.246629216000031,-242.66139221191406,-21839.525299072266,-87358.10119628906,-166.22305366516113,-7.809257125854493,-4.818963050842285,-3.3009896898269657,-7.384103636871336,-0.015204230146311665,0.0,-0.039714813232421875,-325.34375,-14.297332763671875,-0.1373291164636612,-49.43848192691803,0.0,1,1789162804.0698495,38.99136700333333,-76.93667309833333,-10.014000000000003,0,1,23.892543999999997,19.642624000000005,185.368225,1,1,1789162805.001527,-0.9933480556787478,-0.09254976838021972,-0.05671753314300624,-0.03843568766382141,174.98902931480677,-6.059781507917854,10.911112747073672,-0.03895906503009223,0.09986878699666674,-0.08705684855655196,7.2351503563308714,1.8819942325401307,-6.6700911740112305
2026-09-11T17:40:05.043,5.280034944000022,-242.8209228515625,-21853.883056640625,-87415.5322265625,-166.33233215332032,-7.918535614013672,-4.79429817199707,-3.2840942478179933,-7.346309609471165,0.5057648200026332,0.0,-0.043483734130859375,-356.21875,-15.654144287109375,-0.07629397511482239,-27.46583104133606,657.7509966430857,1,1789162804.0698495,38.99136700333333,-76.93667309833333,-10.014000000000003,0,1,23.892543999999997,19.642624000000005,185.368225,1,1,1789162805.041527,-0.993120473193019,-0.09412256071585767,-0.060200741286228314,-0.03505053548453526,175.32676640119985,-6.4868447938153615,11.092996206902459,-0.022978830398832143,0.10903857235371973,-0.09793059886232704,1.1826820095062256,-2.3476139822196957,-11.800734405632019
2026-09-11T17:40:05.077,5.313445855999987,-242.9790496826172,-21868.114471435547,-87472.45788574219,-166.44064903259277,-8.026852493286134,-4.717800617218018,-3.231693422794342,-7.229092302242168,1.568374578452263,0.0,-0.0418548583984375,-342.875,-15.0677490234375,0.0762939602136612,27.46582567691803,1644.1232348973651,1,1789162805.0689833,38.99135939333333,-76.936657615,-9.947000000000003,0,1,28.729600000000005,6.964320999999999,73.63356099999999,1,1,1789162805.0695271,-0.9927837352565306,-0.0956500411258019,-0.06259520245385496,-0.03624038179274496,175.15179567460652,-6.7394309743345735,11.29202079886687,-0.017043663744500226,0.1579301316239865,-0.09077544706085108,-0.19142581115722657,-0.9666415064430237,-11.729047792949675
2026-09-11T17:40:05.110,5.346850816000028,-243.13766479492188,-21882.38983154297,-87529.55932617188,-166.5493003845215,-8.135503845214844,-4.7455830574035645,-3.250724394321442,-7.271663373124191,-0.5697049637861112,0.0,-0.0374755859375,-307.0,-13.4912109375,0.1678467094898224,60.42481541633606,986.6495795647518,1,1789162805.0689833,38.99135939333333,-76.936657615,-9.947000000000003,0,1,28.729600000000005,6.964320999999999,73.63356099999999,1,1,1789162805.101527,-0.9925267865183837,-0.09663574417943854,-0.06513885505064095,-0.036180665459169654,175.12118002463117,-7.025520379607448,11.4216362127664,-0.1478341000329001,0.0952317962399682,-0.09463768616258933,2.3800739942550657,-0.48709631353378297,-10.297374935836793
2026-09-11T17:40:05.144,5.3802582079999866,-243.29208374023438,-21896.287536621094,-87585.15014648438,-166.65507736206055,-8.241280822753907,-4.615806579589844,-3.1618275070190434,-7.072806699666786,2.6609945278730494,0.0,-0.03604316711425781,-295.265625,-12.975540161132812,0.1068115383386612,38.45215380191803,-657.7185556551526,1,1789162805.0689833,38.99135939333333,-76.936657615,-9.947000000000003,0,1,28.729600000000005,6.964320999999999,73.63356099999999,1,1,1789162805.141527,-0.992427134840152,-0.09776663756829133,-0.06566061267118026,-0.03491060806119562,175.2524892697965,-7.094173361932885,11.546866918668858,0.10791475484836059,0.015677245473113867,-0.029422935063045608,-6.48837394651413,-3.0255477079010014,-0.3218542583084107
2026-09-11T17:40:05.178,5.413677440000015,-243.44557189941406,-21910.101470947266,-87640.40588378906,-166.76021675109865,-8.346420211791992,-4.5656962394714355,-3.127501924037934,-6.9960225573504164,1.0271206406263433,0.0,-0.031940460205078125,-261.65625,-11.498565673828125,0.030517593026161194,10.98633348941803,-821.8567174876032,1,1789162805.0689833,38.99135939333333,-76.936657615,-9.947000000000003,0,1,28.729600000000005,6.964320999999999,73.63356099999999,1,1,1789162805.169527,-0.9922882309858957,-0.0977194777953415,-0.06785029845887205,-0.03480384038190756,175.23824072901346,-7.345489751975915,11.554413718937434,-0.0013966124674458624,0.050541069946326594,-0.03127664926158878,-0.4277660800552368,-2.943073780040741,-12.052667248287202
2026-09-11T17:40:05.211,5.447098464000021,-243.5930938720703,-21923.378448486328,-87693.51379394531,-166.86126930236819,-8.447472763061525,-4.409684658050537,-3.020633990764618,-6.7569657989544885,3.1976259396868327,0.0,-0.028673171997070312,-234.890625,-10.322341918945312,0.07629397511482239,27.46583104133606,493.08775074979775,1,1789162805.0689833,38.99135939333333,-76.936657615,-9.947000000000003,0,1,28.729600000000005,6.964320999999999,73.63356099999999,1,1,1789162805.201527,-0.9922519544700764,-0.0973556485489905,-0.06958188573840732,-0.033411041932361364,175.3796421021863,-7.5609049953538845,11.512842603380024,0.01330255049285038,-0.05166767997848894,-0.009918880672008974,2.64681487865448,2.2372891679000855,-15.325636739768983
2026-09-11T17:40:05.244,5.480505856000036,-243.73800659179688,-21936.42059326172,-87745.68237304688,-166.96053451538089,-8.546737976074219,-4.383693695068359,-3.0028301811218263,-6.7171398110277,0.5329302461797579,0.0,-0.028539657592773438,-233.796875,-10.274276733398438,-0.1220703274011612,-43.94531786441803,-2137.5852657316636,1,1789162805.0689833,38.99135939333333,-76.936657615,-9.947000000000003,0,1,28.729600000000005,6.964320999999999,73.63356099999999,1,1,1789162805.241527,-0.9923737029721345,-0.09695816008545541,-0.0689778743320386,-0.03218076591460893,175.5312928492166,-7.507922483274048,11.453900771608918,0.012214861303007515,0.05333569114461992,0.029073869212646743,2.3840947208213805,-1.7379345416641234,-6.3176401671981814
2026-09-11T17:40:05.277,5.513905152000007,-243.8831787109375,-21949.486083984375,-87797.9443359375,-167.0599774169922,-8.646180877685547,-4.357645034790039,-2.984986848831177,-6.67722541345556,0.5342427663943886,0.0,-0.028232574462890625,-231.28125,-10.163726806640625,-0.01525880303233862,-5.493169091641903,1151.2862059370982,1,1789162805.0689833,38.99135939333333,-76.936657615,-9.947000000000003,0,1,28.729600000000005,6.964320999999999,73.63356099999999,1,1,1789162805.269527,-0.9922884301403126,-0.09690588602962023,-0.0702173106306836,-0.032286993515690546,175.50441385883994,-7.648422470348114,11.456179436896399,0.018221760989596398,0.05092504238176535,0.0029614746747839782,2.444895951824188,1.0542148923873902,-12.380209363689422
