timestamp,time_s,drive_pos_turns,drive_encoder_count,drive_wheel_angle_deg,drive_distance_m,drive_distance_since_start_m,drive_velocity_turns_s,drive_velocity_mps,drive_velocity_mph,drive_acceleration_mps2,drive_iq_A,steer_pos_turns,steer_encoder_count,steer_angle_deg,steer_velocity_turns_s,steer_velocity_deg_s,steer_acceleration_deg_s2,gps_received,gps_ros_stamp_s,gps_latitude_deg,gps_longitude_deg,gps_altitude_m,gps_status,gps_service,gps_cov_x_m2,gps_cov_y_m2,gps_cov_z_m2,gps_covariance_type,imu_received,imu_ros_stamp_s,imu_qx,imu_qy,imu_qz,imu_qw,imu_roll_deg,imu_pitch_deg,imu_yaw_deg,imu_gyro_x_rad_s,imu_gyro_y_rad_s,imu_gyro_z_rad_s,imu_accel_x_mps2,imu_accel_y_mps2,imu_accel_z_mps2
2026-09-11T17:41:42.639,7.904000028702285e-06,-468.2599792480469,-42143.39813232422,-168573.59252929688,-320.7580857849121,0.0,0.0,0.0,0.0,0.0,0.0,-0.03726387023925781,-305.265625,-13.414993286132812,0.0,0.0,0.0,1,1789162902.073576,38.991431915,-76.93668803166666,-9.914000000000001,0,1,8.590761,6.8958759999999995,66.161956,1,1,1789162902.6293144,-0.9965442057360805,-0.06677174313020666,-0.04864490424022824,0.008651798926086047,-179.38121124047896,-5.630287873490126,7.636124569592205,0.0011321950857687215,-0.018823201449833644,7.57472895365539e-05,0.11895466646194458,-0.0065704556083679205,-9.679359842643738
2026-09-11T17:41:42.673,0.03342454400001316,-468.2599792480469,-42143.39813232422,-168573.59252929688,-320.7580857849121,0.0,0.0,0.0,0.0,0.0,0.0,-0.03726387023925781,-305.265625,-13.414993286132812,0.0,0.0,0.0,1,1789162902.073576,38.991431915,-76.93668803166666,-9.914000000000001,0,1,8.590761,6.8958759999999995,66.161956,1,1,1789162902.6693144,-0.9967307898374523,-0.06463298448444478,-0.047510139572616565,0.009648655058223305,-179.24633962026485,-5.506396654747391,7.3840545120086265,0.00023666664657043108,-0.008691565142006561,0.002448347874697645,-0.08943664947509765,-0.09041731449127198,-9.711525655174254
2026-09-11T17:41:42.706,0.06684326399999918,-468.2599792480469,-42143.39813232422,-168573.59252929688,-320.7580857849121,0.0,0.0,0.0,0.0,0.0,0.0,-0.03726387023925781,-305.265625,-13.414993286132812,0.0,0.0,0.0,1,1789162902.073576,38.991431915,-76.93668803166666,-9.914000000000001,0,1,8.590761,6.8958759999999995,66.161956,1,1,1789162902.7013144,-0.9967792422385121,-0.06292004730351568,-0.04863959915104558,0.01031500286798713,-179.16843790746353,-5.639208396483404,7.182862854321901,0.00033178709080412203,-0.005220803391490638,-0.002954144291925602,0.18426695653915406,-0.030989014511108397,-9.711035322666168
2026-09-11T17:41:42.740,0.10025935999999547,-468.2599792480469,-42143.39813232422,-168573.59252929688,-320.7580857849121,0.0,0.0,0.0,0.0,0.0,0.0,-0.03726387023925781,-305.265625,-13.414993286132812,0.0,0.0,0.0,1,1789162902.073576,38.991431915,-76.93668803166666,-9.914000000000001,0,1,8.590761,6.8958759999999995,66.161956,1,1,1789162902.7293143,-0.9969129279194335,-0.06145116679183307,-0.04774771163990607,0.010417498748596161,-179.14212286635697,-5.536563985899192,7.013182790077737,0.0019217820393709563,-0.005248903192447747,-0.002629687583979856,-0.07943386631011963,-0.02569342342376709,-9.695933081417083
2026-09-11T17:41:42.773,0.13367398399998365,-468.2599792480469,-42143.39813232422,-168573.59252929688,-320.7580857849121,0.0,0.0,0.0,0.0,0.0,0.0,-0.03726387023925781,-305.265625,-13.414993286132812,0.0,0.0,0.0,1,1789162902.073576,38.991431915,-76.93668803166666,-9.914000000000001,0,1,8.590761,6.8958759999999995,66.161956,1,1,1789162902.7693143,-0.9970397828740415,-0.059054443442693984,-0.048134692800782454,0.010358350502479503,-179.13815446896785,-5.578406886469159,6.73732289497981,-0.00022427480888127135,-0.007280815507619545,-0.0018648843057559412,0.09845876762390136,0.02500695791244507,-9.702307404022218
2026-09-11T17:41:42.807,0.16708713600002056,-468.2599792480469,-42143.39813232422,-168573.59252929688,-320.7580857849121,0.0,0.0,0.0,0.0,0.0,0.0,-0.03726387023925781,-305.265625,-13.414993286132812,0.0,0.0,0.0,1,1789162902.073576,38.991431915,-76.93668803166666,-9.914000000000001,0,1,8.590761,6.8958759999999995,66.161956,1,1,1789162902.8013144,-0.9971829478822886,-0.057256544299430515,-0.047404748007204435,0.01003227063279229,-179.16077203788282,-5.4911061490848185,6.532188993881358,-0.0006127851003752091,-0.010539345221092957,-0.0037470473711066258,-0.028047019462585452,0.013042844715118409,-9.704661000061035
2026-09-11T17:41:42.840,0.20050064000002976,-468.2599792480469,-42143.39813232422,-168573.59252929688,-320.7580857849121,0.0,0.0,0.0,0.0,0.0,0.0,-0.03726387023925781,-305.265625,-13.414993286132812,0.0,0.0,0.0,1,1789162902.073576,38.991431915,-76.93668803166666,-9.914000000000001,0,1,8.590761,6.8958759999999995,66.161956,1,1,1789162902.8293145,-0.9973033536998567,-0.055651556643131934,-0.04681006936791356,0.009886472980093925,-179.16490172123528,-5.420704985285947,6.348283251816139,0.0022692770934430273,-0.009264382202511101,-5.8817595792208906e-05,0.03344067705154419,-0.0003922660064697266,-9.727216295433044
2026-09-11T17:41:42.874,0.23391555199998493,-468.2599792480469,-42143.39813232422,-168573.59252929688,-320.7580857849121,0.0,0.0,0.0,0.0,0.0,0.0,-0.03726387023925781,-305.265625,-13.414993286132812,0.0,0.0,0.0,1,1789162902.073576,38.991431915,-76.93668803166666,-9.914000000000001,0,1,8.590761,6.8958759999999995,66.161956,1,1,1789162902.8693144,-0.9974300490765196,-0.053268098006234395,-0.04680239796657849,0.010263648405322588,-179.10855889048932,-5.420107163752188,6.071796851197374,4.6425758103049165e-05,-0.0030993556856915303,0.00016144295580947546,0.02618375593185425,-0.03422520906448364,-9.731237021999359
2026-09-11T17:41:42.907,0.2673301440000273,-468.2599792480469,-42143.39813232422,-168573.59252929688,-320.7580857849121,0.0,0.0,0.0,0.0,0.0,0.0,-0.03726387023925781,-305.265625,-13.414993286132812,0.0,0.0,0.0,1,1789162902.073576,38.991431915,-76.93668803166666,-9.914000000000001,0,1,8.590761,6.8958759999999995,66.161956,1,1,1789162902.9013143,-0.9975502023031526,-0.05143780990373269,-0.046304247197848626,0.01018146790435258,-179.10513041102544,-5.3609086781294675,5.861689783334227,-0.0009688322677820523,0.000882438469808333,-0.0035903168042775353,0.020692031841278075,0.0023535960388183595,-9.699463475475312
2026-09-11T17:41:42.940,0.3007440000000088,-468.2599792480469,-42143.39813232422,-168573.59252929688,-320.7580857849121,0.0,0.0,0.0,0.0,0.0,0.0,-0.03726387023925781,-305.265625,-13.414993286132812,0.0,0.0,0.0,1,1789162902.073576,38.991431915,-76.93668803166666,-9.914000000000001,0,1,8.590761,6.8958759999999995,66.161956,1,1,1789162902.9293144,-0.997609820027955,-0.0497607475905834,-0.046830707755973595,0.010266440185968591,-179.08929059273112,-5.420198851049915,5.667980452290406,0.0015772540450272757,0.014686596589681885,0.0009918706139083774,0.06119349700927734,-0.008237586135864259,-9.7258433644104
2026-09-11T17:41:42.974,0.334160192000013,-468.2599792480469,-42143.39813232422,-168573.59252929688,-320.7580857849121,0.0,0.0,0.0,0.0,0.0,0.0,-0.03726387023925781,-305.265625,-13.414993286132812,0.0,0.0,0.0,1,1789162902.073576,38.991431915,-76.93668803166666,-9.914000000000001,0,1,8.590761,6.8958759999999995,66.161956,1,1,1789162902.9693143,-0.9977152065303142,-0.047349455756387646,-0.04711803872682944,0.010113660281188624,-179.09523557369894,-5.45008351459342,5.391131183208624,-0.0008845328649107263,0.018711674910631207,-0.0005895722213236844,-0.009414384155273438,0.019907499828338625,-9.718782576293945
2026-09-11T17:41:43.008,0.36757520000003296,-468.2599792480469,-42143.39813232422,-168573.59252929688,-320.7580857849121,0.0,0.0,0.0,0.0,0.0,0.0,-0.03726387023925781,-305.265625,-13.414993286132812,0.0,0.0,0.0,1,1789162902.073576,38.991431915,-76.93668803166666,-9.914000000000001,0,1,8.590761,6.8958759999999995,66.161956,1,1,1789162903.0013144,-0.9977941546893815,-0.045413703141980406,-0.04738359642911621,0.009960683916132728,-179.10356255100027,-5.477960481011132,5.169047745072476,-6.440264939859077e-05,0.023569275284781824,0.003611609821151866,0.05432884189605713,0.01010084966659546,-9.721920704345703
2026-09-11T17:41:43.040,0.40099318400001494,-468.2599792480469,-42143.39813232422,-168573.59252929688,-320.7580857849121,0.0,0.0,0.0,0.0,0.0,0.0,-0.03726387023925781,-305.265625,-13.414993286132812,0.0,0.0,0.0,1,1789162902.073576,38.991431915,-76.93668803166666,-9.914000000000001,0,1,8.590761,6.8958759999999995,66.161956,1,1,1789162903.0293143,-0.9978638011552226,-0.04381303090101579,-0.047460946190950655,0.009783212865752552,-179.1155197839157,-5.48449518400378,4.985756535692065,0.001583886296184854,0.023719897199228936,0.0015090116712742972,0.03638267210006714,0.012062179698944091,-9.709172059135437
2026-09-11T17:41:43.074,0.43440931200001387,-468.2599792480469,-42143.39813232422,-168573.59252929688,-320.7580857849121,0.0,0.0,0.0,0.0,0.0,0.0,-0.03726387023925781,-305.265625,-13.414993286132812,0.0,0.0,0.0,1,1789162903.0727262,38.991431946666665,-76.93668802333333,-9.937000000000001,0,1,8.590761,6.8958759999999995,66.178225,1,1,1789162903.0693145,-0.9979609858311351,-0.041509230190392835,-0.04747159677710549,0.009864181029456038,-179.09357017189342,-5.484042042931823,4.720166843167323,-0.0002776818839922978,0.014507351275502067,0.0013215633096101062,0.04334539371490479,-0.018044236297607423,-9.715448315238953
2026-09-11T17:41:43.107,0.4678244799999902,-468.2599792480469,-42143.39813232422,-168573.59252929688,-320.7580857849121,0.0,0.0,0.0,0.0,0.0,0.0,-0.03701019287109375,-303.1875,-13.32366943359375,0.015258789993822575,5.493164397776127,164.39134460673714,1,1789162903.0727262,38.991431946666665,-76.93668802333333,-9.937000000000001,0,1,8.590761,6.8958759999999995,66.178225,1,1,1789162903.1013143,-0.9980569573596149,-0.0396848532210877,-0.04697274418666304,0.010049059382004295,-179.06005722161933,-5.426026697663832,4.509461961723817,0.0010051351162235344,0.00622349504676138,0.005473701600104616,0.05550563991546631,-0.03775560312271118,-9.71711544576645
2026-09-11T17:41:43.141,0.5012406719999944,-468.2599792480469,-42143.39813232422,-168573.59252929688,-320.7580857849121,0.0,0.0,0.0,0.0,0.0,0.0,-0.036956787109375,-302.75,-13.304443359375,0.0,0.0,-164.38630702670824,1,1789162903.0727262,38.991431946666665,-76.93668802333333,-9.937000000000001,0,1,8.590761,6.8958759999999995,66.178225,1,1,1789162903.1293144,-0.9981084530611757,-0.038122514094857333,-0.047139643179028565,0.010200190579983946,-179.03488638884255,-5.4443363700641605,4.328781821497127,0.003229731780815507,0.005113640175418186,0.0032871531132061204,0.13552790523529054,-0.017357770786285403,-9.706426197090149
2026-09-11T17:41:43.175,0.5346555520000038,-468.2599792480469,-42143.39813232422,-168573.59252929688,-320.7580857849121,0.0,0.0,0.0,0.0,0.0,0.0,-0.036956787109375,-302.75,-13.304443359375,0.0,0.0,0.0,1,1789162903.0727262,38.991431946666665,-76.93668802333333,-9.937000000000001,0,1,8.590761,6.8958759999999995,66.178225,1,1,1789162903.1693144,-0.9981986741174019,-0.03599936562869475,-0.04703673795784737,0.009539284400688262,-179.09880692064294,-5.427770353447112,4.088158460283627,0.0008930849782454984,-0.0038938295611993493,-0.00031084313978019007,0.063841292552948,0.0483467852973938,-9.698384743957519
2026-09-11T17:41:43.208,0.5680735679999884,-468.2599792480469,-42143.39813232422,-168573.59252929688,-320.7580857849121,0.0,0.0,0.0,0.0,0.0,0.0,-0.036834716796875,-301.75,-13.260498046875,0.0,0.0,0.0,1,1789162903.0727262,38.991431946666665,-76.93668802333333,-9.937000000000001,0,1,8.590761,6.8958759999999995,66.178225,1,1,1789162903.2013144,-0.9982848144653781,-0.034403008154332455,-0.046537031015360025,0.008841209308358196,-179.16839855821598,-5.366301132319698,3.908532567964748,0.0009909979492823803,-0.010493268528840308,-0.00046687557490848313,0.07580540575027465,0.05285784437179565,-9.708779793128967
2026-09-11T17:41:43.241,0.601487488000032,-468.2599792480469,-42143.39813232422,-168573.59252929688,-320.7580857849121,0.0,0.0,0.0,0.0,0.0,0.0,-0.036834716796875,-301.75,-13.260498046875,0.0,0.0,0.0,1,1789162903.0727262,38.991431946666665,-76.93668802333333,-9.937000000000001,0,1,8.590761,6.8958759999999995,66.178225,1,1,1789162903.2293143,-0.9983497061540735,-0.03288687917792401,-0.04629340984938519,0.008557897202504322,-179.1918863142044,-5.336040733401714,3.735765524613657,0.0022931881041953497,-0.007679623241700249,-0.00010279989294246601,0.06462582456588746,0.03520587408065796,-9.721724571342468
2026-09-11T17:41:43.276,0.6348989759999881,-468.2599792480469,-42143.39813232422,-168573.59252929688,-320.7580857849121,0.0,0.0,0.0,0.0,0.0,0.0,-0.036834716796875,-301.75,-13.260498046875,0.0,0.0,0.0,1,1789162903.0727262,38.991431946666665,-76.93668802333333,-9.937000000000001,0,1,8.590761,6.8958759999999995,66.178225,1,1,1789162903.2693143,-0.9984151484842675,-0.030645577032028224,-0.04642957720861687,0.00850495418805823,-179.18642559938755,-5.349642004533796,3.4781853654398924,0.0013812535700283124,-0.01510390481383373,-0.0012527973370815297,0.05638823843002319,0.03363681005477905,-9.714957982730866
2026-09-11T17:41:43.309,0.6683205119999798,-468.2599792480469,-42143.39813232422,-168573.59252929688,-320.7580857849121,0.0,0.0,0.0,0.0,0.0,0.0,-0.036834716796875,-301.75,-13.260498046875,0.0,0.0,0.0,1,1789162903.0727262,38.991431946666665,-76.93668802333333,-9.937000000000001,0,1,8.590761,6.8958759999999995,66.178225,1,1,1789162903.3013144,-0.998488362567194,-0.028918392854773448,-0.04596313159079864,0.00849157858986334,-179.17718155847987,-5.294697096196671,3.279847076967768,0.0026542967264329763,-0.017638646486505094,-0.004179190893900422,0.04971971632003784,0.02618375593185425,-9.715742514743805
2026-09-11T17:41:43.342,0.701746528000001,-468.2599792480469,-42143.39813232422,-168573.59252929688,-320.7580857849121,0.0,0.0,0.0,0.0,0.0,0.0,-0.036834716796875,-301.75,-13.260498046875,0.0,0.0,0.0,1,1789162903.0727262,38.991431946666665,-76.93668802333333,-9.937000000000001,0,1,8.590761,6.8958759999999995,66.178225,1,1,1789162903.3413143,-0.9985732403097555,-0.02680167589785513,-0.04540732756527647,0.008445620742226722,-179.1695560100453,-5.229067147291047,3.0369737999361073,0.0001265363707695889,-0.01446354351127701,-0.00275168609869426,0.06256642803192139,0.015298374252319336,-9.717409645271301
2026-09-11T17:41:43.375,0.7351630080000291,-468.2599792480469,-42143.39813232422,-168573.59252929688,-320.7580857849121,0.0,0.0,0.0,0.0,0.0,0.0,-0.036834716796875,-301.75,-13.260498046875,0.0,0.0,0.0,1,1789162903.0727262,38.991431946666665,-76.93668802333333,-9.937000000000001,0,1,8.590761,6.8958759999999995,66.178225,1,1,1789162903.3693144,-0.9986265648082411,-0.025264841473935692,-0.04506658045266009,0.008699147710698501,-179.1314007191704,-5.189434454084865,2.859137653664412,0.0035025267429022204,-0.010083988819247637,-0.002896024827834191,0.028243152465820313,-0.0004903325080871582,-9.707014596099855
2026-09-11T17:41:43.408,0.7685815039999966,-468.2599792480469,-42143.39813232422,-168573.59252929688,-320.7580857849121,0.0,0.0,0.0,0.0,0.0,0.0,-0.036834716796875,-301.75,-13.260498046875,0.0,0.0,0.0,1,1789162903.0727262,38.991431946666665,-76.93668802333333,-9.937000000000001,0,1,8.590761,6.8958759999999995,66.178225,1,1,1789162903.4013143,-0.9986722132424685,-0.02349115905942324,-0.044950295954922455,0.009024790136023721,-179.08443819634243,-5.175413850813534,2.6535911185895014,0.0022378611669071295,-0.007093890744730952,0.00036477381366681485,0.04922938381195068,-0.007649187126159668,-9.725058832397462
2026-09-11T17:41:43.442,0.801996384000006,-468.2599792480469,-42143.39813232422,-168573.59252929688,-320.7580857849121,0.0,0.0,0.0,0.0,0.0,0.0,-0.03701972961425781,-303.265625,-13.327102661132812,0.0,0.0,0.0,1,1789162903.0727262,38.991431946666665,-76.93668802333333,-9.937000000000001,0,1,8.590761,6.8958759999999995,66.178225,1,1,1789162903.4413145,-0.9987478875398579,-0.021356868044327137,-0.04429399232510211,0.00919693241859558,-179.05203625747336,-5.098596485870953,2.4078043959815276,-0.00012897983172238095,-0.00908635861880768,-0.004122118627360207,0.024516625404357912,-0.008531785640716553,-9.718292243785859
2026-09-11T17:41:43.476,0.8354272960000344,-468.2599792480469,-42143.39813232422,-168573.59252929688,-320.7580857849121,0.0,0.0,0.0,0.0,0.0,0.0,-0.03714179992675781,-304.265625,-13.371047973632812,0.0,0.0,0.0,1,1789162903.0727262,38.991431946666665,-76.93668802333333,-9.937000000000001,0,1,8.590761,6.8958759999999995,66.178225,1,1,1789162903.4693143,-0.998777154037915,-0.019750655039019238,-0.044316600593140715,0.009494583156772693,-179.0096609896906,-5.10032029334946,2.2216251352642105,0.0032908183046353083,-0.002156703356689393,-0.003049962867860091,0.026772154941558837,-0.010787315177917482,-9.714565716724396
2026-09-11T17:41:43.510,0.8688448000000335,-468.2599792480469,-42143.39813232422,-168573.59252929688,-320.7580857849121,0.0,0.0,0.0,0.0,0.0,0.0,-0.03714179992675781,-304.265625,-13.371047973632812,0.0,0.0,0.0,1,1789162903.0727262,38.991431946666665,-76.93668802333333,-9.937000000000001,0,1,8.590761,6.8958759999999995,66.178225,1,1,1789162903.5013144,-0.9988257207432499,-0.017998014352518518,-0.04394712824383037,0.009586499893813872,-178.9894105096951,-5.056388482155554,2.019999097238891,0.002036450171226984,0.0010663961729685354,0.001789835147920185,0.017848103294372558,-0.007943386631011962,-9.70407260105133
2026-09-11T17:41:43.543,0.9022667520000027,-468.2599792480469,-42143.39813232422,-168573.59252929688,-320.7580857849121,0.0,0.0,0.0,0.0,0.0,0.0,-0.03714179992675781,-304.265625,-13.371047973632812,0.0,0.0,0.0,1,1789162903.0727262,38.991431946666665,-76.93668802333333,-9.937000000000001,0,1,8.590761,6.8958759999999995,66.178225,1,1,1789162903.5413144,-0.998866258968465,-0.01573884827419185,-0.04383466067789182,0.009849257464367342,-178.94756459778438,-5.041654364704797,1.7591019027918153,0.0007593927575427328,0.0004700171675620729,-0.0005792747787369179,0.0291257509803772,-0.0232417608833313,-9.723685901374816
2026-09-11T17:41:43.576,0.9356898240000078,-468.2599792480469,-42143.39813232422,-168573.59252929688,-320.7580857849121,0.0,0.0,0.0,0.0,0.0,0.0,-0.03714179992675781,-304.265625,-13.371047973632812,0.0,0.0,0.0,1,1789162903.0727262,38.991431946666665,-76.93668802333333,-9.937000000000001,0,1,8.590761,6.8958759999999995,66.178225,1,1,1789162903.5693145,-0.998890240510709,-0.014182860317869897,-0.04377680725124672,0.010036186155537167,-178.9181252249866,-5.033669474934625,1.5793768046090468,0.001989500814348336,0.007242941862851269,-9.546951008408982e-05,0.03589233959197998,-0.020986231346130372,-9.710152724151612
2026-09-11T17:41:43.610,0.9691378560000317,-468.2599792480469,-42143.39813232422,-168573.59252929688,-320.7580857849121,0.0,0.0,0.0,0.0,0.0,0.0,-0.03714179992675781,-304.265625,-13.371047973632812,0.0,0.0,0.0,1,1789162903.0727262,38.991431946666665,-76.93668802333333,-9.937000000000001,0,1,8.590761,6.8958759999999995,66.178225,1,1,1789162903.6013143,-0.9989105944300096,-0.01238215136471925,-0.0438658847299508,0.01000453996567416,-178.9127822258391,-5.041883888776248,1.372496181906416,0.0011595967550250324,0.00944345298376572,-0.0006546730024230731,0.03412714256286621,0.007649187126159668,-9.714467650222778
2026-09-11T17:41:43.643,1.0025744960000225,-468.2599792480469,-42143.39813232422,-168573.59252929688,-320.7580857849121,0.0,0.0,0.0,0.0,0.0,0.0,-0.03714179992675781,-304.265625,-13.371047973632812,0.0,0.0,0.0,1,1789162903.0727262,38.991431946666665,-76.93668802333333,-9.937000000000001,0,1,8.590761,6.8958759999999995,66.178225,1,1,1789162903.6413143,-0.9989437613398251,-0.010272446495931224,-0.043744276655605985,0.009606080527899038,-178.94777653919905,-5.025177959508156,1.1321647756736184,-0.00016353735091186868,0.00559866717454741,-0.002280098134805392,0.039324667148590085,0.018828768310546876,-9.720351640319825
2026-09-11T17:41:43.676,1.0359946240000113,-468.2599792480469,-42143.39813232422,-168573.59252929688,-320.7580857849121,0.0,0.0,0.0,0.0,0.0,0.0,-0.03726387023925781,-305.265625,-13.414993286132812,0.0,0.0,0.0,1,1789162903.0727262,38.991431946666665,-76.93668802333333,-9.937000000000001,0,1,8.590761,6.8958759999999995,66.178225,1,1,1789162903.6693144,-0.9989587064984472,-0.008793635177181288,-0.04378544491954681,0.009327888534786211,-178.97232781132132,-5.028068448110976,0.9635781428744099,0.0017964673990777634,0.012211719710353924,-0.0008808676734815381,0.03697107110977173,0.02392822639465332,-9.717998044281005
2026-09-11T17:41:43.710,1.069414112000004,-468.2599792480469,-42143.39813232422,-168573.59252929688,-320.7580857849121,0.0,0.0,0.0,0.0,0.0,0.0,-0.03726387023925781,-305.265625,-13.414993286132812,0.0,0.0,0.0,1,1789162903.0727262,38.991431946666665,-76.93668802333333,-9.937000000000001,0,1,8.590761,6.8958759999999995,66.178225,1,1,1789162903.7013144,-0.9989759075908292,-0.006947397075512234,-0.043712576757302994,0.009385113754838463,-178.95638958437723,-5.017846090409455,0.7511872278294109,0.0007358308126408094,0.011313049678502045,0.0019324285478081217,0.03726527061462402,-0.005589790592193603,-9.704759066562653
2026-09-11T17:41:43.744,1.102832095999986,-468.2599792480469,-42143.39813232422,-168573.59252929688,-320.7580857849121,0.0,0.0,0.0,0.0,0.0,0.0,-0.03726387023925781,-305.265625,-13.414993286132812,0.0,0.0,0.0,1,1789162903.0727262,38.991431946666665,-76.93668802333333,-9.937000000000001,0,1,8.590761,6.8958759999999995,66.178225,1,1,1789162903.7413144,-0.9989720546181197,-0.004702727570593956,-0.04401786843628391,0.009754265927026502,-178.90278631453285,-5.050686256135983,0.4910503062043467,0.0020727530196684657,0.00822137344151929,0.0004429645641561608,0.05913410047531128,-0.021574630355834963,-9.715448315238953
2026-09-11T17:41:43.777,1.1362523519999854,-468.2599792480469,-42143.39813232422,-168573.59252929688,-320.7580857849121,0.0,0.0,0.0,0.0,0.0,0.0,-0.03726387023925781,-305.265625,-13.414993286132812,0.0,0.0,0.0,1,1789162903.0727262,38.991431946666665,-76.93668802333333,-9.937000000000001,0,1,8.590761,6.8958759999999995,66.178225,1,1,1789162903.7693143,-0.9989809110184703,-0.003188683965820636,-0.043959475227942545,0.009722975519719448,-178.8986976260867,-5.04231014443569,0.31727497482563094,0.0019341738770601161,0.008749335540247573,-0.002832494843061597,0.05805536895751953,0.009414384155273438,-9.722705236358642
2026-09-11T17:41:43.810,1.1696672639999974,-468.2599792480469,-42143.39813232422,-168573.59252929688,-320.7580857849121,0.0,0.0,0.0,0.0,0.0,0.0,-0.03726387023925781,-305.265625,-13.414993286132812,0.0,0.0,0.0,1,1789162903.0727262,38.991431946666665,-76.93668802333333,-9.937000000000001,0,1,8.590761,6.8958759999999995,66.178225,1,1,1789162903.8013144,-0.9989944676316733,-0.0015480428039294175,-0.04386783260478386,0.00912526533015327,-178.95908940323307,-5.029905652113943,0.13185048287441928,0.001306553478042955,0.0016517796040874334,-0.0006300638599699529,0.06825428512573242,0.05805536895751953,-9.718488376789093
2026-09-11T17:41:43.844,1.2030846719999886,-468.2599792480469,-42143.39813232422,-168573.59252929688,-320.7580857849121,0.0,0.0,0.0,0.0,0.0,0.0,-0.03726387023925781,-305.265625,-13.414993286132812,0.0,0.0,0.0,1,1789162903.0727262,38.991431946666665,-76.93668802333333,-9.937000000000001,0,1,8.590761,6.8958759999999995,66.178225,1,1,1789162903.8413143,-0.9990176120043933,0.0005468846299545558,-0.04346803777314004,0.008604737903830597,-179.0084189190326,-4.981912829420611,-0.10586761211701254,0.003104068074671915,-0.002069611427014876,-0.0006188937527571892,0.04442412523269654,0.0291257509803772,-9.714271517219544
2026-09-11T17:41:43.877,1.2365089599999806,-468.2599792480469,-42143.39813232422,-168573.59252929688,-320.7580857849121,0.0,0.0,0.0,0.0,0.0,0.0,-0.03726387023925781,-305.265625,-13.414993286132812,0.0,0.0,0.0,1,1789162903.0727262,38.991431946666665,-76.93668802333333,-9.937000000000001,0,1,8.590761,6.8958759999999995,66.178225,1,1,1789162903.8693144,-0.9990309699648882,0.0019546377048698348,-0.043147639261625265,0.008460595050363784,-179.01806129729047,-4.943801296664082,-0.26659288364720957,0.0005242969072990966,0.006314601233715485,0.0011424925283554882,0.037853669624328616,0.018730701808929443,-9.71132952217102
2026-09-11T17:41:43.910,1.2699281600000063,-468.2599792480469,-42143.39813232422,-168573.59252929688,-320.7580857849121,0.0,0.0,0.0,0.0,0.0,0.0,-0.03735923767089844,-306.046875,-13.449325561523438,-0.015258789993822575,-5.493164397776127,-164.3715109210243,1,1789162903.0727262,38.991431946666665,-76.93668802333333,-9.937000000000001,0,1,8.590761,6.8958759999999995,66.178225,1,1,1789162903.9013143,-0.9990061025937514,0.0036710151378540772,-0.04350458164612461,0.008982316187735458,-178.9493953615009,-4.982802998773095,-0.46679767024434915,-0.0011981685314941073,0.012400389802494511,-0.005074195734323114,0.06070316450119019,-0.048640984802246094,-9.740357206649781
2026-09-11T17:41:43.945,1.303346175999991,-468.2599792480469,-42143.39813232422,-168573.59252929688,-320.7580857849121,0.0,0.0,0.0,0.0,0.0,0.0,-0.037921905517578125,-310.65625,-13.651885986328125,-0.0457763709127903,-16.479493528604507,-328.75467923749386,1,1789162903.0727262,38.991431946666665,-76.93668802333333,-9.937000000000001,0,1,8.590761,6.8958759999999995,66.178225,1,1,1789162903.9413145,-0.9989814088430159,0.005716752289750274,-0.04362719747038249,0.010006556358743597,-178.8213641906413,-4.993982019511872,-0.7071524940779315,0.001984264826592353,0.028549921371198043,0.0006548475353482724,0.09257477752685547,-0.09277091053009033,-9.712310187187196
2026-09-11T17:41:43.977,1.3367679039999985,-468.2599792480469,-42143.39813232422,-168573.59252929688,-320.7580857849121,0.0,0.0,0.0,0.0,0.0,0.0,-0.039196014404296875,-321.09375,-14.110565185546875,-0.0305175818502903,-10.986329466104507,164.35906792427855,1,1789162903.0727262,38.991431946666665,-76.93668802333333,-9.937000000000001,0,1,8.590761,6.8958759999999995,66.178225,1,1,1789162903.9693143,-0.9989931573711982,0.006991347046099228,-0.0433631882719183,0.009133810535568289,-178.91552549023757,-4.962938537525804,-0.8489428830685091,-0.002841221489321569,0.02493778795127058,-0.00030333822399661444,0.029616083488464357,0.18014816347122192,-9.4738124552536
2026-09-11T17:41:44.011,1.3701853119999896,-468.2599792480469,-42143.39813232422,-168573.59252929688,-320.7580857849121,0.0,0.0,0.0,0.0,0.0,0.0,-0.039859771728515625,-326.53125,-14.349517822265625,-0.015258789993822575,-5.493164397776127,164.38034536759508,1,1789162903.0727262,38.991431946666665,-76.93668802333333,-9.937000000000001,0,1,8.590761,6.8958759999999995,66.178225,1,1,1789162904.0013144,-0.9989770763449068,0.00853335318390332,-0.04355311183081497,0.008666560486920912,-178.96132964799952,-4.983520436886288,-1.0240286345552507,-0.001461364182694852,0.020824221437245147,-0.003579844828765569,-0.07521700674057007,0.09090764699935913,-9.738395876617432
2026-09-11T17:41:44.044,1.4036070719999998,-468.2599792480469,-42143.39813232422,-168573.59252929688,-320.7580857849121,0.0,0.0,0.0,0.0,0.0,0.0,-0.04007148742675781,-328.265625,-14.425735473632812,0.0,0.0,164.35892058869592,1,1789162903.0727262,38.991431946666665,-76.93668802333333,-9.937000000000001,0,1,8.590761,6.8958759999999995,66.178225,1,1,1789162904.0413144,-0.9990068411064101,0.010387284391868994,-0.04257913213673696,0.008028278273471412,-179.0266976786021,-4.870671541489608,-1.232831283583239,0.0014732324216084136,0.018092781157874018,-0.004345520771615482,-0.09600710508346558,0.034715541572570806,-9.870001121788023
2026-09-11T17:41:44.078,1.4370280640000033,-468.2599792480469,-42143.39813232422,-168573.59252929688,-320.7580857849121,0.0,0.0,0.0,0.0,0.0,0.0,-0.04007148742675781,-328.265625,-14.425735473632812,0.0,0.0,0.0,1,1789162904.0707822,38.99143194333333,-76.93668802666667,-9.954,0,1,8.590761,6.8958759999999995,66.19449599999999,1,1,1789162904.0693145,-0.9989710155148278,0.011812495403057817,-0.043009706021714264,0.00821829067092074,-178.9972605773071,-4.918391760638327,-1.3980095862466158,-0.0018795450714726935,0.008608312936686431,0.0036739180754480636,0.17740230142593383,-0.004609125576019287,-9.684655433731079
2026-09-11T17:41:44.111,1.470448191999992,-468.2599792480469,-42143.39813232422,-168573.59252929688,-320.7580857849121,0.0,0.0,0.0,0.0,0.0,0.0,-0.04007148742675781,-328.265625,-14.425735473632812,0.0,0.0,0.0,1,1789162904.0707822,38.99143194333333,-76.93668802666667,-9.954,0,1,8.590761,6.8958759999999995,66.19449599999999,1,1,1789162904.1013143,-0.9989633329676418,0.013418098796152723,-0.042620023721811395,0.00870330907351865,-178.9342648162404,-4.871316362722236,-1.5844372265095688,-0.0007330382858376184,-0.002592861136762776,0.0018114772306449145,0.06227222852706909,-0.0480525857925415,-9.708877859630585
2026-09-11T17:41:44.144,1.5038677759999928,-468.2599792480469,-42143.39813232422,-168573.59252929688,-320.7580857849121,0.0,0.0,0.0,0.0,0.0,0.0,-0.039642333984375,-324.75,-14.271240234375,0.0,0.0,0.0,1,1789162904.0707822,38.99143194333333,-76.93668802666667,-9.954,0,1,8.590761,6.8958759999999995,66.19449599999999,1,1,1789162904.1413143,-0.9989345555557091,0.015540869456100028,-0.0424044401310104,0.009492025623748524,-178.83369280959147,-4.842874259769715,-1.8319296747487204,0.001980948701013564,0.001370257995740748,0.003173008580125691,0.051681046352386475,-0.03638267210006714,-9.71633091375351
2026-09-11T17:41:44.178,1.5372851200000355,-468.2599792480469,-42143.39813232422,-168573.59252929688,-320.7580857849121,0.0,0.0,0.0,0.0,0.0,0.0,-0.038909912109375,-318.75,-14.007568359375,0.015258789993822575,5.493164397776127,164.3806401181706,1,1789162904.0707822,38.99143194333333,-76.93668802666667,-9.954,0,1,8.590761,6.8958759999999995,66.19449599999999,1,1,1789162904.1693144,-0.9988827204588805,0.01702164200442795,-0.04298876686308058,0.009774476749709047,-178.79281319946267,-4.907579002516551,-2.004262621919315,-0.0002757620218151041,0.005290616561570411,0.003428175716767262,0.15739673509597776,-0.04079566467285156,-9.706622330093383
2026-09-11T17:41:44.211,1.5707018560000279,-468.2599792480469,-42143.39813232422,-168573.59252929688,-320.7580857849121,0.0,0.0,0.0,0.0,0.0,0.0,-0.038665771484375,-316.75,-13.919677734375,0.0,0.0,-164.38363093802388,1,1789162904.0707822,38.99143194333333,-76.93668802666667,-9.954,0,1,8.590761,6.8958759999999995,66.19449599999999,1,1,1789162904.2013144,-0.9988251621192935,0.01860723329338538,-0.04368151213133655,0.00969494117838933,-178.79255093636752,-4.985267908973875,-2.187057726822309,0.00040334559013588953,0.011466289586827147,0.0010817550703860854,0.1645555897140503,0.0013729310226440429,-9.724274300384522
2026-09-11T17:41:44.245,1.6041209279999862,-468.2599792480469,-42143.39813232422,-168573.59252929688,-320.7580857849121,0.0,0.0,0.0,0.0,0.0,0.0,-0.038665771484375,-316.75,-13.919677734375,0.0,0.0,0.0,1,1789162904.0707822,38.99143194333333,-76.93668802666667,-9.954,0,1,8.590761,6.8958759999999995,66.19449599999999,1,1,1789162904.2413144,-0.9988000131992305,0.020381670615393786,-0.04361399442928838,0.008996700843326393,-178.86407061260277,-4.977042748133855,-2.3874182931429306,0.0011346385467215136,0.017708983255360466,-0.004743979439845787,0.11562040540695191,0.03187161302566528,-9.719469041805267
2026-09-11T17:41:44.278,1.637537887999997,-468.2599792480469,-42143.39813232422,-168573.59252929688,-320.7580857849121,0.0,0.0,0.0,0.0,0.0,0.0,-0.038665771484375,-316.75,-13.919677734375,0.0,0.0,0.0,1,1789162904.0707822,38.99143194333333,-76.93668802666667,-9.954,0,1,8.590761,6.8958759999999995,66.19449599999999,1,1,1789162904.2693143,-0.9987770068476962,0.021623678376940597,-0.04366853567885521,0.008364575151936823,-178.93035127215632,-4.983480289796746,-2.5270863792739355,-0.0001520181778487061,0.002817135945644047,-0.005207189823325083,0.15494507255554202,0.0793357998085022,-9.716134780750275
2026-09-11T17:41:44.312,1.6709775040000068,-468.2599792480469,-42143.39813232422,-168573.59252929688,-320.7580857849121,0.0,0.0,0.0,0.0,0.0,0.0,-0.03885078430175781,-318.265625,-13.986282348632812,0.0,0.0,0.0,1,1789162904.0707822,38.99143194333333,-76.93668802666667,-9.954,0,1,8.590761,6.8958759999999995,66.19449599999999,1,1,1789162904.3093145,-0.998762162304899,0.023314223597328505,-0.04340329692982546,0.006836954125749527,-179.09814772393185,-4.9554047817726135,-2.713463544992907,0.0032932617655881003,-0.01573169974577609,-0.0008714428955207688,0.07874740079879762,0.15298374252319336,-9.68691096326828
2026-09-11T17:41:44.345,1.704395455999986,-468.2610168457031,-42143.49151611328,-168573.96606445312,-320.7587965393067,-0.0007107543945312501,-0.02583135850727558,-0.017694480577483775,-0.03958142577282515,-0.5294902744936232,0.0,-0.0391845703125,-321.0,-14.1064453125,-0.015258789993822575,-5.493164397776127,-164.37764940770535,1,1789162904.0707822,38.99143194333333,-76.93668802666667,-9.954,0,1,8.590761,6.8958759999999995,66.19449599999999,1,1,1789162904.3413143,-0.9987380656887183,0.024518799374716335,-0.04350743693429046,0.005311078326359765,-179.26714675359335,-4.970603864084957,-2.8444416987009338,0.001875705347118306,-0.04185351906159962,-0.007593927575427328,0.20554738739013673,0.23418280586242674,-9.689264559307098
2026-09-11T17:41:44.378,1.7378142080000316,-468.2618713378906,-42143.568420410156,-168574.27368164062,-320.7593818664551,-0.0012960815429687502,-0.02583135850727558,-0.017694480577483775,-0.03958142577282515,0.0,0.0,-0.04078102111816406,-334.078125,-14.681167602539062,-0.0610351599752903,-21.972657591104507,-493.12114328224874,1,1789162904.0707822,38.99143194333333,-76.93668802666667,-9.954,0,1,8.590761,6.8958759999999995,66.19449599999999,1,1,1789162904.3693144,-0.9987606482316377,0.025370437115313074,-0.042662306227865675,0.0036655274950360794,-179.4544685419944,-4.877915207778865,-2.9334559721994204,0.0017078046730764516,-0.07351466435740277,-0.012096702512647498,0.12640772058486938,0.29616083488464356,-9.687205162773132
2026-09-11T17:41:44.411,1.7712308160000134,-468.26275634765625,-42143.64807128906,-168574.59228515625,-320.75998809814456,-0.0019023132324218752,-0.02583135850727558,-0.017694480577483775,-0.03958142577282515,0.0,0.0,-0.042690277099609375,-349.71875,-15.368499755859375,-0.0457763746380806,-16.479494869709015,164.38421043208464,1,1789162904.0707822,38.99143194333333,-76.93668802666667,-9.954,0,1,8.590761,6.8958759999999995,66.19449599999999,1,1,1789162904.4013143,-0.9987750855878894,0.026546840638363083,-0.041706172140065376,0.002046672042347439,-179.63762508175105,-4.772612372473311,-3.0601590289918197,0.004631754768942552,-0.10859630592126437,-0.009233140808900402,0.13984283130645753,0.2897865122795105,-9.708975926132203
2026-09-11T17:41:44.445,1.8046444480000332,-468.26361083984375,-42143.72497558594,-168574.89990234375,-320.760573425293,-0.002487640380859375,-0.02583135850727558,-0.017694480577483775,-0.03958142577282515,0.0,0.0,-0.04367828369140625,-357.8125,-15.72418212890625,-0.030517585575580597,-10.986330807209015,164.39889152118354,1,1789162904.0707822,38.99143194333333,-76.93668802666667,-9.954,0,1,8.590761,6.8958759999999995,66.19449599999999,1,1,1789162904.4413145,-0.9988318420452795,0.028140042234140943,-0.03927982123910703,0.0004300964058644689,-179.82356604888062,-4.499113239887742,-3.2344595860047294,0.006588617926278594,-0.1406016301455608,-0.011118619999829877,0.0014709975242614744,0.3527452063179016,-9.704661000061035
2026-09-11T17:41:44.478,1.8380585600000359,-468.26446533203125,-42143.80187988281,-168575.20751953125,-320.7611587524414,-0.0030729675292968752,-0.02583135850727558,-0.017694480577483775,-0.03958142577282515,0.0,0.0,-0.044918060302734375,-367.96875,-16.170501708984375,-0.0457763746380806,-16.479494869709015,-164.39652990028773,1,1789162904.0707822,38.99143194333333,-76.93668802666667,-9.954,0,1,8.590761,6.8958759999999995,66.19449599999999,1,1,1789162904.4693143,-0.9988538860921946,0.028903396601809593,-0.038150384088427296,-0.00023684869675170053,-179.90046277482418,-4.371726658796459,-3.3187598747214384,0.0015521213037985571,-0.1436552582048501,-0.016861974969367616,-0.0659987555885315,0.41021217626571654,-9.247769169025421
2026-09-11T17:41:44.512,1.871475615999998,-468.26531982421875,-42143.87878417969,-168575.51513671875,-320.76174407958985,-0.0036582946777343754,-0.02583135850727558,-0.017694480577483775,-0.03958142577282515,0.0,0.0,-0.04694557189941406,-384.578125,-16.900405883789062,-0.0762939527630806,-27.465822994709015,-328.76409355188207,1,1789162904.0707822,38.99143194333333,-76.93668802666667,-9.954,0,1,8.590761,6.8958759999999995,66.19449599999999,1,1,1789162904.5093143,-0.9989254747554879,0.030249116885085494,-0.03503880776733866,-0.0022734912445211554,179.86086902993057,-4.022020211139339,-3.4640766956616402,0.006578145950766628,-0.10142247909679208,-0.012881926143119747,-0.252423175163269,0.48631178152084353,-9.570015693340302
2026-09-11T17:41:44.546,1.9048916159999862,-468.29608154296875,-42146.64733886719,-168586.58935546875,-320.7828158569336,-0.024730072021484376,-0.7291404008865356,-0.49946117460727696,-1.1172628279511372,-14.417246050693118,0.0,-0.05081748962402344,-416.296875,-18.294296264648438,-0.1220703274011612,-43.94531786441803,-493.16180481550043,1,1789162904.0707822,38.99143194333333,-76.93668802666667,-9.954,0,1,8.590761,6.8958759999999995,66.19449599999999,1,1,1789162904.5413144,-0.998892309776642,0.03162157306312564,-0.03465678779948102,-0.0036244510646537245,179.71000793250388,-3.9833177191769376,-3.6162880383563905,0.003159045946109736,-0.059310476772972104,-0.017093056562331666,-0.0995374991416931,0.43816112922668454,-9.705347465572357
2026-09-11T17:41:44.578,1.9383044799999993,-468.30181884765625,-42147.16369628906,-168588.65478515625,-320.7867459106446,-0.028660125732421878,-0.20392656326293945,-0.13968969583511354,-0.3124769502396058,10.767454079124212,0.0,-0.05606651306152344,-459.296875,-20.183944702148438,-0.1983642727136612,-71.41113817691803,-822.0133512795923,1,1789162904.0707822,38.99143194333333,-76.93668802666667,-9.954,0,1,8.590761,6.8958759999999995,66.19449599999999,1,1,1789162904.5693145,-0.9988629166077235,0.03283616022822116,-0.03423824071268367,-0.004733210356514712,179.58607880786724,-3.9398661734771254,-3.751437092496415,0.004853586116871031,-0.029851762460260615,-0.019189546059827256,-0.27939146310806273,0.4586570280647278,-9.675142983074188
2026-09-11T17:41:44.612,1.9717205119999903,-468.3047180175781,-42147.42462158203,-168589.69848632812,-320.78873184204105,-0.03064605712890625,-0.12514445185661316,-0.08572394952178002,-0.19175901378350912,1.6149657240377333,0.0,-0.06189918518066406,-507.078125,-22.283706665039062,-0.1068115383386612,-38.45215380191803,986.3225045693302,1,1789162904.0707822,38.99143194333333,-76.93668802666667,-9.954,0,1,8.590761,6.8958759999999995,66.19449599999999,1,1,1789162904.6093144,-0.9987964591493821,0.03445108925721312,-0.03448895661301433,-0.005409945599897703,179.51579891078723,-3.971924696003245,-3.934204708754154,0.002735629069575912,0.0018699457605867247,-0.022954221256379023,-0.1354298387336731,0.4160961663627625,-9.76556029756546
2026-09-11T17:41:44.645,2.0051381119999974,-468.3089294433594,-42147.803649902344,-168591.21459960938,-320.7916166687012,-0.0335308837890625,-0.12514445185661316,-0.08572394952178002,-0.19175901378350912,0.0,0.0,-0.06417465209960938,-525.71875,-23.102874755859375,-0.1068115383386612,-38.45215380191803,0.0,1,1789162904.0707822,38.99143194333333,-76.93668802666667,-9.954,0,1,8.590761,6.8958759999999995,66.19449599999999,1,1,1789162904.6413143,-0.9987925753214271,0.03545495108877637,-0.033343128799352195,-0.006676352893129401,179.36990593289082,-3.8462407938179686,-4.044885199970174,-0.0023713788546846954,0.017358346608634802,-0.018135890790398276,-0.28409865518569943,0.49307837013244626,-9.641898439025878
2026-09-11T17:41:44.679,2.0385556800000018,-468.3360290527344,-42150.242614746094,-168600.97045898438,-320.8101799011231,-0.052094116210937506,-0.6921603083610535,-0.4741298112273217,-1.0605981818792976,-11.622804559131609,0.0,-0.067596435546875,-553.75,-24.334716796875,-0.1678466945886612,-60.42481005191803,-657.5181129278202,1,1789162904.0707822,38.99143194333333,-76.93668802666667,-9.954,0,1,8.590761,6.8958759999999995,66.19449599999999,1,1,1789162904.6693144,-0.9987243887361782,0.035654625980032176,-0.03464484373807738,-0.008836163881188172,179.1281289572767,-4.004303510340812,-4.058721203911806,0.0005171410573659199,0.040840180897891716,-0.029377556502493758,-0.5847705491447449,1.8901337521743773,-9.263950141792298
2026-09-11T17:41:44.712,2.071970656000019,-468.3490905761719,-42151.41815185547,-168605.67260742188,-320.81912704467777,-0.061041259765625,-0.4318305552005768,-0.2958039303123951,-0.6616945470481271,5.336705341785498,0.0,-0.07010078430175781,-574.265625,-25.236282348632812,0.0,0.0,1808.3152312270622,1,1789162904.0707822,38.99143194333333,-76.93668802666667,-9.954,0,1,8.590761,6.8958759999999995,66.19449599999999,1,1,1789162904.7093143,-0.9986122514677483,0.03564362973896339,-0.037102075165855376,-0.011248950881441368,178.86102154554263,-4.295653563132908,-4.0456816587128275,-0.00019774580425095754,0.040219541815882526,-0.024131794902699597,1.1027578106880187,0.056584371433258056,-8.782835884857178
2026-09-11T17:41:44.745,2.105383807999999,-468.3739013671875,-42153.651123046875,-168614.6044921875,-320.83612243652345,-0.07803665161132813,-0.7474672198295593,-0.5120150455832482,-1.1453450375430556,-6.470838646739524,0.0,-0.07058906555175781,-578.265625,-25.412063598632812,-0.015258789993822575,-5.493164397776127,-164.4012632444674,1,1789162904.0707822,38.99143194333333,-76.93668802666667,-9.954,0,1,8.590761,6.8958759999999995,66.19449599999999,1,1,1789162904.7413144,-0.9985774378627496,0.03612721763940538,-0.0376742976174267,-0.010889078755121519,178.90671492905776,-4.360302024073755,-4.102342697329672,-0.008702386183368927,0.01442916052501272,-0.03273888610890963,0.3537258713340759,0.7607999195480346,-10.219117867546082
2026-09-11T17:41:44.779,2.13879939200001,-468.39422607421875,-42155.48034667969,-168621.92138671875,-320.8500448608399,-0.09195907592773438,-0.6183105111122131,-0.423542700111866,-0.9474380371149462,2.6476372662334335,0.0,-0.07134246826171875,-584.4375,-25.68328857421875,0.0,0.0,164.3892980525002,1,1789162904.0707822,38.99143194333333,-76.93668802666667,-9.954,0,1,8.590761,6.8958759999999995,66.19449599999999,1,1,1789162904.7693143,-0.998513574076044,0.03615236891431269,-0.03852433653617724,-0.013398660463467705,178.62218613325078,-4.468036362369511,-4.093359753111001,-0.005508084586368905,0.03515965778142577,-0.02497758145821605,0.6831312502670288,1.1231556430244447,-9.455375952949524
2026-09-11T17:41:44.813,2.172216416000026,-468.41986083984375,-42157.78747558594,-168631.14990234375,-320.86760467529297,-0.10951889038085938,-0.7485529184341431,-0.5127587491273881,-1.1470086549914718,-2.6697784044287944,0.0,-0.07180976867675781,-588.265625,-25.851516723632812,0.0,0.0,0.0,1,1789162904.0707822,38.99143194333333,-76.93668802666667,-9.954,0,1,8.590761,6.8958759999999995,66.19449599999999,1,1,1789162904.8093145,-0.9984440998057723,0.03582697001429156,-0.03911654744197858,-0.017196031485657782,178.1871206958257,-4.550833138227791,-4.038062908774092,-0.007555879397733852,0.04625192330955053,-0.04734310315789738,-0.27076161096572876,1.1439457413673402,-9.469889795188903
2026-09-11T17:41:44.846,2.205635615999995,-468.4540100097656,-42160.860900878906,-168643.44360351562,-320.89099685668947,-0.13291107177734376,-0.9323776364326477,-0.6386786809563637,-1.4286835203927233,-3.7678918654274445,0.0,-0.07193183898925781,-589.265625,-25.895462036132812,0.0,0.0,0.0,1,1789162904.0707822,38.99143194333333,-76.93668802666667,-9.954,0,1,8.590761,6.8958759999999995,66.19449599999999,1,1,1789162904.8413143,-0.9983677080314385,0.03547664308821579,-0.03987690363280588,-0.020326335427314355,177.82902508152966,-4.649833219558097,-3.9821063392703833,0.002485348854839925,0.030486364176285752,-0.027881634800609414,0.16759565126419068,1.4404988422584533,-10.360725895881652
2026-09-11T17:41:44.879,2.2390523199999848,-468.48590087890625,-42163.73107910156,-168654.92431640625,-320.91284210205083,-0.15475631713867188,-0.9847136735916138,-0.6745288664102554,-1.5088781013114143,-1.072822306290373,0.0,-0.071502685546875,-585.75,-25.740966796875,0.0,0.0,0.0,1,1789162904.0707822,38.99143194333333,-76.93668802666667,-9.954,0,1,8.590761,6.8958759999999995,66.19449599999999,1,1,1789162904.8693814,-0.9983423696044159,0.03524259947587225,-0.039882193305649814,-0.021906229523906588,177.64652994731648,-4.656178763259011,-3.947836565470928,0.0003703588672731967,0.014849086743042557,-0.033540341301425435,0.7648206461143494,0.8106177023696899,-8.860112288131713
2026-09-11T17:41:44.913,2.272464991999982,-468.52667236328125,-42167.40051269531,-168669.60205078125,-320.94077056884765,-0.18268478393554688,-1.141588568687439,-0.7819881695508958,-1.749257716425588,-3.216124204034007,0.0,-0.06922721862792969,-567.109375,-24.921798706054688,0.1678466945886612,60.42481005191803,1808.4399251853636,1,1789162904.0707822,38.99143194333333,-76.93668802666667,-9.954,0,1,8.590761,6.8958759999999995,66.19449599999999,1,1,1789162904.9093814,-0.9984423957156879,0.03454847756384878,-0.036908000008180744,-0.02360052268349239,177.43777720080968,-4.320283998611355,-3.866896885779781,-0.003439869422755624,0.004565083191516369,-0.05186036432790911,-2.3973336985397338,1.8713049838638305,-10.118501636886597
2026-09-11T17:41:44.946,2.305883424000001,-468.5715637207031,-42171.44073486328,-168685.76293945312,-320.9715211486817,-0.21343536376953126,-1.3760488033294678,-0.9425934302806855,-2.1085214528469143,-4.80588858058027,0.0,-0.06495094299316406,-532.078125,-23.382339477539062,0.1068115383386612,38.45215380191803,-657.5011134570133,1,1789162904.0707822,38.99143194333333,-76.93668802666667,-9.954,0,1,8.590761,6.8958759999999995,66.19449599999999,1,1,1789162904.9413815,-0.9983512494973455,0.03421528292807316,-0.038503700613576324,-0.025329075788523805,177.24366165258965,-4.5088866652057815,-3.8171893549044857,-0.011402759602054552,0.019961330655059145,-0.03357699321571731,0.43884759473800655,1.5330736197853088,-10.351017312221527
2026-09-11T17:41:44.980,2.339305216000014,-468.62078857421875,-42175.87097167969,-168703.48388671875,-321.00524017333987,-0.2471543884277344,-1.4546878337860107,-0.9964611661434174,-2.2290201461690593,-1.6117548652900233,0.0,-0.06151390075683594,-503.921875,-22.145004272460938,0.1373291164636612,49.43848192691803,328.71750638014214,1,1789162904.0707822,38.99143194333333,-76.93668802666667,-9.954,0,1,8.590761,6.8958759999999995,66.19449599999999,1,1,1789162904.9693813,-0.9983109475210056,0.034044514582989606,-0.03878245894828367,-0.02668602563974921,177.08806210859942,-4.545510608148899,-3.790707204012857,0.0008705702308947716,0.023941728547157416,-0.026260398458431884,1.5179713785362245,0.9063306079483032,-8.739686624145508
2026-09-11T17:41:45.013,2.372724575999996,-468.6731262207031,-42180.58135986328,-168722.32543945312,-321.0410914611817,-0.28300567626953127,-1.5321818590164185,-1.0495445734262467,-2.347764346425925,-1.5884028683630602,0.0,-0.0587158203125,-481.0,-21.1376953125,0.0762939602136612,27.46582567691803,-657.4828557462425,1,1789162904.0707822,38.99143194333333,-76.93668802666667,-9.954,0,1,8.590761,6.8958759999999995,66.19449599999999,1,1,1789162905.0093815,-0.9983260979602433,0.03338169436315309,-0.03798479749023485,-0.028068127343048383,176.92353682586116,-4.457313610244367,-3.7104916337149936,-0.002453932928304027,0.03262893036603399,-0.029352074695414638,2.6766270951461792,1.357240382385254,-11.243716676445006
2026-09-11T17:41:45.047,2.406144127999994,-468.7294616699219,-42185.65155029297,-168742.60620117188,-321.0796812438965,-0.321595458984375,-1.6622830629348755,-1.1386638981103898,-2.547118598135264,-2.6666822069951253,0.0,-0.057952880859375,-474.75,-20.863037109375,0.0,0.0,-821.8490085360706,1,1789162904.0707822,38.99143194333333,-76.93668802666667,-9.954,0,1,8.590761,6.8958759999999995,66.19449599999999,1,1,1789162905.0413814,-0.9981358028962245,0.03320808057071599,-0.041157432412000296,-0.03046650814861698,176.6581720087973,-4.829154056809241,-3.6701114804267108,-0.012885416801623736,0.07357924153972654,-0.043544568573856926,0.35470653635025023,1.699198273525238,-9.570211826343536
2026-09-11T17:41:45.080,2.439563296000017,-468.79034423828125,-42191.13098144531,-168764.52392578125,-321.12138580322267,-0.3633000183105469,-1.8188661336898804,-1.2459233015775681,-2.787051050415101,-3.2095174681519363,0.0,-0.057708740234375,-472.75,-20.775146484375,0.015258789993822575,5.493164397776127,164.37166831239878,1,1789162905.0710382,38.991433315,-76.93668723333333,-9.969000000000001,0,1,12.089528999999999,16.875663999999997,168.4804,1,1,1789162905.0693815,-0.9979563794430709,0.03287220634631728,-0.0439249341580307,-0.03275794465492877,176.40245081723418,-5.153481354107383,-3.6112734948472442,-0.007542789428343894,0.10128791421146333,-0.05322346647371668,0.16288845918655395,1.4026451726341247,-8.297897034358979
2026-09-11T17:41:45.114,2.4729823680000322,-468.8560791015625,-42197.047119140625,-168788.1884765625,-321.1664141845703,-0.40832839965820317,-1.9494863748550415,-1.3353981667757036,-2.9872006236034854,-2.677359359293246,0.0,-0.05764961242675781,-472.265625,-20.753860473632812,0.0,0.0,-164.37214048833064,1,1789162905.0710382,38.991433315,-76.93668723333333,-9.969000000000001,0,1,12.089528999999999,16.875663999999997,168.4804,1,1,1789162905.1093814,-0.9978978998545821,0.03200719521363359,-0.04402520034663798,-0.03517247012663536,176.12074289079453,-5.170329658767788,-3.4990046332766935,0.008598888158725664,0.10553604561081753,-0.055563429401865476,-0.2836083226776123,1.8547317450904846,-10.967757540893555
2026-09-11T17:41:45.147,2.5064136959999814,-468.9241943359375,-42203.177490234375,-168812.7099609375,-321.2130731201172,-0.45498733520507817,-2.1064510345458984,-1.4429189586639406,-3.227717785128711,-3.216168735157648,0.0,-0.05777168273925781,-473.265625,-20.797805786132812,0.0,0.0,0.0,1,1789162905.0710382,38.991433315,-76.93668723333333,-9.969000000000001,0,1,12.089528999999999,16.875663999999997,168.4804,1,1,1789162905.1413815,-0.997662820925158,0.03128701240756681,-0.047361070425729644,-0.038038764522448164,175.79754874384082,-5.559592463243117,-3.388309029666362,0.008204618280700144,0.11243288868299832,-0.06367589429806032,0.8395473203468323,1.6706609215545656,-9.596885914783478
2026-09-11T17:41:45.180,2.5398566399999822,-468.999267578125,-42209.93408203125,-168839.736328125,-321.2644982910156,-0.5064125061035156,-2.2108635902404785,-1.5144415593147278,-3.3877092862265705,-2.1386454688554175,0.0,-0.05789375305175781,-474.265625,-20.841751098632812,0.0,0.0,0.0,1,1789162905.0710382,38.991433315,-76.93668723333333,-9.969000000000001,0,1,12.089528999999999,16.875663999999997,168.4804,1,1,1789162905.1693814,-0.9976009486695685,0.030865507412748266,-0.04900500264860465,-0.03792330920609242,175.8133206791658,-5.74584562381944,-3.334103900329063,-0.0030052824390090363,0.12162396705692566,-0.07015839620581765,0.2817450591468811,0.8990736868286132,-10.430745378036498
2026-09-11T17:41:45.214,2.5732757119999974,-469.07568359375,-42216.8115234375,-168867.24609375,-321.31684326171876,-0.5587574768066407,-2.289433240890503,-1.5682617700099946,-3.508101668776827,-1.6104639499038864,0.0,-0.057933807373046875,-474.59375,-20.856170654296875,0.0,0.0,0.0,1,1789162905.0710382,38.991433315,-76.93668723333333,-9.969000000000001,0,1,12.089528999999999,16.875663999999997,168.4804,1,1,1789162905.2093813,-0.9975840517370623,0.029976696837563075,-0.049485088763370134,-0.03845365205875846,175.7485305820724,-5.798859733450543,-3.2269332998275124,-0.04969667965421174,0.10727474261165428,-0.07005856337260358,0.014906108245849611,1.06912100063324,-12.812290369815825
2026-09-11T17:41:45.247,2.606694080000011,-469.1548156738281,-42223.93341064453,-168895.73364257812,-321.3710487365723,-0.6129629516601564,-2.368140935897827,-1.6221765410900117,-3.628705576883523,-1.6133274694920774,0.0,-0.057464599609375,-470.75,-20.687255859375,0.0,0.0,0.0,1,1789162905.0710382,38.991433315,-76.93668723333333,-9.969000000000001,0,1,12.089528999999999,16.875663999999997,168.4804,1,1,1789162905.2413814,-0.9976948284155515,0.02920746926722424,-0.04926991045600634,-0.03639270552630724,175.9806150869899,-5.764424535802646,-3.151259606111856,0.018676942858516517,0.07139164585527685,-0.0550002116522469,-1.1582634506034852,0.1770100354194641,-9.029080870418548
2026-09-11T17:41:45.281,2.640113824000025,-469.2366943359375,-42231.302490234375,-168925.2099609375,-321.4271356201172,-0.6690498352050782,-2.4467058181762695,-1.6759934854507448,-3.749090652851519,-1.6103338302265462,0.0,-0.05541801452636719,-453.984375,-19.950485229492188,0.1678466945886612,60.42481005191803,1808.0572386159777,1,1789162905.0710382,38.991433315,-76.93668723333333,-9.969000000000001,0,1,12.089528999999999,16.875663999999997,168.4804,1,1,1789162905.2693815,-0.997642714860025,0.028568365891635333,-0.0509322593010455,-0.036038408947834964,176.02215723444337,-5.951323346269994,-3.073673903373247,0.0972315944969033,0.12487673718386749,-0.0803060895427631,0.4521846389579773,0.9940020603942872,-13.187787004508973
2026-09-11T17:41:45.314,2.673530496000012,-469.3216552734375,-42238.948974609375,-168955.7958984375,-321.4853338623047,-0.7272480773925781,-2.524846315383911,-1.7295197260379793,-3.868825442998339,-1.6017825050697807,0.0,-0.04801750183105469,-393.359375,-17.286300659179688,0.2746582329273224,98.87696385383606,1150.6877106712743,1,1789162905.0710382,38.991433315,-76.93668723333333,-9.969000000000001,0,1,12.089528999999999,16.875663999999997,168.4804,1,1,1789162905.3093815,-0.997704826298505,0.02772165085929032,-0.052013649271619854,-0.0333342158113037,176.33115682796338,-6.063850616969569,-2.988763847459113,0.029881258524619318,0.06286396713003256,-0.05205427040780568,2.356930299873352,0.9604633168411255,-9.60286797138214
2026-09-11T17:41:45.347,2.706951103999984,-469.4075012207031,-42246.67510986328,-168986.70043945312,-321.5441383361817,-0.7860525512695313,-2.551187038421631,-1.7475631213188172,-3.909187368733928,-0.5398883012796519,0.0,-0.04048347473144531,-331.640625,-14.574050903320312,0.04577639698982239,16.47950291633606,-2465.4686395163653,1,1789162905.0710382,38.991433315,-76.93668723333333,-9.969000000000001,0,1,12.089528999999999,16.875663999999997,168.4804,1,1,1789162905.3413815,-0.9976560098282111,0.026760331247636045,-0.05370186050544841,-0.03290107754196776,176.37939602002692,-6.252650239329762,-2.8751570048424098,-0.059342765364134,0.011145672603235788,-0.06583469204985211,2.113136976852417,2.327118083381653,-4.814771029911041
2026-09-11T17:41:45.381,2.740417567999998,-469.4984436035156,-42254.859924316406,-169019.43969726562,-321.6064338684082,-0.8483480834960938,-2.708120822906494,-1.8550627636909487,-4.1496572201390185,-3.2121601604545353,0.0,-0.039520263671875,-323.75,-14.227294921875,0.0,0.0,-492.41840776274046,1,1789162905.0710382,38.991433315,-76.93668723333333,-9.969000000000001,0,1,12.089528999999999,16.875663999999997,168.4804,1,1,1789162905.3693814,-0.9976784306667345,0.026308931604581618,-0.052123572877534954,-0.03505313467676665,176.12496690204566,-6.076114956724227,-2.815355500487273,-0.04637217649501294,0.012326213309284753,-0.040698460162629777,0.24997151262283324,0.9822340802001953,-9.32455523979187
2026-09-11T17:41:45.414,2.7738333760000273,-469.5912780761719,-42263.21502685547,-169052.86010742188,-321.6700254821778,-0.9119396972656251,-2.760382652282715,-1.89086211681366,-4.2297380923712815,-1.0713298664715758,0.0,-0.037563323974609375,-307.71875,-13.522796630859375,0.0915527418255806,32.958987057209015,986.3291965640967,1,1789162905.0710382,38.991433315,-76.93668723333333,-9.969000000000001,0,1,12.089528999999999,16.875663999999997,168.4804,1,1,1789162905.4093814,-0.9975976236522861,0.025860184309330292,-0.053097785789695894,-0.03620576328474187,175.99182785276506,-6.189261350478776,-2.7530437000879773,-0.06733759506874443,-0.10191553461048049,-0.03400599514585752,-1.902097865371704,-0.2552671037101746,-11.10465837715149
2026-09-11T17:41:45.448,2.807253504000016,-469.6845397949219,-42271.60858154297,-169086.43432617188,-321.7339097595215,-0.9758239746093751,-2.813842296600342,-1.9274819731712343,-4.311654378067359,-1.095742552439853,0.0,-0.03445625305175781,-282.265625,-12.404251098632812,0.1525879055261612,54.93164598941803,657.4678269399913,1,1789162905.0710382,38.991433315,-76.93668723333333,-9.969000000000001,0,1,12.089528999999999,16.875663999999997,168.4804,1,1,1789162905.4413815,-0.9978926359590258,0.025529844833544448,-0.048101333031426344,-0.03528138152230059,176.08448862322757,-5.612578645551116,-2.739037632342952,-0.04094699504811376,-0.16471981148009482,-0.03413113525322551,-2.5033435867881773,0.43031580909729006,-11.55635268360138
2026-09-11T17:41:45.481,2.8406767679999803,-469.775634765625,-42279.80712890625,-169119.228515625,-321.79630981445314,-1.0382240295410157,-2.7372055053710938,-1.8749857711791993,-4.194223718636358,1.5706485755577724,0.0,-0.02552032470703125,-209.0625,-9.18731689453125,0.1678467094898224,60.42481541633606,164.3516751363341,1,1789162905.0710382,38.991433315,-76.93668723333333,-9.969000000000001,0,1,12.089528999999999,16.875663999999997,168.4804,1,1,1789162905.4693813,-0.9980873069946591,0.02566202739768919,-0.044784322500357264,-0.034022822107713575,176.22197311924813,-5.229396182405776,-2.7730453035436526,-0.02818462395875563,-0.2911467501055837,-0.008437968801691786,-2.2733776404953003,0.4372785307121277,-6.712161703205108
2026-09-11T17:41:45.515,2.87409439999999,-469.8681335449219,-42288.13201904297,-169152.52807617188,-321.85967147827154,-1.101585693359375,-2.791051149368286,-1.9118700373172761,-4.276731472166414,-1.1037366782322018,0.0,-0.02117156982421875,-173.4375,-7.62176513671875,0.0,0.0,-1808.1716686663658,1,1789162905.0710382,38.991433315,-76.93668723333333,-9.969000000000001,0,1,12.089528999999999,16.875663999999997,168.4804,1,1,1789162905.5093815,-0.998298656153529,0.026151441956444785,-0.04162999628012555,-0.03135025702244768,176.5237575577778,-4.862111806088305,-2.8535247927129084,-0.01195480724446036,-0.16381293840075858,0.03778288764717325,1.566023964328766,-1.3665567000389098,-12.134846976642608
2026-09-11T17:41:45.548,2.907512543999985,-469.9593811035156,-42296.344299316406,-169185.37719726562,-321.9221760559082,-1.1640902709960939,-2.766348123550415,-1.8949484646320345,-4.2388789921081615,0.5063588416293874,0.0,-0.024623870849609375,-201.71875,-8.864593505859375,-0.3814697563648224,-137.32911229133606,-4109.417695110648,1,1789162905.0710382,38.991433315,-76.93668723333333,-9.969000000000001,0,1,12.089528999999999,16.875663999999997,168.4804,1,1,1789162905.5413814,-0.9984899453614171,0.02622312409280251,-0.03604190520506897,-0.03211164655006689,176.42209899336083,-4.224181002080027,-2.8768070035447937,-0.0730399348008603,-0.14417693711827118,-0.02590365315932424,-3.224328506679535,0.5210273230934143,-11.363455874919891
2026-09-11T17:41:45.581,2.9409304640000187,-470.052978515625,-42304.76806640625,-169219.072265625,-321.9862902832032,-1.2282044982910156,-2.8198764324188232,-1.931615356206894,-4.320900492588788,-1.0972224355921256,0.0,-0.033977508544921875,-278.34375,-12.231903076171875,-0.1678467094898224,-60.42481541633606,2301.2891548882417,1,1789162905.0710382,38.991433315,-76.93668723333333,-9.969000000000001,0,1,12.089528999999999,16.875663999999997,168.4804,1,1,1789162905.5693815,-0.9985773617806526,0.025994681782230716,-0.03469808757956246,-0.0310414525522421,176.54052454453176,-4.066329499030625,-2.859491555647796,-0.03147282426951295,-0.08001304876135325,-0.038116420067229366,3.2117759944725037,-0.6600856223869324,-9.512352590389252
2026-09-11T17:41:45.615,2.9743496639999876,-470.14471435546875,-42313.02429199219,-169252.09716796875,-322.0491293334961,-1.2910435485839844,-2.7690818309783936,-1.8968210542201998,-4.243067855718051,1.0411470647629715,0.0,-0.03545570373535156,-290.453125,-12.764053344726562,-0.2593994438648224,-93.38379979133606,-986.229005333182,1,1789162905.0710382,38.991433315,-76.93668723333333,-9.969000000000001,0,1,12.089528999999999,16.875663999999997,168.4804,1,1,1789162905.6093814,-0.9986795130658919,0.025463301619352962,-0.032817816311035496,-0.030229809554311756,176.62670771234605,-3.846775114508832,-2.807789852669279,-0.045914027566364424,-0.035245877046474285,-0.08947727116321769,-1.2753548535346986,0.43894566123962403,-8.586800948123932
2026-09-11T17:41:45.648,3.0077716160000136,-470.2360534667969,-42321.24481201172,-169284.97924804688,-322.1116966247559,-1.35361083984375,-2.7702479362487793,-1.897619836330414,-4.2448546804098335,-0.023899923924658905,0.0,-0.04331016540527344,-354.796875,-15.591659545898438,-0.18310552835464478,-65.91799020767212,821.7895107874764,1,1789162905.0710382,38.991433315,-76.93668723333333,-9.969000000000001,0,1,12.089528999999999,16.875663999999997,168.4804,1,1,1789162905.6413815,-0.9987465515993292,0.024566527829226154,-0.03259020979058697,-0.028977398169431207,176.76646726781925,-3.814273338707552,-2.7103824142844584,0.0064512605141466405,-0.08303142116975223,-0.106129806622346,1.5616109717559814,-2.861188251190186,-16.46154102800369
2026-09-11T17:41:45.682,3.041193663999991,-470.3275146484375,-42329.476318359375,-169317.9052734375,-322.17434753417973,-1.4162617492675782,-2.7455294132232666,-1.8806876480579378,-4.206978453959233,0.5066173165835856,0.0,-0.04985237121582031,-408.390625,-17.946853637695312,-0.0152588477358222,-5.493185184895992,1807.932446952904,1,1789162905.0710382,38.991433315,-76.93668723333333,-9.969000000000001,0,1,12.089528999999999,16.875663999999997,168.4804,1,1,1789162905.6693814,-0.9987954174511806,0.02373880982701598,-0.03240921601476567,-0.028174912667599222,176.8549945223571,-3.7887528366866627,-2.618987650354583,-0.01043165840624491,-0.012595517612867478,-0.04708968135050781,-0.14964948146820067,-1.3245842373466492,-8.792152202510833
2026-09-11T17:41:45.715,3.0746079360000067,-470.41748046875,-42337.5732421875,-169350.29296875,-322.23597412109376,-1.4778883361816408,-2.6939728260040283,-1.8453713858127596,-4.127978225243284,1.0569214928627306,0.0,-0.05499458312988281,-450.515625,-19.798049926757812,-0.1678466945886612,-60.42481005191803,-1643.9569554888371,1,1789162905.0710382,38.991433315,-76.93668723333333,-9.969000000000001,0,1,12.089528999999999,16.875663999999997,168.4804,1,1,1789162905.7093813,-0.9988721345498568,0.02188631788429023,-0.030939346294798165,-0.02860427870321556,176.79543824875788,-3.6155273835640145,-2.4092490472794,-0.028700717818570354,0.0005120796025351363,-0.07681281304489644,-1.4234352709770204,1.5936787177848815,-8.119514067916871
2026-09-11T17:41:45.748,3.1080271360000324,-470.50921630859375,-42345.82946777344,-169383.31787109375,-322.29881317138677,-1.5407273864746094,-2.745805501937866,-1.8808767688274386,-4.207401505072111,-1.0624246844523997,0.0,-0.05687141418457031,-465.890625,-20.473709106445312,-0.1068115308880806,-38.452151119709015,657.4860838138583,1,1789162905.0710382,38.991433315,-76.93668723333333,-9.969000000000001,0,1,12.089528999999999,16.875663999999997,168.4804,1,1,1789162905.7413814,-0.9989478042710717,0.020551221899997602,-0.030074220354562364,-0.02786526315122967,176.8736461694957,-3.5104441421122927,-2.2613168605078475,-0.03481879497851127,-0.05985397230204314,-0.101327009586708,0.3759869672012329,-0.09463417406082154,-8.353010408267975
2026-09-11T17:41:45.782,3.1414463039999987,-470.60076904296875,-42354.06921386719,-169416.27685546875,-322.36152679443364,-1.6034410095214846,-2.7457900047302246,-1.880866153240204,-4.2073777586797645,0.00031764965646651074,0.0,-0.056243896484375,-460.75,-20.247802734375,0.0,0.0,1150.6016882211984,1,1789162905.0710382,38.991433315,-76.93668723333333,-9.969000000000001,0,1,12.089528999999999,16.875663999999997,168.4804,1,1,1789162905.7693815,-0.999037273172699,0.01928472433478349,-0.027815126563688532,-0.02790958532898021,176.8597308728392,-3.2477254918196956,-2.1226746543537733,0.036995918687449,0.013143900063844097,-0.10028557162204298,-0.8636716797447204,1.0282272694587706,-6.739031924648285
2026-09-11T17:41:45.815,3.1748667200000114,-470.6929016113281,-42362.36114501953,-169449.44458007812,-322.4246376037598,-1.6665518188476565,-2.7722675800323486,-1.899003292322159,-4.247949383326228,-0.5426963889961166,0.0,-0.056121826171875,-459.75,-20.203857421875,0.0,0.0,0.0,1,1789162905.0710382,38.991433315,-76.93668723333333,-9.969000000000001,0,1,12.089528999999999,16.875663999999997,168.4804,1,1,1789162905.8093815,-0.9990234943049777,0.018133315715777816,-0.030191620438928035,-0.026677832428742977,177.00166380339437,-3.513963454780591,-1.987733497935723,-0.024723810584976077,0.030494741756695323,-0.07352304193781233,-1.4323593226242064,1.178465149936676,-10.151059715423584
2026-09-11T17:41:45.849,3.2082890240000097,-470.7871398925781,-42370.84259033203,-169483.37036132812,-322.48919082641606,-1.7311050415039064,-2.7987189292907715,-1.9171224665641786,-4.288480821770259,-0.5421282219807645,0.0,-0.05562782287597656,-455.703125,-20.026016235351562,0.015258789993822575,5.493164397776127,164.35624539159235,1,1789162905.0710382,38.991433315,-76.93668723333333,-9.969000000000001,0,1,12.089528999999999,16.875663999999997,168.4804,1,1,1789162905.8413815,-0.999059040822925,0.017193918482248677,-0.03130082718430295,-0.024610167305025604,177.23758405187922,-3.63436110322136,-1.884280410466828,0.01906615128171126,0.06409459878561376,-0.07709660358127071,-5.0768047222328185,0.6414529870796203,-8.278577933540344
2026-09-11T17:41:45.882,3.2417166719999955,-470.8832092285156,-42379.488830566406,-169517.95532226562,-322.5549983215332,-1.7969125366210938,-2.8517541885375977,-1.9534516191482545,-4.36974682164516,-1.0867995434225988,0.0,-0.055263519287109375,-452.71875,-19.894866943359375,-0.1373291164636612,-49.43848192691803,-1643.2997716356697,1,1789162905.0710382,38.991433315,-76.93668723333333,-9.969000000000001,0,1,12.089528999999999,16.875663999999997,168.4804,1,1,1789162905.8813815,-0.9990201731562722,0.016185978553019984,-0.03477677549614466,-0.022074501380183978,177.53057534873636,-4.025474367310981,-1.7696359624430265,0.013323145378023914,0.07064883372562807,-0.050402839869568644,1.10844566778183,-0.041482130184173585,-12.456603168449401
2026-09-11T17:41:45.915,3.275148704000003,-470.97686767578125,-42387.91809082031,-169551.67236328125,-322.6191543579102,-1.861068572998047,-2.800175428390503,-1.9181201684474947,-4.2907126173217,1.0568143360460998,0.0,-0.054656982421875,-447.75,-19.676513671875,0.0,0.0,1478.7758616319531,1,1789162905.0710382,38.991433315,-76.93668723333333,-9.969000000000001,0,1,12.089528999999999,16.875663999999997,168.4804,1,1,1789162905.9093814,-0.9990082244540206,0.015696077760371706,-0.035615728232633835,-0.021626847172544057,177.5812976162784,-4.119661752002749,-1.7132707650646954,0.06560203966056126,0.026007849315668304,-0.052238926242666676,0.20162472732543943,1.9254376927566528,-10.540187593841553
2026-09-11T17:41:45.949,3.308565664000014,-471.0744323730469,-42396.69891357422,-169586.79565429688,-322.68598617553715,-1.927900390625,-2.905991315841675,-1.9906040513515475,-4.452854445578796,-2.1690747124821983,0.0,-0.05154991149902344,-422.296875,-18.557968139648438,0.1983642876148224,71.41114354133606,2136.973068205866,1,1789162905.0710382,38.991433315,-76.93668723333333,-9.969000000000001,0,1,12.089528999999999,16.875663999999997,168.4804,1,1,1789162905.9413815,-0.9989636547551075,0.014550377639106386,-0.03713392681834594,-0.021931130110583917,177.54376079870738,-4.2914028025581885,-1.5769200168126982,-0.016727759149889252,-0.010983880581575914,-0.023810828853257842,4.649430908184051,2.966511673927307,-10.29364840877533
2026-09-11T17:41:45.983,3.3419865600000094,-471.1748962402344,-42405.740661621094,-169622.96264648438,-322.7548039245606,-1.9967181396484377,-3.0104193687438965,-2.062137267589569,-4.612869693069002,-2.140373981536315,0.0,-0.046421051025390625,-380.28125,-16.711578369140625,0.10681155323982239,38.45215916633606,-986.1789574703324,1,1789162905.0710382,38.991433315,-76.93668723333333,-9.969000000000001,0,1,12.089528999999999,16.875663999999997,168.4804,1,1,1789162905.9813814,-0.9989502826779137,0.013443070138211314,-0.03740801822331901,-0.02276525369019583,177.44354485196965,-4.321308057782939,-1.4455210593753218,0.01312417784329656,-0.06755419042891692,-0.07178975545765676,3.6243417667770386,0.9460475411033631,-10.371611277561188
2026-09-11T17:41:46.016,3.3754049600000258,-471.27618408203125,-42414.85656738281,-169659.42626953125,-322.82418609619145,-2.066100311279297,-3.0367910861968994,-2.080201894044876,-4.653279111589285,-0.5405592863601544,0.0,-0.04625129699707031,-378.890625,-16.650466918945312,-0.0610351599752903,-21.972657591104507,-1808.1301545678707,1,1789162905.0710382,38.991433315,-76.93668723333333,-9.969000000000001,0,1,12.089528999999999,16.875663999999997,168.4804,1,1,1789162906.0093815,-0.9989060919200389,0.012546944364248892,-0.038373579262996164,-0.023593688281012618,177.3456129316276,-4.430815371326803,-1.3365682693400125,-0.06373174483412414,-0.009162105908344233,-0.121453622921931,-3.75143595287323,2.9355226594161987,-8.282402527103425
2026-09-11T17:41:46.049,3.4088312960000167,-471.3821105957031,-42424.38995361328,-169697.55981445312,-322.8967457580567,-2.1386599731445313,-3.1676764488220215,-2.169858367443085,-4.853834930751348,-2.6822106197410696,0.0,-0.045867919921875,-375.75,-16.512451171875,0.0,0.0,657.345680696517,1,1789162905.0710382,38.991433315,-76.93668723333333,-9.969000000000001,0,1,12.089528999999999,16.875663999999997,168.4804,1,1,1789162906.0413814,-0.9987839383800611,0.011777695604284011,-0.04093716732403454,-0.02482093172609233,177.20383388723957,-4.72419922082977,-1.2358409817676954,-0.09123481771997598,-0.08875679924799444,-0.0488775966362508,6.1290582845878605,1.6354550474739076,-8.608375578479766
2026-09-11T17:41:46.083,3.4422509440000226,-471.4918518066406,-42434.266662597656,-169737.06665039062,-322.97191848754886,-2.213832702636719,-3.298577308654785,-2.259525456428528,-5.054414496305756,-2.6830650336420945,0.0,-0.04641914367675781,-380.265625,-16.710891723632812,0.0,0.0,0.0,1,1789162906.0727923,38.991440866666665,-76.93668203333333,-9.993000000000002,0,1,10.989225,6.937956,66.35731600000001,1,1,1789162906.0813816,-0.9987477622137095,0.010247253159109718,-0.041719565914138605,-0.02563940513616232,177.10317527847496,-4.810480126545647,-1.053975535373082,-0.005986130268490151,0.05676788111866676,-0.07313837137067278,-4.7185677918243405,0.5610384557533263,-10.734555400047302
2026-09-11T17:41:46.116,3.475670560000026,-471.6068420410156,-42444.615783691406,-169778.46313476562,-323.05068679809574,-2.292601013183594,-3.429382562637329,-2.3491270554065706,-5.254847564885845,-2.681107974969966,0.0,-0.045562744140625,-373.25,-16.402587890625,-0.0457763709127903,-16.479493528604507,-493.1084046149086,1,1789162906.0727923,38.991440866666665,-76.93668203333333,-9.993000000000002,0,1,10.989225,6.937956,66.35731600000001,1,1,1789162906.1093814,-0.9987683531037291,0.008981276386919595,-0.041638039459750746,-0.02544380441040014,177.11949891128396,-4.79728063811148,-0.9097341726186295,0.1156978761147041,0.10515172410952837,-0.10398916029477495,2.235131704864502,0.9301607678413392,-15.036340559997559
2026-09-11T17:41:46.149,3.509089920000008,-471.7276306152344,-42455.486755371094,-169821.94702148438,-323.1334269714356,-2.3753411865234377,-3.587073564529419,-2.4571453917026522,-5.496477701553887,-3.2322084054314426,0.0,-0.045093536376953125,-369.40625,-16.233673095703125,0.0762939527630806,27.465822994709015,1314.9658318811914,1,1789162906.0727923,38.991440866666665,-76.93668203333333,-9.993000000000002,0,1,10.989225,6.937956,66.35731600000001,1,1,1789162906.1413815,-0.9986640788365643,0.007377962674716633,-0.0434144737876535,-0.027033438072653054,176.9299052892697,-4.997475778938507,-0.7125603354402339,-0.002811376359112466,0.13159608027112046,-0.12123702756175851,2.036350906085968,0.8211108180427551,-10.021317733783722
2026-09-11T17:41:46.183,3.542508288000022,-471.8538818359375,-42466.849365234375,-169867.3974609375,-323.2199090576172,-2.4618232727050784,-3.7442727088928223,-2.5648268055915833,-5.737354164261768,-3.222222398439288,0.0,-0.041790008544921875,-342.34375,-15.044403076171875,0.3051758110523224,109.86329197883606,2465.6341382108535,1,1789162906.0727923,38.991440866666665,-76.93668203333333,-9.993000000000002,0,1,10.989225,6.937956,66.35731600000001,1,1,1789162906.1813815,-0.9985244035822515,0.005949842303445165,-0.04529020751917996,-0.02936685087207405,176.65494250710066,-5.209414179005545,-0.530584476590056,-0.011195938085693226,0.12239924231066153,-0.08385329671451636,0.8962297582817077,2.191492111644745,-12.140338700733185
2026-09-11T17:41:46.216,3.5759586880000143,-471.981689453125,-42478.35205078125,-169913.408203125,-323.3074572753907,-2.549371490478516,-3.771772861480713,-2.5836644101142885,-5.779492685473975,-0.5631503516463024,0.0,-0.03607940673828125,-295.5625,-12.98858642578125,0.0,0.0,-3284.3640727423553,1,1789162906.0727923,38.991440866666665,-76.93668203333333,-9.993000000000002,0,1,10.989225,6.937956,66.35731600000001,1,1,1789162906.2093813,-0.9984989465189315,0.005279445985963798,-0.04623511647742426,-0.028884169626013558,176.70709343612984,-5.315296383282403,-0.4529916198211104,-0.08466539841546933,0.06819141013882005,-0.05889631014147385,-2.7168343608093264,0.7252998459625244,-1.5152255164909363
2026-09-11T17:41:46.249,3.6093733760000077,-472.1106262207031,-42489.95635986328,-169959.82543945312,-323.3957789611817,-2.6376931762695315,-3.877896547317505,-2.656359134912491,-5.942106153615981,-2.1755320533957043,0.0,-0.035671234130859375,-292.21875,-12.841644287109375,0.0762939527630806,27.465822994709015,821.9685604939474,1,1789162906.0727923,38.991440866666665,-76.93668203333333,-9.993000000000002,0,1,10.989225,6.937956,66.35731600000001,1,1,1789162906.2413814,-0.9984222106000326,0.004541042789680179,-0.048836876033573784,-0.02733912672723873,176.88104787354524,-5.610652949202644,-0.3683133876141217,0.028139943529904576,0.17566337495594966,-0.053531342553768485,-2.913948029060364,-1.3691064290809634,-15.340738981018065
2026-09-11T17:41:46.283,3.642788256000017,-472.23822021484375,-42501.43981933594,-170005.75927734375,-323.483180847168,-2.7250950622558596,-3.801180839538574,-2.6038088750839234,-5.824554570248569,1.5726604383601834,0.0,-0.03290557861328125,-269.5625,-11.84600830078125,0.0762939602136612,27.46582567691803,8.02698981678769e-05,1,1789162906.0727923,38.991440866666665,-76.93668203333333,-9.993000000000002,0,1,10.989225,6.937956,66.35731600000001,1,1,1789162906.2813814,-0.9984578584826611,0.004035968991556927,-0.04937139669672806,-0.02506154378188855,177.14024984262647,-5.669659543567115,-0.32156269403539667,0.02569700617588811,0.19340796292805082,-0.03765704940810445,-2.9366013909339905,-0.09090764699935913,-6.930850001811981
2026-09-11T17:41:46.316,3.676209408000034,-472.3623962402344,-42512.615661621094,-170050.46264648438,-323.5682414245606,-2.8101556396484377,-3.644639730453491,-2.4965782153606417,-5.584686415892625,3.208466893158802,0.0,-0.029508590698242188,-241.734375,-10.623092651367188,0.1220703274011612,43.94531786441803,493.0857017583283,1,1789162906.0727923,38.991440866666665,-76.93668203333333,-9.993000000000002,0,1,10.989225,6.937956,66.35731600000001,1,1,1789162906.3093815,-0.9983608124507857,0.004375191334013598,-0.05206997936553259,-0.02335086962557751,177.33925158430625,-5.979555232235766,-0.36318714108484185,0.14310355962829466,0.06403560665689635,0.06912673208496381,3.5668747968292234,-2.3863502503585816,-11.784749565868378
2026-09-11T17:41:46.350,3.709623583999985,-472.48187255859375,-42523.36853027344,-170093.47412109375,-323.6500827026367,-2.8919969177246094,-3.591704845428467,-2.4603178191185,-5.503574219574305,1.0851800218624208,0.0,-0.024232864379882812,-198.515625,-8.723831176757812,0.3814697563648224,137.32911229133606,2794.735815931976,1,1789162906.0727923,38.991440866666665,-76.93668203333333,-9.993000000000002,0,1,10.989225,6.937956,66.35731600000001,1,1,1789162906.3413815,-0.998199978352565,0.004514183787544296,-0.054982508501013314,-0.02352337392057261,177.3204887904364,-6.314131256759406,-0.37039591166888175,-0.0763948066890438,0.1558027497987306,0.04615540660191524,2.6353410979652407,-1.9367153404426574,-5.233514991817474
2026-09-11T17:41:46.383,3.7430439359999923,-472.5989074707031,-42533.90167236328,-170135.60668945312,-323.7302516174317,-2.9721658325195315,-3.5392847061157227,-2.42441002368927,-5.423250768810996,1.0744290015024986,0.0,-0.017137527465820312,-140.390625,-6.1695098876953125,0.3662109673023224,131.83594822883606,-164.3658350007441,1,1789162906.0727923,38.991440866666665,-76.93668203333333,-9.993000000000002,0,1,10.989225,6.937956,66.35731600000001,1,1,1789162906.3813815,-0.9981514037041662,0.005338724348275874,-0.05602827203456841,-0.02293700151623956,177.39342754920852,-6.436057224003162,-0.46632193258666055,-0.09059183842354127,0.10866681722304494,0.06642182081022299,2.0291920514678954,-0.7566811264801026,-7.77853684179306
2026-09-11T17:41:46.417,3.7764580799999976,-472.7159729003906,-42544.437561035156,-170177.75024414062,-323.8104414367676,-3.052355651855469,-3.5408787727355957,-2.425501959323883,-5.425693359260649,-0.03267884506072935,0.0,-0.0066585540771484375,-54.546875,-2.3970794677734375,0.2746582329273224,98.87696385383606,-986.3782347677309,1,1789162906.0727923,38.991440866666665,-76.93668203333333,-9.993000000000002,0,1,10.989225,6.937956,66.35731600000001,1,1,1789162906.4093814,-0.9980599385566932,0.006375356456715505,-0.05769116762264615,-0.02252649676703443,177.44790655398307,-6.629333885003734,-0.5841395444600619,-0.02065021211082131,0.12002873612060283,0.06445919806635537,4.523807719612122,1.261625543308258,-14.574153137874603
2026-09-11T17:41:46.450,3.809873952000032,-472.8404541015625,-42555.640869140625,-170222.5634765625,-323.8957110595703,-3.137625274658203,-3.697611093521118,-2.532863599061966,-5.6658545075652365,-3.21289355363738,0.0,0.00528907822445035,43.328128814697266,1.904068160802126,0.3356933891773224,120.84962010383606,657.5514848146788,1,1789162906.0727923,38.991440866666665,-76.93668203333333,-9.993000000000002,0,1,10.989225,6.937956,66.35731600000001,1,1,1789162906.4413815,-0.9981264120522434,0.007578860168974531,-0.05622335911107101,-0.02291637695015832,177.410385185657,-6.464258764713975,-0.7238233844553773,0.07925295787210972,0.07896393134797945,0.08620879307300791,-4.119577599945068,2.335355669517517,-8.820297288475036
2026-09-11T17:41:46.483,3.843288608000023,-472.9678649902344,-42567.107849121094,-170268.43139648438,-323.98298751831055,-3.2249017333984376,-3.802293062210083,-2.604570747613907,-5.82625883056081,-2.1459789546228043,0.0,0.013483048416674137,110.45313262939453,4.853897430002689,0.1831054985523224,65.91797947883606,-1643.9385347859059,1,1789162906.0727923,38.991440866666665,-76.93668203333333,-9.993000000000002,0,1,10.989225,6.937956,66.35731600000001,1,1,1789162906.4813814,-0.997969755818135,0.009927781483574562,-0.05711382539096445,-0.026378335359095843,177.02749670890324,-6.575911182834553,-0.9691120278781091,0.028964786134397093,-0.016461770971885316,0.12000918843298049,-0.39520800151824953,2.4816708899307254,-9.189125401058197
2026-09-11T17:41:46.517,3.8767038720000073,-473.0978088378906,-42578.802795410156,-170315.21118164062,-324.0719990539551,-3.313913269042969,-3.8553545475006104,-2.640917865037918,-5.907565016638142,-1.0877399449553407,0.0,0.025823595002293587,211.54689025878906,9.296494200825691,0.5645752549171448,203.24709177017212,4109.771878247037,1,1789162906.0727923,38.991440866666665,-76.93668203333333,-9.993000000000002,0,1,10.989225,6.937956,66.35731600000001,1,1,1789162906.5093815,-0.9980437173985215,0.012169264834630362,-0.05511794834523935,-0.026882316212263946,176.98247777753255,-6.354200150633169,-1.2296246597187257,0.006424382443665927,0.005122890420453756,0.15948452185581266,-1.270059262447357,0.15690640258789063,-11.427297167472839
2026-09-11T17:41:46.550,3.910119296000005,-473.2299499511719,-42590.69549560547,-170362.78198242188,-324.1625157165528,-3.4044299316406255,-3.9342164993286133,-2.6949383020401,-6.0284052926809615,-1.616631798602524,0.0,0.03867531195282936,316.8281555175781,13.92311230301857,-0.1068115308880806,-38.452151119709015,-7233.164028979521,1,1789162906.0727923,38.991440866666665,-76.93668203333333,-9.993000000000002,0,1,10.989225,6.937956,66.35731600000001,1,1,1789162906.5413814,-0.9979559676135296,0.015293274736472939,-0.05569647437558903,-0.027347855391385574,176.9495540403706,-6.430719689099026,-1.5845251098363193,0.01750984118770791,-0.056018087672010004,0.19644658115577293,4.399753595066071,2.940720184001923,-7.2233823761367795
2026-09-11T17:41:46.584,3.9435393279999857,-473.36199951171875,-42602.57995605469,-170410.31982421875,-324.25296966552736,-3.4948838806152347,-3.9614734649658203,-2.7136093235015872,-6.070171178197889,-0.5586775458951628,0.0,0.04093552008271217,335.3437805175781,14.736787229776382,0.1220703274011612,43.94531786441803,2465.5113730643393,1,1789162906.0727923,38.991440866666665,-76.93668203333333,-9.993000000000002,0,1,10.989225,6.937956,66.35731600000001,1,1,1789162906.5813816,-0.998012098575406,0.019568055752928235,-0.05425407300627295,-0.025405468966238718,177.19829960174636,-6.274199388751272,-2.092927881964983,0.04276789705671945,-0.12079057233909836,0.2167826340012353,3.0629110450172425,0.24379332302093507,-9.94884658908844
2026-09-11T17:41:46.617,3.976957184000014,-473.49285888671875,-42614.35729980469,-170457.42919921875,-324.3426083374024,-3.5845225524902347,-3.936823606491089,-2.6967241704463962,-6.032400166531839,0.5052733800509747,0.0,0.044523242861032486,364.7344055175781,16.028367429971695,0.0,0.0,-1315.025053204518,1,1789162906.0727923,38.991440866666665,-76.93668203333333,-9.993000000000002,0,1,10.989225,6.937956,66.35731600000001,1,1,1789162906.6093814,-0.9981114449431661,0.022619081512543205,-0.05229102843088926,-0.022968869598523033,177.49370689839333,-6.051573509580612,-2.463914274110404,0.027783896362497732,-0.05102312988572743,0.19714959977847626,5.897915540275573,0.1308207131576538,-6.732853735046386
2026-09-11T17:41:46.650,4.010372768000025,-473.6206970214844,-42625.862731933594,-170503.45092773438,-324.43017745971684,-3.6720916748046877,-3.860621929168701,-2.6445260214805604,-5.915636232732099,1.562089980705381,0.0,0.04366684332489967,357.7187805175781,15.720063596963882,-0.030517607927322388,-10.98633885383606,-328.7788971107768,1,1789162906.0727923,38.991440866666665,-76.93668203333333,-9.993000000000002,0,1,10.989225,6.937956,66.35731600000001,1,1,1789162906.6413815,-0.9981087718141438,0.026451769560890456,-0.05124002964338491,-0.02129889379531223,177.70635194418236,-5.935742294297667,-2.917251108870942,0.07283922193688094,-0.04853376677360792,0.22748865816589373,0.7385388236808778,-1.5843624001312258,-10.800259956130983
2026-09-11T17:41:46.684,4.043789408000009,-473.74554443359375,-42637.09899902344,-170548.39599609375,-324.51569793701174,-3.7576121520996097,-3.7576987743377686,-2.5740236604213718,-5.757926942603277,2.109798024553678,0.0,0.041707996279001236,341.6719055175781,15.014878660440445,-0.0762939602136612,-27.46582567691803,-493.1521189170915,1,1789162906.0727923,38.991440866666665,-76.93668203333333,-9.993000000000002,0,1,10.989225,6.937956,66.35731600000001,1,1,1789162906.6813815,-0.9981297591424266,0.030821897798250016,-0.049488918506849465,-0.018380464504962588,178.0624192379031,-5.734895783507751,-3.440363948469828,0.013810964903956328,-0.11560153393999402,0.2079193284608325,5.0775892542457575,-2.1342212747001645,-12.359419265346528
2026-09-11T17:41:46.717,4.077202304000025,-473.86553955078125,-42647.89855957031,-170591.59423828125,-324.5978945922852,-3.839808807373047,-3.6294050216674805,-2.4861424398422245,-5.561342250899744,2.63015874407013,0.0,0.040067676454782486,328.2344055175781,14.424363523721695,-0.015258789993822575,-5.493164397776127,657.6102017356279,1,1789162906.0727923,38.991440866666665,-76.93668203333333,-9.993000000000002,0,1,10.989225,6.937956,66.35731600000001,1,1,1789162906.7093813,-0.998152461379598,0.03298098574493644,-0.04803223593023762,-0.01722854412550592,178.20215637100407,-5.567791205644243,-3.6975310888318984,0.010483494685029139,-0.08320839755590445,0.13679960490301635,0.9872354717826843,2.7642985475921633,-12.002064933452607
2026-09-11T17:41:46.751,4.110615488000008,-473.98236083984375,-42658.41247558594,-170633.64990234375,-324.677917175293,-3.9198313903808595,-3.5266146659851074,-2.4157310461997987,-5.4038364490868736,2.1072937449619342,0.0,0.03676987066864967,301.2187805175781,13.237153440713882,-0.01525880303233862,-5.493169091641903,-0.0001404794519452094,1,1789162906.0727923,38.991440866666665,-76.93668203333333,-9.993000000000002,0,1,10.989225,6.937956,66.35731600000001,1,1,1789162906.7413814,-0.998096520883725,0.0350846973215849,-0.04810631899839928,-0.016068014378908677,178.34760779735237,-5.575480203292202,-3.945953064183616,0.07423147108119682,-0.02890893559833328,0.14436595627626214,6.199273899745941,-2.390959375934601,-7.335668520488738
2026-09-11T17:41:46.784,4.144029728000021,-474.0978698730469,-42668.80828857422,-170675.23315429688,-324.75704086303716,-3.9989550781250003,-3.4239556789398193,-2.3454096400737763,-5.2465319436152775,2.1045340587125296,0.0,0.03120613470673561,255.64065551757812,11.23420849442482,-0.2136230766773224,-76.90430760383606,-2137.146872476101,1,1789162906.0727923,38.991440866666665,-76.93668203333333,-9.993000000000002,0,1,10.989225,6.937956,66.35731600000001,1,1,1789162906.7813814,-0.9977825199154782,0.03788457910898372,-0.052654964732859515,-0.01490826300529282,178.51545414879195,-6.096653437482194,-4.2697502204009465,0.08285828450795439,0.17982668335365695,0.10747266294883043,7.453936721439362,0.1491591489601135,-16.02985228788376
2026-09-11T17:41:46.817,4.17744399999998,-474.2138366699219,-42679.24530029297,-170716.98120117188,-324.83647811889654,-4.078392333984375,-3.449612617492676,-2.3629846429824832,-5.285846105454726,-0.5259729408059073,0.0,0.024442676454782486,200.23440551757812,8.799363523721695,-0.2288818657398224,-82.39747166633606,-164.39574270858665,1,1789162906.0727923,38.991440866666665,-76.93668203333333,-9.993000000000002,0,1,10.989225,6.937956,66.35731600000001,1,1,1789162906.8093815,-0.9975866382476709,0.039887572720652985,-0.05451759312543692,-0.01605343489645137,178.40414061094415,-6.318354078052182,-4.4913098945544725,-0.019754858204548215,0.18854390483566785,0.1080056865023895,2.701241787052154,-2.2403292294502255,-3.3693688625717164
2026-09-11T17:41:46.851,4.210858847999987,-474.3269958496094,-42689.429626464844,-170757.71850585938,-324.91399215698243,-4.155906372070313,-3.39709734916687,-2.3270116841793063,-5.205376888375321,1.076556110719694,0.0,0.008733753114938736,71.54690551757812,3.144151121377945,-0.6561279892921448,-236.20607614517212,-4603.001769716419,1,1789162906.0727923,38.991440866666665,-76.93668203333333,-9.993000000000002,0,1,10.989225,6.937956,66.35731600000001,1,1,1789162906.8413815,-0.9974360187524153,0.04084861225762994,-0.05543214882457652,-0.019495031383591745,178.01833508670606,-6.4405793498671775,-4.57881043536171,-0.017192540329695343,0.054254083397019336,0.053311256535092,-1.9880041207885744,3.5583430111885073,-6.257133135700226
2026-09-11T17:41:46.885,4.244272927999987,-474.4394226074219,-42699.54803466797,-170798.19213867188,-324.991004486084,-4.232918701171875,-3.370577335357666,-2.3088454747200013,-5.16474023514674,0.543669299268599,0.0,0.0026474036276340485,21.687530517578125,0.9530653059482574,-0.01525880303233862,-5.493169091641903,6904.661359927615,1,1789162906.0727923,38.991440866666665,-76.93668203333333,-9.993000000000002,0,1,10.989225,6.937956,66.35731600000001,1,1,1789162906.8813815,-0.9971768168670071,0.042667445142448746,-0.058915663970670946,-0.01862336078408603,178.146491962278,-6.839465111723375,-4.789413690647422,-0.0265007302964315,0.0778102687124112,0.08398716346814433,3.2927789248085024,0.7379504246711731,-8.341536627578735
2026-09-11T17:41:46.918,4.277689344000009,-474.5533142089844,-42709.798278808594,-170839.19311523438,-325.06902023315433,-4.310934448242188,-3.396038293838501,-2.3262862312793735,-5.2037540964552855,-0.5219218170901475,0.0,0.002786640077829361,22.828155517578125,1.00319042801857,-0.0762939527630806,-27.465822994709015,-657.5407100226471,1,1789162906.0727923,38.991440866666665,-76.93668203333333,-9.993000000000002,0,1,10.989225,6.937956,66.35731600000001,1,1,1789162906.9093814,-0.9970906967435077,0.04379013371761952,-0.05949688144699876,-0.018779982817385882,178.13894867848072,-6.908974060579347,-4.917036412189833,-0.03228387877291471,0.04861789164355405,0.058387721197442705,1.2037663073539733,2.910123435497284,-13.120513384399414
2026-09-11T17:41:46.951,4.311103360000004,-474.6671447753906,-42720.043029785156,-170880.17211914062,-325.1469941711426,-4.388908386230469,-3.422405242919922,-2.3443475914001466,-5.244156208393307,-0.5405324556250868,0.0,0.0028381384909152985,23.250030517578125,1.0217298567295074,0.0,0.0,821.9850913674476,1,1789162906.0727923,38.991440866666665,-76.93668203333333,-9.993000000000002,0,1,10.989225,6.937956,66.35731600000001,1,1,1789162906.9413815,-0.9970303180965959,0.045358467384278525,-0.059417134194169614,-0.018513735357887962,178.18012492458666,-6.901387377843526,-5.099841286535235,-0.04493053453286562,0.010319608268266871,0.08474655622568707,5.5472297304916385,1.2144555560302734,-10.202838828277589
2026-09-11T17:41:46.985,4.344520448000026,-474.7841796875,-42730.576171875,-170922.3046875,-325.22716308593755,-4.469077301025391,-3.475466728210449,-2.3806947088241577,-5.32546239447064,-1.087680573004676,0.0,0.0036926306784152985,30.250030517578125,1.3293470442295074,0.015258789993822575,5.493164397776127,164.3818993974756,1,1789162906.0727923,38.991440866666665,-76.93668203333333,-9.993000000000002,0,1,10.989225,6.937956,66.35731600000001,1,1,1789162906.9813814,-0.9968927357584293,0.04686331627011874,-0.05993088917354607,-0.020420369808339688,177.9736990382606,-6.973096113573806,-5.2594468706778095,-0.03816075143023002,-0.009018290777979901,0.04940608233375469,1.0430353112030029,1.0042990430641174,-8.739392424640656
2026-09-11T17:41:47.018,4.377940383999999,-474.9041748046875,-42741.375732421875,-170965.5029296875,-325.309359741211,-4.551273956298829,-3.580811023712158,-2.4528555512428287,-5.486881601742184,-2.1592154580645952,0.0,0.0050239600241184235,41.156280517578125,1.8086256086826324,0.0762939527630806,27.465822994709015,657.4715941092967,1,1789162906.0727923,38.991440866666665,-76.93668203333333,-9.993000000000002,0,1,10.989225,6.937956,66.35731600000001,1,1,1789162907.0093815,-0.9969335853216078,0.0479974095938391,-0.05802986794264812,-0.02126521941209767,177.8745586395866,-6.761989432791622,-5.387177315665048,-0.03312547653822638,-0.04993997855193975,0.08619709936701954,0.7353026291275024,2.3797797947502137,-7.61437351808548
2026-09-11T17:41:47.052,4.411362752000002,-475.0279541015625,-42752.515869140625,-171010.0634765625,-325.39414855957034,-4.636062774658203,-3.6596884727478027,-2.5068866038322453,-5.60774562417735,-1.6166135382570932,0.0,0.005674365907907486,46.484405517578125,2.042771726846695,0.0,0.0,-821.779683435537,1,1789162906.0727923,38.991440866666665,-76.93668203333333,-9.993000000000002,0,1,10.989225,6.937956,66.35731600000001,1,1,1789162907.0493815,-0.996880150880567,0.050069632706485366,-0.05682516287601459,-0.02222380536924195,177.77184704695995,-6.633689667535135,-5.621533162838776,-0.009142558220721898,-0.01708816964042608,0.06715957148504101,1.3251726363563539,2.1134311763572695,-7.074321293678284
2026-09-11T17:41:47.086,4.444779808000021,-475.1510314941406,-42763.592834472656,-171054.37133789062,-325.47845657348637,-4.720370788574219,-3.7125067710876465,-2.543067138195038,-5.688679174559402,-1.0826966433779244,0.0,0.0055236853659152985,45.250030517578125,1.9885267317295074,0.0,0.0,0.0,1,1789162907.0705874,38.99145107333333,-76.93667359833333,-10.030000000000001,0,1,8.584900000000001,6.8958759999999995,66.22704399999999,1,1,1789162907.0813816,-0.996764975409027,0.05196343562117143,-0.05716735825188299,-0.022164798821258058,177.7932162415717,-6.676787458969317,-5.839751804543274,-0.07401173412837074,0.08480467568977848,0.11057830181982914,1.2455426370429994,0.33656423355102544,-9.60708483095169
2026-09-11T17:41:47.118,4.478194432000009,-475.27880859375,-42775.0927734375,-171100.37109375,-325.56598388671875,-4.807898101806641,-3.7918026447296143,-2.597384811639786,-5.810184349587918,-1.625565903263414,0.0,0.004983905702829361,40.828155517578125,1.79420605301857,-0.015258789993822575,-5.493164397776127,-164.39402094657925,1,1789162907.0705874,38.99145107333333,-76.93667359833333,-10.030000000000001,0,1,8.584900000000001,6.8958759999999995,66.22704399999999,1,1,1789162907.1093814,-0.9966758988004577,0.053310987438351734,-0.05653229373946209,-0.024478380935075646,177.53244944599106,-6.620852901306661,-5.980777737141084,-0.051557026103912496,0.09429839415600162,0.09549307202899175,-0.8387627883338927,1.0072410381126404,-8.34516508813858
2026-09-11T17:41:47.152,4.511612032000016,-475.4095458984375,-42786.859130859375,-171147.4365234375,-325.6555389404297,-4.897453155517579,-3.8969831466674805,-2.6694334554672245,-5.971352575758817,-2.156008924262167,0.0,0.004850391298532486,39.734405517578125,1.746140867471695,0.0,0.0,164.37938085843894,1,1789162907.0705874,38.99145107333333,-76.93667359833333,-10.030000000000001,0,1,8.584900000000001,6.8958759999999995,66.22704399999999,1,1,1789162907.1493814,-0.9963971362732026,0.05502934201982578,-0.058340688896736034,-0.02758409618748174,177.19724901265815,-6.851524122528108,-6.154464629374901,-0.08195594928467334,0.20652079613120944,0.1131757008126471,-0.009414384155273438,1.5977975108528137,-6.992141565322876
2026-09-11T17:41:47.187,4.545030015999998,-475.5451354980469,-42799.06219482422,-171196.24877929688,-325.74841781616215,-4.99033203125,-4.106719493865967,-2.8131028532981874,-6.2927318658245,-4.299164121660971,0.0,0.0048027075827121735,39.343780517578125,1.7289747297763824,-0.015258789993822575,-5.493164397776127,-164.3774920048765,1,1789162907.0705874,38.99145107333333,-76.93667359833333,-10.030000000000001,0,1,8.584900000000001,6.8958759999999995,66.22704399999999,1,1,1789162907.1813815,-0.995979816676124,0.056885773214324566,-0.061661416326340035,-0.03140196357288108,176.79060833256145,-7.261594000922776,-6.3341354791378786,-0.14310408322707027,0.2127551122193332,0.12737552507394775,3.759183206501007,3.573543318939209,-11.236852021331787
2026-09-11T17:41:47.219,4.578449312000032,-475.6869201660156,-42811.822814941406,-171247.29125976562,-325.84554031372073,-5.087454528808594,-4.211869239807129,-2.8851304292678837,-6.453852964539818,-2.1552690987154137,0.0,0.008092883974313736,66.29690551757812,2.913438230752945,0.10681155323982239,38.45215916633606,1314.968560799961,1,1789162907.0705874,38.99145107333333,-76.93667359833333,-10.030000000000001,0,1,8.584900000000001,6.8958759999999995,66.22704399999999,1,1,1789162907.2093813,-0.9956119615637297,0.058809345025260105,-0.06491802684771814,-0.032923133494875426,176.64960854438678,-7.651003900779757,-6.536806074129897,-0.03603389320374973,0.15868446292669847,0.13744188606775026,-5.1117163968086246,-0.6736187996101379,-15.785078299846647
2026-09-11T17:41:47.253,4.611864480000008,-475.83148193359375,-42824.83337402344,-171299.33349609375,-325.94456512451177,-5.18647933959961,-4.317262649536133,-2.957324914932251,-6.615347429608644,-2.160530381424944,0.0,0.016706470400094986,136.85940551757812,6.014329344034195,0.4882812798023224,175.78126072883606,4109.783364327159,1,1789162907.0705874,38.99145107333333,-76.93667359833333,-10.030000000000001,0,1,8.584900000000001,6.8958759999999995,66.22704399999999,1,1,1789162907.2493815,-0.9953223617893584,0.061964428542899,-0.06513892447064412,-0.03536560809901708,176.39397671175766,-7.703763347712493,-6.8819039555047485,-0.017713172045565252,0.055560811407987486,0.1726992822872877,1.5472932625198366,1.164343573703766,-13.34636053762436
2026-09-11T17:41:47.286,4.645279520000031,-475.9783020019531,-42838.04718017578,-171352.18872070312,-326.0451368713379,-5.287051086425782,-4.3961358070373535,-3.0113530278205873,-6.736204876119775,-1.6168800901719602,0.0,0.0401611365377903,329.0000305175781,14.458009153604507,0.4577637314796448,164.79494333267212,-328.78360750597665,1,1789162907.0705874,38.99145107333333,-76.93667359833333,-10.030000000000001,0,1,8.584900000000001,6.8958759999999995,66.22704399999999,1,1,1789162907.2813814,-0.99523002668519,0.06529621576861937,-0.06405837410594284,-0.033913461890477586,176.57973901621295,-7.581392626252533,-7.2808145399414,-0.009422683565666987,-0.015278437739033162,0.1944331693306723,-4.585099283123016,0.8088525053405762,-8.90836100692749
2026-09-11T17:41:47.319,4.678696320000029,-476.1280517578125,-42851.524658203125,-171406.0986328125,-326.1477154541016,-5.389629669189453,-4.474743843078613,-3.06519953250885,-6.856656076657227,-1.6113602944706409,0.0,0.040510181337594986,331.8594055175781,14.583665281534195,0.18310546875,65.91796875,-2958.90015150101,1,1789162907.0705874,38.99145107333333,-76.93667359833333,-10.030000000000001,0,1,8.584900000000001,6.8958759999999995,66.22704399999999,1,1,1789162907.3093815,-0.9949466045700097,0.06868525098276415,-0.06500904823133011,-0.03372556893663883,176.63426448456602,-7.700449616329289,-7.671614769468638,-0.013960539620852244,-0.08115344689460634,0.3089730194866782,3.9101075524902345,-0.12650578708648683,-4.145074890365601
2026-09-11T17:41:47.353,4.712115168000025,-476.283935546875,-42865.55419921875,-171462.216796875,-326.2544958496094,-5.496410064697266,-4.630839824676514,-3.1721252799034123,-7.0958421615591645,-3.1995641320303143,0.0,0.04388046637177467,359.4687805175781,15.796967893838882,0.1068115383386612,38.45215380191803,-821.8660005301425,1,1789162907.0705874,38.99145107333333,-76.93667359833333,-10.030000000000001,0,1,8.584900000000001,6.8958759999999995,66.22704399999999,1,1,1789162907.3493814,-0.9947020109986789,0.0739313164630193,-0.06185209368929561,-0.035726576486974485,176.41981731676145,-7.373182642223893,-8.27064294644018,-0.11475190766012318,-0.017776003898637045,0.2945555526676538,-2.8782518224716185,-0.6646947479629517,-15.681618140640259
2026-09-11T17:41:47.386,4.74553043200001,-476.44268798828125,-42879.84191894531,-171519.36767578125,-326.3632412719727,-5.605155487060547,-4.762118339538574,-3.2620510625839234,-7.297000408428596,-2.6911588273117752,0.0,0.043165210634469986,353.6094055175781,15.539475828409195,-0.015258791856467724,-5.493165068328381,-1315.1270889335806,1,1789162907.0705874,38.99145107333333,-76.93667359833333,-10.030000000000001,0,1,8.584900000000001,6.8958759999999995,66.22704399999999,1,1,1789162907.3813815,-0.9944717618510941,0.07872487623430927,-0.059340535044422556,-0.036152588334932755,176.38529517241838,-7.106681100732836,-8.827939716128983,-0.14615003183765077,-0.06538893495889275,0.30395240536039125,-11.385618904285431,-3.915501210079193,-15.841662671279908
2026-09-11T17:41:47.420,4.778944544000012,-476.60418701171875,-42894.37683105469,-171577.50732421875,-326.47386810302737,-5.7157823181152345,-4.814688205718994,-3.298061420917511,-7.377553285874883,-1.0776990971235423,0.0,0.04322433844208717,354.0937805175781,15.560761839151382,-0.03051757998764515,-10.986328795552254,-164.39651986631984,1,1789162907.0705874,38.99145107333333,-76.93667359833333,-10.030000000000001,0,1,8.584900000000001,6.8958759999999995,66.22704399999999,1,1,1789162907.4093814,-0.9939317158369759,0.08333468869155344,-0.061044435363437496,-0.03779749760507416,176.24456265341857,-7.333682155706632,-9.344578980599206,-0.03686083020334464,0.08335325988381999,0.300958293028595,-4.971677432498932,0.6174266941833496,-8.90610547739029
2026-09-11T17:41:47.454,4.812402399999996,-476.7639465332031,-42908.75518798828,-171635.02075195312,-326.58330337524416,-5.825217590332032,-4.73820686340332,-3.2456717014312746,-7.260360821025571,1.5658420995733122,0.0,0.04755592718720436,389.5781555175781,17.12013378739357,0.2899170517921448,104.37013864517212,3447.81409307217,1,1789162907.0705874,38.99145107333333,-76.93667359833333,-10.030000000000001,0,1,8.584900000000001,6.8958759999999995,66.22704399999999,1,1,1789162907.4493814,-0.9936196457985832,0.0891046097747168,-0.05932885608787147,-0.03550288488698074,176.53447066821266,-7.136151431416022,-10.032627543043716,0.081687866711567,-0.040376970514412414,0.3005289420326044,-1.0099869001579285,-0.7937502640914916,-10.036518041534423
2026-09-11T17:41:47.487,4.84582214400001,-476.9215393066406,-42922.938537597656,-171691.75415039062,-326.69125442504884,-5.933168640136719,-4.738726615905762,-3.246027731895447,-7.261157238491955,-0.010653297169852432,0.0,0.04790878668427467,392.4687805175781,17.247163206338882,0.1678466945886612,60.42481005191803,-1314.9510838035085,1,1789162907.0705874,38.99145107333333,-76.93667359833333,-10.030000000000001,0,1,8.584900000000001,6.8958759999999995,66.22704399999999,1,1,1789162907.4813814,-0.9932645787615392,0.09412175517806419,-0.05783062893712484,-0.03495983604937807,176.61762328445977,-6.976555116135616,-10.620128715369756,0.04184077815806006,-0.07885188121000142,0.34480236010209414,3.894809178237915,-0.6236048837852477,-14.318297635154723
2026-09-11T17:41:47.519,4.879238111999996,-477.0798034667969,-42937.18231201172,-171748.72924804688,-326.7996653747559,-6.04157958984375,-4.792318344116211,-3.2827380657196046,-7.343275916516645,-1.098586574663142,0.0,0.04785347357392311,392.0156555175781,17.22725048661232,0.061035145074129105,21.972652226686478,-1150.712073498754,1,1789162907.0705874,38.99145107333333,-76.93667359833333,-10.030000000000001,0,1,8.584900000000001,6.8958759999999995,66.22704399999999,1,1,1789162907.5093815,-0.9926955411142632,0.09875722121027657,-0.059353976776820784,-0.035772606159757525,176.5735374550878,-7.175354145573394,-11.14772912921945,-0.12504114719940534,0.04298955387172273,0.32022602983891163,5.039441385116577,-1.9842775937271118,-6.351473110256195
2026-09-11T17:41:47.553,4.912656863999985,-477.23883056640625,-42951.49475097656,-171805.97900390625,-326.9085989379883,-6.150513153076172,-4.794025897979736,-3.2839077401161196,-7.345892403624096,-0.0350005409093508,0.0,0.04561996832489967,373.7187805175781,16.423188596963882,-0.0915527492761612,-32.95898973941803,-1643.73708408151,1,1789162907.0705874,38.99145107333333,-76.93667359833333,-10.030000000000001,0,1,8.584900000000001,6.8958759999999995,66.22704399999999,1,1,1789162907.5493815,-0.9918828196480137,0.10481704422117596,-0.06204477618252992,-0.03650075446208653,176.56498134431925,-7.512015048740034,-11.839094603198664,-0.060015764323703015,0.024372650339474815,0.28162056851527345,1.5765170800018309,-0.835624660282135,-1.9792762021446229
2026-09-11T17:41:47.586,4.946070176000035,-477.39593505859375,-42965.63415527344,-171862.53662109375,-327.01621551513676,-6.25812973022461,-4.717311382293701,-3.2313582968711856,-7.2283426469022505,1.5727098003590656,0.0,0.04471588507294655,366.3125305175781,16.097718626260757,-0.1068115308880806,-38.452151119709015,-164.40038569905133,1,1789162907.0705874,38.99145107333333,-76.93667359833333,-10.030000000000001,0,1,8.584900000000001,6.8958759999999995,66.22704399999999,1,1,1789162907.5813816,-0.9913353073361545,0.10972807058581108,-0.06327523214316437,-0.03478942298279857,176.81361203658435,-7.648112925580287,-12.419352194891475,0.049946959868947725,0.009805608803554543,0.27127460577530144,-0.21898249811172485,0.6588107578659058,-12.98586807767868
2026-09-11T17:41:47.620,4.9794879039999955,-477.5487365722656,-42979.386291503906,-171917.54516601562,-327.120884552002,-6.362798767089844,-4.615273952484131,-3.16146265745163,-7.0719905544282975,2.09157365275215,0.0,0.04518318548798561,370.1406555175781,16.26594677567482,-0.0762939527630806,-27.465822994709015,328.7574824061316,1,1789162907.0705874,38.99145107333333,-76.93667359833333,-10.030000000000001,0,1,8.584900000000001,6.8958759999999995,66.22704399999999,1,1,1789162907.6093814,-0.9908726669864427,0.11418644377716143,-0.06412091285760897,-0.03195813528675376,177.18363789870713,-7.722173792107328,-12.95722164642158,0.18560686477041177,0.03532179886893604,0.30646393415401113,-3.801646001701355,-3.489206127548218,-7.600055808849334
2026-09-11T17:41:47.655,5.012903456000004,-477.703369140625,-42993.30322265625,-171973.212890625,-327.22680786132815,-6.468722076416016,-4.539177894592285,-3.1093368577957157,-6.955388461425627,1.5599263377693555,0.0,0.04718399420380592,386.5312805175781,16.986237913370132,0.1831054836511612,65.91797411441803,2794.62081335973,1,1789162907.0705874,38.99145107333333,-76.93667359833333,-10.030000000000001,0,1,8.584900000000001,6.8958759999999995,66.22704399999999,1,1,1789162907.6493814,-0.9901694634901608,0.11947920243689829,-0.06448645730249122,-0.03362514804760917,177.0389122887692,-7.801415757214392,-13.558760434763341,-0.011758806769461397,-0.022273717381026435,0.3210655332091209,-1.1335506921958922,4.217742168064117,-7.0805975497818
2026-09-11T17:41:47.687,5.046330399999988,-477.85540771484375,-43006.98669433594,-172027.94677734375,-327.330954284668,-6.5728684997558595,-4.565958499908447,-3.127681572437287,-6.996424419374739,-0.5488002325782385,0.0,0.04949188604950905,405.4375305175781,17.817078977823257,0.06103518605232239,21.97266697883606,-1314.667207854913,1,1789162907.0705874,38.99145107333333,-76.93667359833333,-10.030000000000001,0,1,8.584900000000001,6.8958759999999995,66.22704399999999,1,1,1789162907.6813815,-0.9893978687909323,0.12442658474579824,-0.06648221926661976,-0.03449632968654897,177.00594617222535,-8.055904300608711,-14.124883751160068,-0.0517717016019078,0.051030809334436204,0.30343770776397816,4.331695442943573,-0.26203369232177737,-10.816244795894624
2026-09-11T17:41:47.720,5.079751648000013,-478.00543212890625,-43020.48889160156,-172081.95556640625,-327.4337210083008,-6.675635223388673,-4.513559341430664,-3.091788148880005,-6.916133117573375,1.0739701748197847,0.0,0.05181312933564186,424.4531555175781,18.65272656083107,0.2136230617761612,76.90430223941803,1643.6141241805642,1,1789162907.0705874,38.99145107333333,-76.93667359833333,-10.030000000000001,0,1,8.584900000000001,6.8958759999999995,66.22704399999999,1,1,1789162907.7093813,-0.9890017581870361,0.12855400059761116,-0.06458818739581192,-0.034318468529706984,177.03298982168485,-7.849948142151809,-14.60836017444835,0.04772951905428893,-0.02166232854405282,0.3124123653106582,-0.6353728639793396,0.8626910147285463,-9.010546301612854
2026-09-11T17:41:47.754,5.113166272000001,-478.1540222167969,-43033.86199951172,-172135.44799804688,-327.5355052185059,-6.77741943359375,-4.460581302642822,-3.0554981923103335,-6.834954796685599,1.0860501249298609,0.0,0.05476570501923561,448.6406555175781,19.71565380692482,0.2136230766773224,76.90430760383606,0.0001605410262819972,1,1789162907.0705874,38.99145107333333,-76.93667359833333,-10.030000000000001,0,1,8.584900000000001,6.8958759999999995,66.22704399999999,1,1,1789162907.7493815,-0.9882433044301562,0.13459119251577642,-0.06388800665382628,-0.03433226983389807,177.06910733745983,-7.788425864647605,-15.311509468619736,0.01256113462660319,-0.01169300785666121,0.2895763028446392,-3.238744282417297,2.576305063991547,-12.27567047296524
2026-09-11T17:41:47.787,5.146583840000005,-478.301513671875,-43047.13623046875,-172188.544921875,-327.6365368652344,-6.878451080322266,-4.408923625946045,-3.020112683773041,-6.755799668425729,1.058889400248631,0.0,0.0558166541159153,457.2500305175781,20.093995481729507,-0.0457763709127903,-16.479493528604507,-2794.4523411287228,1,1789162907.0705874,38.99145107333333,-76.93667359833333,-10.030000000000001,0,1,8.584900000000001,6.8958759999999995,66.22704399999999,1,1,1789162907.7813814,-0.9878032949289692,0.13907301142663472,-0.060280698346620046,-0.03563124228879607,176.9000272225562,-7.41190433909601,-15.827180923496126,-0.013317211258567134,-0.10100813793236864,0.26720379982794984,0.5586848597145081,2.3617355584526063,-7.236032954845428
2026-09-11T17:41:47.820,5.180001759999982,-478.4473571777344,-43060.262145996094,-172241.04858398438,-327.7364396667481,-6.978353881835938,-4.358278274536133,-2.985420618057251,-6.678195727579742,1.0381276188288822,0.0,0.05525589361786842,452.6562805175781,19.892121702432632,-0.1525879204273224,-54.93165135383606,-1150.6448583651643,1,1789162907.0705874,38.99145107333333,-76.93667359833333,-10.030000000000001,0,1,8.584900000000001,6.8958759999999995,66.22704399999999,1,1,1789162907.8093815,-0.9873251215908354,0.1431561213923767,-0.05839549655195249,-0.03585240809184161,176.87536707643108,-7.214000904602969,-16.303072844529588,-0.07764655682857415,-0.164788228386773,0.2959504198058477,0.49484356716156,0.8324865322303772,-7.629966091842651
2026-09-11T17:41:47.854,5.213415744000031,-478.5911865234375,-43073.206787109375,-172292.8271484375,-327.8349627685547,-7.0768769836425784,-4.306891918182373,-2.950220963954926,-6.599456343850489,1.0534408019790051,0.0,0.0534057654440403,437.5000305175781,19.226075559854507,-0.030517593026161194,-10.98633348941803,1315.1774378162659,1,1789162907.0705874,38.99145107333333,-76.93667359833333,-10.030000000000001,0,1,8.584900000000001,6.8958759999999995,66.22704399999999,1,1,1789162907.8493814,-0.9865990524800761,0.14929446073219133,-0.057214083097611196,-0.03255798420357179,177.27636900638456,-7.043113568708534,-17.04205069540798,0.010925412051634104,-0.038249588689156525,0.29512662439890636,-1.8476709569740295,-1.8358049102783203,-12.944778213500976
2026-09-11T17:41:47.887,5.246833375999984,-478.73004150390625,-43085.70373535156,-172342.81494140625,-327.9300784301758,-7.171992645263672,-4.177067756652832,-2.8612914133071903,-6.400526604570479,2.661156560939481,0.0,0.05430794134736061,444.8906555175781,19.55085888504982,-0.03051757998764515,-10.986328795552254,0.00014046075365449698,1,1789162907.0705874,38.99145107333333,-76.93667359833333,-10.030000000000001,0,1,8.584900000000001,6.8958759999999995,66.22704399999999,1,1,1789162907.8813815,-0.9858086477997505,0.154103273312389,-0.05800942675054293,-0.03268635014356951,177.3100686289223,-7.148795077524074,-17.60127726460601,-0.035156865254622575,-0.11318913984788746,0.2808723458649435,1.6878225593376162,1.7601956375312806,-11.450440861854554
2026-09-11T17:41:47.920,5.280248831999984,-478.8677062988281,-43098.09356689453,-172392.37426757812,-328.0243788146973,-7.266293029785157,-4.125770568847656,-2.8261528396606446,-6.321923853929495,1.0515664860759502,0.0,0.05367470160126686,439.7031555175781,19.32289257645607,-0.030517593026161194,-10.98633348941803,-0.00014046990039764793,1,1789162907.0705874,38.99145107333333,-76.93667359833333,-10.030000000000001,0,1,8.584900000000001,6.8958759999999995,66.22704399999999,1,1,1789162907.9093814,-0.9850900528594839,0.15827627925855042,-0.059275403606286234,-0.03213461853951907,177.42594616801384,-7.293698458651165,-18.09153050888988,0.007441734864653422,-0.08081275862461705,0.296851184232802,-6.884660679550171,-2.0493937508010864,-5.731594753532409
2026-09-11T17:41:47.954,5.313662560000012,-479.00592041015625,-43110.53283691406,-172442.13134765625,-328.11905548095706,-7.360969696044922,-4.1522440910339355,-2.844287202358246,-6.362489267981037,-0.5427219224860678,0.0,0.0537109412252903,440.0000305175781,19.335938841104507,0.0610351599752903,21.972657591104507,986.3907158307861,1,1789162907.0705874,38.99145107333333,-76.93667359833333,-10.030000000000001,0,1,8.584900000000001,6.8958759999999995,66.22704399999999,1,1,1789162907.9493814,-0.9841848257759753,0.16407397274202437,-0.05941220721406897,-0.030498357577337227,177.65785763870832,-7.293562272299489,-18.78023896204542,-0.04384843039662914,0.02321986036853256,0.2887931736092693,2.522662687606812,0.6451795141410828,-2.1765860033988953
2026-09-11T17:41:47.987,5.347078527999997,-479.1434631347656,-43122.911682128906,-172491.64672851562,-328.2132722473145,-7.455186462402344,-4.127537727355957,-2.8273633432388308,-6.324631673315201,0.506460238393293,0.0,0.05253792181611061,430.3906555175781,18.91365185379982,-0.0610351599752903,-21.972657591104507,-1315.0992717681506,1,1789162907.0705874,38.99145107333333,-76.93667359833333,-10.030000000000001,0,1,8.584900000000001,6.8958759999999995,66.22704399999999,1,1,1789162907.9813814,-0.983559633465441,0.1684313296349375,-0.057481760421547796,-0.030613425707914844,177.6403855014823,-7.0875587681291625,-19.28875862010329,-0.07849478684504338,-0.004141491782057345,0.2876395109737011,-6.6997072574996945,-1.5313084227561953,-4.680910255203247
2026-09-11T17:41:48.020,5.38049308799998,-479.280517578125,-43135.24658203125,-172540.986328125,-328.3071545410157,-7.549068756103516,-4.077136993408203,-2.7928388404846194,-6.247402560139174,1.0332173386161319,0.0,0.0505676306784153,414.2500305175781,18.204347044229507,0.0,0.0,657.5773432634086,1,1789162907.0705874,38.99145107333333,-76.93667359833333,-10.030000000000001,0,1,8.584900000000001,6.8958759999999995,66.22704399999999,1,1,1789162908.0093815,-0.9827675786741961,0.17221717614776288,-0.05867251922239961,-0.03265985356130311,177.45856397227496,-7.271550187188566,-19.717320499543302,-0.13324873253983388,0.07617698959839492,0.2659363417251516,-3.0531043948554992,-2.605234681968689,-11.009239671077728
2026-09-11T17:41:48.054,5.413910111999996,-479.4197082519531,-43147.77374267578,-172591.09497070312,-328.4025001525879,-7.644414367675782,-4.130205154418945,-2.8291905307769776,-6.328718975431672,-1.0878194985986942,0.0,0.05011177435517311,410.5156555175781,18.04023876786232,0.0762939527630806,27.465822994709015,821.9111012008633,1,1789162907.0705874,38.99145107333333,-76.93667359833333,-10.030000000000001,0,1,8.584900000000001,6.8958759999999995,66.22704399999999,1,1,1789162908.0493815,-0.9817066628562179,0.1778003116795508,-0.059750689095080294,-0.032694532004998215,177.51791450548635,-7.408429661686732,-20.3707969977731,-0.016336456331592124,0.08995147712098454,0.29351987428952037,3.5302959917259216,-0.9345737604141235,-6.212120611457825
2026-09-11T17:41:48.087,5.447327296000026,-479.5599365234375,-43160.394287109375,-172641.5771484375,-328.4985565185547,-7.740470733642579,-4.184179306030273,-2.8661628246307376,-6.411423641353647,-1.1063856803053003,0.0,0.05072403326630592,415.5312805175781,18.260651975870132,0.0610351599752903,21.972657591104507,-164.38145726461164,1,1789162908.0772712,38.991460718333336,-76.93666069166666,-10.079,0,1,8.584900000000001,6.8958759999999995,66.243321,1,1,1789162908.0813816,-0.9807548862601924,0.1821301834246236,-0.061247797108234636,-0.0345999524834706,177.36548521126036,-7.628044524302933,-20.86477537436001,-0.07415170953438067,0.012848241288556257,0.28333168931392866,-0.20878358194351196,3.842539732875824,-6.929869336795807
2026-09-11T17:41:48.121,5.48074256000001,-479.702392578125,-43173.21533203125,-172692.861328125,-328.59613891601566,-7.838053131103516,-4.2625226974487305,-2.9198280477523806,-6.531469326575647,-1.6060092513908686,0.0,0.0515136756002903,422.0000305175781,18.544923216104507,0.0457763709127903,16.479493528604507,-164.3908622868454,1,1789162908.0772712,38.991460718333336,-76.93666069166666,-10.079,0,1,8.584900000000001,6.8958759999999995,66.243321,1,1,1789162908.1093814,-0.9798845460273578,0.1861470865832756,-0.0630781311742121,-0.034593178242056016,177.43632324692965,-7.845216803514079,-21.33661830739511,-0.02050151005855139,0.027767141201678586,0.3134283214682441,0.2755668695449829,-0.32813051441192626,-13.354401990756989
2026-09-11T17:41:48.154,5.514157280000006,-479.84478759765625,-43186.03088378906,-172744.12353515625,-328.69367950439454,-7.935593719482423,-4.262258052825928,-2.919646766185761,-6.531063811260195,0.005425200828251898,0.0,0.0523681677877903,429.0000305175781,18.852540403604507,0.0457763709127903,16.479493528604507,0.0,1,1789162908.0772712,38.991460718333336,-76.93666069166666,-10.079,0,1,8.584900000000001,6.8958759999999995,66.243321,1,1,1789162908.1493814,-0.9786558277847853,0.1918661029108954,-0.06402069720704559,-0.03635271139524671,177.3035141360253,-8.004921620598038,-21.995671730067173,-0.06766414617179256,0.09774035797385965,0.2922244909186902,4.503802153282166,4.50556735031128,-12.965470245342253
2026-09-11T17:41:48.188,5.547574464000036,-479.9898681640625,-43199.088134765625,-172796.3525390625,-328.7930596923828,-8.034973907470704,-4.340908050537109,-2.97352201461792,-6.651579309721539,-1.6122019267725223,0.0,0.0532531775534153,436.2500305175781,19.171143919229507,0.0,0.0,-493.1442915294711,1,1789162908.0772712,38.991460718333336,-76.93666069166666,-10.079,0,1,8.584900000000001,6.8958759999999995,66.243321,1,1,1789162908.1813815,-0.9778438786956769,0.19659292852884513,-0.06282717276311271,-0.03500450988716451,177.46845783287444,-7.853094308435443,-22.561454171787304,0.030805235830625114,0.06873420753619029,0.29240827408892517,0.9383002874755859,-0.12846711711883546,-13.126593507499695
2026-09-11T17:41:48.221,5.580987776000029,-480.13531494140625,-43212.17834472656,-172848.71337890625,-328.8926907348633,-8.134604949951173,-4.315708160400391,-2.956260089874268,-6.6129654837917515,0.5166181892910151,0.0,0.0546417273581028,447.6250305175781,19.671021848917007,0.1831054836511612,65.91797411441803,1972.8057522232823,1,1789162908.0772712,38.991460718333336,-76.93666069166666,-10.079,0,1,8.584900000000001,6.8958759999999995,66.243321,1,1,1789162908.2093813,-0.9769934577023387,0.2008290004732614,-0.06236941067449931,-0.0355183443850458,177.4341258071576,-7.824270408418362,-23.056130250821568,-0.011642742374203773,-0.007358657192258492,0.3110258757528739,-0.8825004480552674,-0.9248651767539978,-9.129402901573181
2026-09-11T17:41:48.255,5.614404512000021,-480.2811279296875,-43225.301513671875,-172901.2060546875,-328.99257263183597,-8.23448684692383,-4.368340969085693,-2.9923135638237004,-6.693614808123875,-1.0789047125799685,0.0,0.060651782900094986,496.8594055175781,21.834641844034195,0.2746582329273224,98.87696385383606,986.3018859599432,1,1789162908.0772712,38.991460718333336,-76.93666069166666,-10.079,0,1,8.584900000000001,6.8958759999999995,66.243321,1,1,1789162908.2493815,-0.9758436673756683,0.20674822925862366,-0.06110864154893951,-0.03535591137664207,177.47055481908566,-7.694121225217411,-23.754172733297924,0.03012996794302851,-0.0004576253298729132,0.3476041371503207,-0.507788345375061,0.46571781618118285,-11.509574962329864
2026-09-11T17:41:48.288,5.64781913600001,-480.4294128417969,-43238.64715576172,-172954.58862304688,-329.09414779663086,-8.33606201171875,-4.421340465545654,-3.0286182188987736,-6.774826008631823,-1.0864900073418762,0.0,0.06921578198671341,567.0156860351562,24.917681515216827,0.3204346001148224,115.35645604133606,493.18203273829533,1,1789162908.0772712,38.991460718333336,-76.93666069166666,-10.079,0,1,8.584900000000001,6.8958759999999995,66.243321,1,1,1789162908.2813814,-0.9748544309400762,0.21193143543529885,-0.05884347254504659,-0.035795961918553505,177.40743246252774,-7.46382639829907,-24.361150987666257,0.04134231212369048,-0.024356942376206867,0.39065530114463876,0.3906969424438477,1.5155197159957887,-8.874822263374329
