timestamp,time_s,drive_pos_turns,drive_encoder_count,drive_wheel_angle_deg,drive_distance_m,drive_distance_since_start_m,drive_velocity_turns_s,drive_velocity_mps,drive_velocity_mph,drive_acceleration_mps2,drive_iq_A,steer_pos_turns,steer_encoder_count,steer_angle_deg,steer_velocity_turns_s,steer_velocity_deg_s,steer_acceleration_deg_s2,gps_received,gps_ros_stamp_s,gps_latitude_deg,gps_longitude_deg,gps_altitude_m,gps_status,gps_service,gps_cov_x_m2,gps_cov_y_m2,gps_cov_z_m2,gps_covariance_type,imu_received,imu_ros_stamp_s,imu_qx,imu_qy,imu_qz,imu_qw,imu_roll_deg,imu_pitch_deg,imu_yaw_deg,imu_gyro_x_rad_s,imu_gyro_y_rad_s,imu_gyro_z_rad_s,imu_accel_x_mps2,imu_accel_y_mps2,imu_accel_z_mps2
2026-09-11T18:25:16.569,1.014400004351046e-05,0.0,0.0,0.0,0.0,0.0,0.0,0.0,0.0,0.0,0.0,0.0,0.0,0.0,0.0,0.0,0.0,1,1789165516.4251678,38.991380961666664,-76.93674583666666,-10.067000000000004,0,1,147.8656,18.515809,257.69880900000004,1,1,1789165516.5574105,-0.9550781049036701,0.295872352692908,0.015901780583760166,-0.005700685909913671,178.83644906979447,1.5472620040112641,-34.44048730630169,0.002021265806734633,0.0006007423285364482,0.0007566002307395418,-0.2602684952926636,0.1990749982833862,-9.703386135540008
2026-09-11T18:25:16.603,0.03342152899949724,0.0,0.0,0.0,0.0,0.0,0.0,0.0,0.0,0.0,0.0,0.0,0.0,0.0,0.0,0.0,0.0,1,1789165516.4251678,38.991380961666664,-76.93674583666666,-10.067000000000004,0,1,147.8656,18.515809,257.69880900000004,1,1,1789165516.5974104,-0.9550700536055272,0.2959039682511468,0.01580559338016595,-0.005676045900117344,178.84236358071828,1.5375316374225299,-34.44404327709795,-0.001127133630937938,-0.0016072737081615782,-3.2986722862692825e-05,-0.25752263324737545,0.19789820026397706,-9.7022093375206
2026-09-11T18:25:16.636,0.06683476999933191,0.0,0.0,0.0,0.0,0.0,0.0,0.0,0.0,0.0,0.0,0.0,0.0,0.0,0.0,0.0,0.0,1,1789165516.4251678,38.991380961666664,-76.93674583666666,-10.067000000000004,0,1,147.8656,18.515809,257.69880900000004,1,1,1789165516.6294105,-0.955076447520691,0.29587837281600415,0.015892697896222007,-0.005691225227473668,178.83778367862948,1.5465815263327893,-34.441177642199,-0.00019739673840055868,-0.0028031733116280926,-0.0002919935838586513,-0.2607588278007507,0.20221312633514404,-9.699659608478546
2026-09-11T18:25:16.669,0.10024138700009644,0.0,0.0,0.0,0.0,0.0,0.0,0.0,0.0,0.0,0.0,0.0,0.0,0.0,0.0,0.0,0.0,1,1789165516.4251678,38.991380961666664,-76.93674583666666,-10.067000000000004,0,1,147.8656,18.515809,257.69880900000004,1,1,1789165516.6574104,-0.9550786229721615,0.29586784490165896,0.015949998480436493,-0.005713129030724693,178.83345595753542,1.5521229566280483,-34.44006616118753,0.0012226031410220279,0.0002790781473938933,0.000885230996611524,-0.2641911553573608,0.19897693178176878,-9.689656825313568
2026-09-11T18:25:16.703,0.13364617999923212,0.0,0.0,0.0,0.0,0.0,0.0,0.0,0.0,0.0,0.0,0.0,0.0,0.0,0.0,0.0,0.0,1,1789165516.4251678,38.991380961666664,-76.93674583666666,-10.067000000000004,0,1,147.8656,18.515809,257.69880900000004,1,1,1789165516.6974106,-0.955074502695734,0.2958918377414396,0.015771985633146097,-0.00565324045815393,178.84602171370264,1.5346416558004403,-34.442486201542444,0.00025918139392115794,-0.0013245303693384966,-0.0019580848878124383,-0.2625240248298645,0.19946726428985595,-9.696913746433257
2026-09-11T18:25:16.736,0.16704697299974214,0.0,0.0,0.0,0.0,0.0,0.0,0.0,0.0,0.0,0.0,0.0,0.0,0.0,0.0,0.0,0.0,1,1789165516.4251678,38.991380961666664,-76.93674583666666,-10.067000000000004,0,1,147.8656,18.515809,257.69880900000004,1,1,1789165516.7294104,-0.955070349791568,0.29590899890415906,0.01570805708594324,-0.00563455935590958,178.85021140889518,1.528257671927451,-34.444385567053565,0.0006330309196983432,-0.0005330235535590682,6.544984694978735e-05,-0.25850329826354984,0.19632913623809814,-9.699953807983398
2026-09-11T18:25:16.769,0.20045214999936434,0.0,0.0,0.0,0.0,0.0,0.0,0.0,0.0,0.0,0.0,0.0,0.0,0.0,0.0,0.0,0.0,1,1789165516.4251678,38.991380961666664,-76.93674583666666,-10.067000000000004,0,1,147.8656,18.515809,257.69880900000004,1,1,1789165516.7574105,-0.955076437906885,0.29588203187666434,0.01582681894238798,-0.005686191150282256,178.84056705679498,1.5395372150199746,-34.44146968176359,0.0006686356364390276,0.0016791812733437444,0.0005551892350593962,-0.2602684952926636,0.20005566329956057,-9.702405470523834
2026-09-11T18:25:16.803,0.23386052699970605,0.0,0.0,0.0,0.0,0.0,0.0,0.0,0.0,0.0,0.0,0.0,0.0,0.0,0.0,0.0,0.0,1,1789165516.4251678,38.991380961666664,-76.93674583666666,-10.067000000000004,0,1,147.8656,18.515809,257.69880900000004,1,1,1789165516.7974105,-0.9550893837700402,0.29583412944403686,0.01592903635347368,-0.0057186245464613495,178.83362113488235,1.549683301230552,-34.43598313645488,0.0003469714552964727,-0.0018198548110544875,-0.0003235840433197487,-0.2602684952926636,0.20182086032867433,-9.703876468048096
2026-09-11T18:25:16.836,0.2672642959996665,0.0,0.0,0.0,0.0,0.0,0.0,0.0,0.0,0.0,0.0,0.0,0.0,0.0,0.0,0.0,0.0,1,1789165516.4251678,38.991380961666664,-76.93674583666666,-10.067000000000004,0,1,147.8656,18.515809,257.69880900000004,1,1,1789165516.8294106,-0.9550836845207502,0.2958544604860018,0.015901966794280825,-0.005693963898611822,178.83720768741176,1.5475322300800132,-34.43833182454049,0.0012500048102783389,-0.0007976154681614085,0.0007827801695194568,-0.26321049034118654,0.1992711312866211,-9.696913746433257
2026-09-11T18:25:16.869,0.30067238499941595,0.0,0.0,0.0,0.0,0.0,0.0,0.0,0.0,0.0,0.0,0.0,0.0,0.0,0.0,0.0,0.0,1,1789165516.4251678,38.991380961666664,-76.93674583666666,-10.067000000000004,0,1,147.8656,18.515809,257.69880900000004,1,1,1789165516.8574104,-0.9550893054052864,0.2958340533979671,0.01593678139469191,-0.005714065921418962,178.83385727033402,1.5506857700627583,-34.43598447847368,0.0007485717161803679,0.0026508060679289874,0.00032759830059933564,-0.2625240248298645,0.19976146379470824,-9.696913746433257
2026-09-11T18:25:16.903,0.33407647399963025,0.0,0.0,0.0,0.0,0.0,0.0,0.0,0.0,0.0,0.0,0.0,0.0,0.0,0.0,0.0,0.0,1,1789165516.4251678,38.991380961666664,-76.93674583666666,-10.067000000000004,0,1,147.8656,18.515809,257.69880900000004,1,1,1789165516.8974104,-0.9550879051518987,0.29584130107219264,0.015886431787969054,-0.005713081262864956,178.83566366164385,1.5451993325834543,-34.43674520345597,2.478367537831948e-05,-0.0015507250403969618,0.0007751007208106817,-0.26046462829589845,0.2002517963027954,-9.692206554355622
2026-09-11T18:25:16.936,0.3674772349995692,0.0,0.0,0.0,0.0,0.0,0.0,0.0,0.0,0.0,0.0,0.0,0.0,0.0,0.0,0.0,0.0,1,1789165516.4251678,38.991380961666664,-76.93674583666666,-10.067000000000004,0,1,147.8656,18.515809,257.69880900000004,1,1,1789165516.9294105,-0.9550851781025215,0.2958514669792571,0.0158713232176701,-0.005684466062565339,178.83929338085466,1.5445040219704371,-34.4378946068304,0.0012587314565383105,-6.056292504420324e-05,0.00022392574303087246,-0.2635046898460388,0.19878079877853394,-9.694658216896057
2026-09-11T18:25:16.971,0.4008812599995508,0.0,0.0,0.0,0.0,0.0,0.0,0.0,0.0,0.0,0.0,0.0,0.0,0.0,0.0,0.0,0.0,1,1789165516.4251678,38.991380961666664,-76.93674583666666,-10.067000000000004,0,1,147.8656,18.515809,257.69880900000004,1,1,1789165516.9574106,-0.9550827980034665,0.29586268661691273,0.015806522748429565,-0.00568097388618127,178.8418589345489,1.5375162039079002,-34.43909837376533,-0.00029548424236264,0.00367810686565285,0.0002782054827678961,-0.2609549608039856,0.19878079877853394,-9.700934472999572
2026-09-11T18:25:17.004,0.4342902129992581,0.0,0.0,0.0,0.0,0.0,0.0,0.0,0.0,0.0,0.0,0.0,0.0,0.0,0.0,0.0,0.0,1,1789165516.4251678,38.991380961666664,-76.93674583666666,-10.067000000000004,0,1,147.8656,18.515809,257.69880900000004,1,1,1789165516.9974105,-0.9550872421188445,0.2958440077501159,0.015871552870785916,-0.005725105207649958,178.8348482748076,1.54315956421496,-34.437054256328835,0.0006588617926278593,-0.0003867649622419434,0.0004394739056521722,-0.26046462829589845,0.20221312633514404,-9.699855741481782
2026-09-11T18:25:17.036,0.46769804599989584,0.0,0.0,0.0,0.0,0.0,0.0,0.0,0.0,0.0,0.0,0.0,0.0,0.0,0.0,0.0,0.0,1,1789165516.4251678,38.991380961666664,-76.93674583666666,-10.067000000000004,0,1,147.8656,18.515809,257.69880900000004,1,1,1789165517.0294104,-0.9550758851349157,0.29589007059425526,0.01571613696544427,-0.005667697624922987,178.84633913016057,1.5280404683658761,-34.442175133796354,0.001202531854624093,-0.0008517206749732328,0.00021310470166850765,-0.25644390172958376,0.19838853277206422,-9.702895803031922
2026-09-11T18:25:17.069,0.5011092069998995,0.0,0.0,0.0,0.0,0.0,0.0,0.0,0.0,0.0,0.0,0.0,0.0,0.0,0.0,0.0,0.0,1,1789165516.4251678,38.991380961666664,-76.93674583666666,-10.067000000000004,0,1,147.8656,18.515809,257.69880900000004,1,1,1789165517.0574105,-0.955068036029632,0.2959202346847085,0.015637435558653087,-0.005633104632214302,178.85275217255304,1.5205638460108026,-34.44558312974897,-0.000831649388575298,0.0004602433237509047,-0.00020228366030614279,-0.2591897637748718,0.1961330032348633,-9.697404078941345
2026-09-11T18:25:17.103,0.5345241439999882,0.0,0.0,0.0,0.0,0.0,0.0,0.0,0.0,0.0,0.0,0.0,0.0,0.0,0.0,0.0,0.0,1,1789165516.4251678,38.991380961666664,-76.93674583666666,-10.067000000000004,0,1,147.8656,18.515809,257.69880900000004,1,1,1789165517.0964105,-0.95507577087871,0.2958858653837834,0.01579551451476704,-0.005685795260237619,178.84166775165627,1.536119629606309,-34.44186263200657,0.0012712978271526697,-0.0009599310885968813,0.0011964232022421129,-0.2580129657554626,0.1992711312866211,-9.699365408973694
2026-09-11T18:25:17.137,0.5679358479992516,0.0,0.0,0.0,0.0,0.0,0.0,0.0,0.0,0.0,0.0,0.0,0.0,0.0,0.0,0.0,0.0,1,1789165516.4251678,38.991380961666664,-76.93674583666666,-10.067000000000004,0,1,147.8656,18.515809,257.69880900000004,1,1,1789165517.1294105,-0.9550819745812607,0.2958606764383815,0.015882746296085628,-0.005711421668700777,178.83593921533543,1.5448286262600253,-34.43905997127954,0.0008787732783791449,0.0010185741514638909,0.0004363323129985824,-0.25977816278457644,0.20074212881088255,-9.701130606002808
2026-09-11T18:25:17.169,0.6013434569995297,0.0,0.0,0.0,0.0,0.0,0.0,0.0,0.0,0.0,0.0,0.0,0.0,0.0,0.0,0.0,0.0,1,1789165516.4251678,38.991380961666664,-76.93674583666666,-10.067000000000004,0,1,147.8656,18.515809,257.69880900000004,1,1,1789165517.1574104,-0.9550872002886609,0.2958399482270896,0.015945891496116527,-0.005735278733832635,178.8312157445498,1.5509560887744416,-34.436739717835266,0.00014800392056911913,0.0013245303693384966,-0.0011993902619705033,-0.26046462829589845,0.20221312633514404,-9.698875076465606
2026-09-11T18:25:17.204,0.6347561539996605,0.0,0.0,0.0,0.0,0.0,0.0,0.0,0.0,0.0,0.0,0.0,0.0,0.0,0.0,0.0,0.0,1,1789165516.4251678,38.991380961666664,-76.93674583666666,-10.067000000000004,0,1,147.8656,18.515809,257.69880900000004,1,1,1789165517.1974106,-0.9550830377475441,0.29586005063354476,0.01583167318927585,-0.005707851615767713,178.83806611096028,1.5393603577796342,-34.4388712693609,0.0016655677051781888,0.00033510321638291127,0.001081929603311285,-0.2586994312667847,0.19829046627044677,-9.694658216896057
2026-09-11T18:25:17.238,0.6681689469996854,0.0,0.0,0.0,0.0,0.0,0.0,0.0,0.0,0.0,0.0,0.0,0.0,0.0,0.0,0.0,0.0,1,1789165516.4251678,38.991380961666664,-76.93674583666666,-10.067000000000004,0,1,147.8656,18.515809,257.69880900000004,1,1,1789165517.2284105,-0.95507294873321,0.2959003957131749,0.015704250382076217,-0.005656406524914487,178.84796262865788,1.5271100917930502,-34.443374050709835,0.0010405653000390193,0.0013817771688039108,0.0008787732783791449,-0.25899363077163695,0.1980943332672119,-9.699659608478546
2026-09-11T18:25:17.270,0.7015728440001112,0.0,0.0,0.0,0.0,0.0,0.0,0.0,0.0,0.0,0.0,0.0,0.0,0.0,0.0,0.0,0.0,1,1789165516.4251678,38.991380961666664,-76.93674583666666,-10.067000000000004,0,1,147.8656,18.515809,257.69880900000004,1,1,1789165517.2564106,-0.9550764575260812,0.29588761107178324,0.015729845132778447,-0.005661613353441996,178.8465434766001,1.52975027250985,-34.44190095518284,-0.0009819222371720098,0.0012212068776204326,-0.001876927077594702,-0.2609549608039856,0.2002517963027954,-9.699169275970458
2026-09-11T18:25:17.304,0.7349853489995439,0.0,0.0,0.0,0.0,0.0,0.0,0.0,0.0,0.0,0.0,0.0,0.0,0.0,0.0,0.0,0.0,1,1789165516.4251678,38.991380961666664,-76.93674583666666,-10.067000000000004,0,1,147.8656,18.515809,257.69880900000004,1,1,1789165517.2964106,-0.9550835339905215,0.2958578585921475,0.015847288173984887,-0.005695091480912746,178.83893622242687,1.541505045724355,-34.43862451020853,0.0009290387608365816,-0.0001806415775814131,0.0009670869385300581,-0.2609549608039856,0.20123246131896974,-9.697109879436493
2026-09-11T18:25:17.337,0.7683966059994418,0.0,0.0,0.0,0.0,0.0,0.0,0.0,0.0,0.0,0.0,0.0,0.0,0.0,0.0,0.0,0.0,1,1789165516.4251678,38.991380961666664,-76.93674583666666,-10.067000000000004,0,1,147.8656,18.515809,257.69880900000004,1,1,1789165517.3294106,-0.9550818803802287,0.29586370391931566,0.01583512971432702,-0.00570255551839107,178.8385226368752,1.5399139216379067,-34.4393099422273,0.0009047786842338604,0.0015187855150854655,-0.0004105014400690663,-0.26046462829589845,0.1995653307914734,-9.70064027349472
2026-09-11T18:25:17.371,0.8018002149992753,0.0,0.0,0.0,0.0,0.0,0.0,0.0,0.0,0.0,0.0,0.0,0.0,0.0,0.0,0.0,0.0,1,1789165516.4251678,38.991380961666664,-76.93674583666666,-10.067000000000004,0,1,147.8656,18.515809,257.69880900000004,1,1,1789165517.3694105,-0.9550745168236537,0.2958898416269936,0.01579268031133317,-0.005697384013824462,178.84048887534118,1.535411395720725,-34.44234909886337,-4.520402762665313e-05,-0.0016495106760598408,0.00024870941840919196,-0.25850329826354984,0.20103632831573487,-9.701130606002808
2026-09-11T18:25:17.406,0.8352241759994286,0.0,0.0,0.0,0.0,0.0,0.0,0.0,0.0,0.0,0.0,0.0,0.0,0.0,0.0,0.0,0.0,1,1789165516.4251678,38.991380961666664,-76.93674583666666,-10.067000000000004,0,1,147.8656,18.515809,257.69880900000004,1,1,1789165517.3974104,-0.9550838340061104,0.29585283586481975,0.015903536110206423,-0.005748658115068188,178.831168837137,1.545850446511574,-34.438213307264164,0.0015409511965857935,0.002294584367596945,0.001108982206717197,-0.25977816278457644,0.20103632831573487,-9.699659608478546
2026-09-11T18:25:17.439,0.8686386649997075,0.0,0.0,0.0,0.0,0.0,0.0,0.0,0.0,0.0,0.0,0.0,0.0,0.0,0.0,0.0,0.0,1,1789165517.4238634,38.991380856666666,-76.93674534666667,-9.922,0,1,125.79865599999998,9.628609,133.102369,1,1,1789165517.4294105,-0.9551002894211066,0.2957932579690446,0.016008497005392763,-0.0057891028152063295,178.8232721605673,1.556040120475487,-34.431344121817325,0.0001965240737745615,0.003014707216969805,-0.0010232865404442755,-0.2582090987586975,0.19878079877853394,-9.69642341392517
2026-09-11T18:25:17.472,0.9020416659996044,0.0,0.0,0.0,0.0,0.0,0.0,0.0,0.0,0.0,0.0,0.0,0.0,0.0,0.0,0.0,0.0,1,1789165517.4238634,38.991380856666666,-76.93674534666667,-9.922,0,1,125.79865599999998,9.628609,133.102369,1,1,1789165517.4694104,-0.9550921997505551,0.29582346964267453,0.015937717003028363,-0.0057752888193148425,178.82713964325387,1.5487242793224718,-34.434798497662065,-0.0005157447939643244,-0.0035320228072609245,7.086036763096978e-05,-0.25899363077163695,0.20280152534484863,-9.706622330093383
2026-09-11T18:25:17.505,0.935505691999424,0.0,0.0,0.0,0.0,0.0,0.0,0.0,0.0,0.0,0.0,0.0,0.0,0.0,0.0,0.0,0.0,1,1789165517.4238634,38.991380856666666,-76.93674534666667,-9.922,0,1,125.79865599999998,9.628609,133.102369,1,1,1789165517.4974105,-0.9550986377026016,0.29580153419862404,0.015955538309507047,-0.005784930563854187,178.8255142643534,1.5503748125604842,-34.432217660347966,0.0010088003076527223,0.0011931070766633238,-0.0006997024971245267,-0.25752263324737545,0.1990749982833862,-9.702895803031922
2026-09-11T18:25:17.538,0.9689094599998498,0.0,0.0,0.0,0.0,0.0,0.0,0.0,0.0,0.0,0.0,0.0,0.0,0.0,0.0,0.0,0.0,1,1789165517.4238634,38.991380856666666,-76.93674534666667,-9.922,0,1,125.79865599999998,9.628609,133.102369,1,1,1789165517.5294104,-0.9551095627877275,0.2957582362870185,0.016091746724269846,-0.005817596341285217,178.81738223810106,1.564229188031358,-34.42736011563244,-0.0006251769380643688,0.0006548475353482724,0.0009599310885968813,-0.2635046898460388,0.1995653307914734,-9.699659608478546
2026-09-11T18:25:17.573,1.002325677999579,0.0,0.0,0.0,0.0,0.0,0.0,0.0,0.0,0.0,0.0,0.0,0.0,0.0,0.0,0.0,0.0,1,1789165517.4238634,38.991380856666666,-76.93674534666667,-9.922,0,1,125.79865599999998,9.628609,133.102369,1,1,1789165517.5694106,-0.9551076415190489,0.2957688283304375,0.016033415964447833,-0.005755247385731477,178.826172417742,1.559946018619606,-34.42842096478949,0.0010974630336540345,-0.003236189499047886,-0.00043196898986859656,-0.2602684952926636,0.19730980125427244,-9.699659608478546
2026-09-11T18:25:17.606,1.0357461189996684,0.0,0.0,0.0,0.0,0.0,0.0,0.0,0.0,0.0,0.0,0.0,0.0,0.0,0.0,0.0,0.0,1,1789165517.4238634,38.991380856666666,-76.93674534666667,-9.922,0,1,125.79865599999998,9.628609,133.102369,1,1,1789165517.5974104,-0.9551131557513216,0.29574869908656776,0.016073677032427906,-0.005762257024068909,178.824070547471,1.564139914448383,-34.42610195146841,0.0006421066318087139,0.001229060859254407,0.0010962413031776386,-0.25977816278457644,0.20005566329956057,-9.698384743957519
2026-09-11T18:25:17.639,1.06915654399927,0.0,0.0,0.0,0.0,0.0,0.0,0.0,0.0,0.0,0.0,0.0,0.0,0.0,0.0,0.0,0.0,1,1789165517.4238634,38.991380856666666,-76.93674534666667,-9.922,0,1,125.79865599999998,9.628609,133.102369,1,1,1789165517.6294105,-0.9551113447682127,0.2957589726591076,0.01599768057928633,-0.005746599235093634,178.82834899594326,1.5563399320506806,-34.42714991310796,-6.492624817418907e-05,0.0008415977653116657,0.0022743385482738108,-0.25624776872634886,0.1995653307914734,-9.701915138015746
2026-09-11T18:25:17.673,1.10256991299957,0.0,0.0,0.0,0.0,0.0,0.0,0.0,0.0,0.0,0.0,0.0,0.0,0.0,0.0,0.0,0.0,1,1789165517.4238634,38.991380856666666,-76.93674534666667,-9.922,0,1,125.79865599999998,9.628609,133.102369,1,1,1789165517.6694105,-0.9551025114377633,0.29579020571703174,0.015958471297516746,-0.005716121149845138,178.83296676904942,1.5530436886648147,-34.43077244114346,0.0001843067690106012,-0.0026748916116065098,0.0007593927575427328,-0.25850329826354984,0.1980943332672119,-9.700444140491486
2026-09-11T18:25:17.706,1.1359773609992772,0.0,0.0,0.0,0.0,0.0,0.0,0.0,0.0,0.0,0.0,0.0,0.0,0.0,0.0,0.0,0.0,1,1789165517.4238634,38.991380856666666,-76.93674534666667,-9.922,0,1,125.79865599999998,9.628609,133.102369,1,1,1789165517.6974106,-0.9551036724309393,0.29578928546367367,0.015912473233208768,-0.0056979566008298725,178.8365193128801,1.5486261412092646,-34.43053931294741,-0.00019617500792416264,0.002950828166346813,0.00026808257310632905,-0.2591897637748718,0.19829046627044677,-9.688970359802246
2026-09-11T18:25:17.740,1.1693841699998302,0.0,0.0,0.0,0.0,0.0,0.0,0.0,0.0,0.0,0.0,0.0,0.0,0.0,0.0,0.0,0.0,1,1789165517.4238634,38.991380856666666,-76.93674534666667,-9.922,0,1,125.79865599999998,9.628609,133.102369,1,1,1789165517.7294104,-0.9550972347246512,0.29581382259780864,0.015844343216446222,-0.005693098403863566,178.83932554140648,1.5413038380810173,-34.433331743931326,-0.0005918411493512772,0.001143190660056286,0.001841845959629616,-0.26046462829589845,0.1995653307914734,-9.701130606002808
2026-09-11T18:25:17.773,1.202798050999263,0.0,0.0,0.0,0.0,0.0,0.0,0.0,0.0,0.0,0.0,0.0,0.0,0.0,0.0,0.0,0.0,1,1789165517.4238634,38.991380856666666,-76.93674534666667,-9.922,0,1,125.79865599999998,9.628609,133.102369,1,1,1789165517.7694104,-0.9550995473739082,0.295807523951571,0.0158321788019603,-0.005666171033325811,178.84269704097244,1.5408934052331127,-34.432514269276325,0.0017482963117227198,0.00040840704496667313,-0.00047123889803846896,-0.2599742957878113,0.1968194687461853,-9.700934472999572
2026-09-11T18:25:17.805,1.236206107999351,0.0,0.0,0.0,0.0,0.0,0.0,0.0,0.0,0.0,0.0,0.0,0.0,0.0,0.0,0.0,0.0,1,1789165517.4238634,38.991380856666666,-76.93674534666667,-9.922,0,1,125.79865599999998,9.628609,133.102369,1,1,1789165517.7974105,-0.9550892155092691,0.29584861993332906,0.015693143428134323,-0.005648871637537129,178.84924765755392,1.5262124498059793,-34.43712809427276,-0.0007586946258419351,0.002421469804216933,-0.0003946189438759179,-0.2622298253250122,0.20123246131896974,-9.698875076465606
2026-09-11T18:25:17.838,1.2696077649998188,0.0,0.0,0.0,0.0,0.0,0.0,0.0,0.0,0.0,0.0,0.0,0.0,0.0,0.0,0.0,0.0,1,1789165517.4238634,38.991380856666666,-76.93674534666667,-9.922,0,1,125.79865599999998,9.628609,133.102369,1,1,1789165517.8294106,-0.9550924708102959,0.2958379955221627,0.015690775831067837,-0.0056614627731719665,178.84796652297763,1.5255389731358027,-34.43586488278788,-0.00126501464184549,0.00027419122548830914,-0.0027647760680842176,-0.2602684952926636,0.2002517963027954,-9.701915138015746
2026-09-11T18:25:17.873,1.303019117999611,0.0,0.0,0.0,0.0,0.0,0.0,0.0,0.0,0.0,0.0,0.0,0.0,0.0,0.0,0.0,0.0,1,1789165517.4238634,38.991380856666666,-76.93674534666667,-9.922,0,1,125.79865599999998,9.628609,133.102369,1,1,1789165517.8694105,-0.9550820109288394,0.2958731148402353,0.015667584683672808,-0.005655007076999563,178.84940505009226,1.5231772841053395,-34.44002142550219,0.0006372197099031297,-0.0009075712110370514,0.0023366468025700082,-0.26046462829589845,0.2002517963027954,-9.696913746433257
2026-09-11T18:25:17.906,1.3364370949993827,0.0,0.0,0.0,0.0,0.0,0.0,0.0,0.0,0.0,0.0,0.0,0.0,0.0,0.0,0.0,0.0,1,1789165517.4238634,38.991380856666666,-76.93674534666667,-9.922,0,1,125.79865599999998,9.628609,133.102369,1,1,1789165517.8974104,-0.9550857463626476,0.29585380646157927,0.015792032720741436,-0.005688057633837434,178.8415898990812,1.535700658926943,-34.438011481679425,-0.0014554300632380714,-0.00011641346110802177,0.00046949356878647465,-0.2629162908363342,0.19750593425750734,-9.69416788438797
2026-09-11T18:25:17.940,1.3698489600001267,0.0,0.0,0.0,0.0,0.0,0.0,0.0,0.0,0.0,0.0,0.0,0.0,0.0,0.0,0.0,0.0,1,1789165517.4238634,38.991380856666666,-76.93674534666667,-9.922,0,1,125.79865599999998,9.628609,133.102369,1,1,1789165517.9294105,-0.9550871261939614,0.2958497364313637,0.01579128246170374,-0.005670117306311123,178.84358611456562,1.5362320985580311,-34.43749772757893,-0.001234820445785988,2.2863813201125715e-05,-5.427973973702365e-05,-0.2580129657554626,0.19730980125427244,-9.699953807983398
2026-09-11T18:25:17.973,1.4032493689992407,0.0,0.0,0.0,0.0,0.0,0.0,0.0,0.0,0.0,0.0,0.0,0.0,0.0,0.0,0.0,0.0,1,1789165517.4238634,38.991380856666666,-76.93674534666667,-9.922,0,1,125.79865599999998,9.628609,133.102369,1,1,1789165517.9694104,-0.9550877450746635,0.29585143036465317,0.015721301200494683,-0.005671952745443438,178.8457596614191,1.528508031617306,-34.437555222916544,0.0008319984544256969,0.0027197465733827635,-0.0010067059125503292,-0.2580129657554626,0.19887886528015136,-9.701915138015746
2026-09-11T18:25:18.006,1.436652497999603,0.0,0.0,0.0,0.0,0.0,0.0,0.0,0.0,0.0,0.0,0.0,0.0,0.0,0.0,0.0,0.0,1,1789165517.4238634,38.991380856666666,-76.93674534666667,-9.922,0,1,125.79865599999998,9.628609,133.102369,1,1,1789165517.9964104,-0.9550945772734193,0.2958211430780447,0.015862724694064485,-0.005707340553002743,178.83713005867483,1.542823773950813,-34.4342682390389,-0.0018210765415308835,-0.0005223770451219028,-0.0010234610733694748,-0.26173949281692505,0.19878079877853394,-9.700149940986634
2026-09-11T18:25:18.040,1.4700533229997745,0.0,0.0,0.0,0.0,0.0,0.0,0.0,0.0,0.0,0.0,0.0,0.0,0.0,0.0,0.0,0.0,1,1789165517.4238634,38.991380856666666,-76.93674534666667,-9.922,0,1,125.79865599999998,9.628609,133.102369,1,1,1789165518.0294104,-0.9550982481793271,0.29580902112548724,0.01586917518324573,-0.005703387113413033,178.83736339309547,1.543678676799105,-34.43282222488149,-0.0019488346427768684,-0.0026675612287481334,-0.002628291320578261,-0.2586994312667847,0.19829046627044677,-9.696129214420319
2026-09-11T18:25:18.074,1.503455235999354,0.0,0.0,0.0,0.0,0.0,0.0,0.0,0.0,0.0,0.0,0.0,0.0,0.0,0.0,0.0,0.0,1,1789165517.4238634,38.991380856666666,-76.93674534666667,-9.922,0,1,125.79865599999998,9.628609,133.102369,1,1,1789165518.0694106,-0.955099861368322,0.29580356267502794,0.015872083955741804,-0.005708246129477148,178.83674142420895,1.5438388864590598,-34.43217995678283,0.0003152064629101759,0.0014737560203840119,0.0011878710889073405,-0.2614452933120727,0.19829046627044677,-9.702895803031922
2026-09-11T18:25:18.107,1.5368676769994636,0.0,0.0,0.0,0.0,0.0,0.0,0.0,0.0,0.0,0.0,0.0,0.0,0.0,0.0,0.0,0.0,1,1789165517.4238634,38.991380856666666,-76.93674534666667,-9.922,0,1,125.79865599999998,9.628609,133.102369,1,1,1789165518.0974104,-0.9551068744234624,0.295773666454319,0.015998622931638434,-0.005730682813131575,178.83003569894314,1.556964887356712,-34.42889360039167,-0.0011447614563830806,5.969026041820607e-05,0.0002523746098383801,-0.26046462829589845,0.19730980125427244,-9.702405470523834
2026-09-11T18:25:18.139,1.5702800219996789,0.0,0.0,0.0,0.0,0.0,0.0,0.0,0.0,0.0,0.0,0.0,0.0,0.0,0.0,0.0,0.0,1,1789165517.4238634,38.991380856666666,-76.93674534666667,-9.922,0,1,125.79865599999998,9.628609,133.102369,1,1,1789165518.1294105,-0.9551090834202871,0.2957689459148982,0.015969308372949683,-0.005687757953596773,178.83573871801147,1.5552178255445905,-34.42820665589227,-0.0005098106745075436,-0.002639985026566623,-0.0016680111661309808,-0.26173949281692505,0.19829046627044677,-9.70064027349472
2026-09-11T18:25:18.172,1.6036834070000623,0.0,0.0,0.0,0.0,0.0,0.0,0.0,0.0,0.0,0.0,0.0,0.0,0.0,0.0,0.0,0.0,1,1789165517.4238634,38.991380856666666,-76.93674534666667,-9.922,0,1,125.79865599999998,9.628609,133.102369,1,1,1789165518.1704638,-0.9551046688980229,0.2957878949123245,0.015885753204711608,-0.005677633103045635,178.83965422317175,1.5463924871193477,-34.430288297469055,-0.0005553637679845956,0.0009204866475018094,0.0008319984544256969,-0.25899363077163695,0.1995653307914734,-9.699169275970458
2026-09-11T18:25:18.207,1.6370962000000873,0.0,0.0,0.0,0.0,0.0,0.0,0.0,0.0,0.0,0.0,0.0,0.0,0.0,0.0,0.0,0.0,1,1789165517.4238634,38.991380856666666,-76.93674534666667,-9.922,0,1,125.79865599999998,9.628609,133.102369,1,1,1789165518.1984637,-0.9551131999472674,0.2957539931512181,0.015995571769093664,-0.005700219765970694,178.8335067383482,1.557688147411891,-34.42648553228153,-0.0010210176124166828,-0.002567728395534058,-0.0027602382120290323,-0.2607588278007507,0.1990749982833862,-9.697894411449433
2026-09-11T18:25:18.241,1.6705096010000489,0.0,0.0,0.0,0.0,0.0,0.0,0.0,0.0,0.0,0.0,0.0,0.0,0.0,0.0,0.0,0.0,1,1789165517.4238634,38.991380856666666,-76.93674534666667,-9.922,0,1,125.79865599999998,9.628609,133.102369,1,1,1789165518.2304637,-0.9551097369759209,0.29576859073704376,0.01593418632937535,-0.005694977895547234,178.83614159669716,1.5511290279527237,-34.428098608397036,-0.0009361946107697583,-0.0034499923324171912,-0.0004525638750421297,-0.2532077071762085,0.19887886528015136,-9.699953807983398
2026-09-11T18:25:18.274,1.70392207399982,0.0,0.0,0.0,0.0,0.0,0.0,0.0,0.0,0.0,0.0,0.0,0.0,0.0,0.0,0.0,0.0,1,1789165517.4238634,38.991380856666666,-76.93674534666667,-9.922,0,1,125.79865599999998,9.628609,133.102369,1,1,1789165518.2704637,-0.9551108043548072,0.2957679893977799,0.015882580358127726,-0.005691352517260933,178.83829210077604,1.5456040736410277,-34.42791145052089,0.0011173597871267696,0.0022743385482738108,0.00019041542139258135,-0.2594839632797241,0.1980943332672119,-9.69720794593811
2026-09-11T18:25:18.307,1.7373434749997614,0.0,0.0,0.0,0.0,0.0,0.0,0.0,0.0,0.0,0.0,0.0,0.0,0.0,0.0,0.0,0.0,1,1789165517.4238634,38.991380856666666,-76.93674534666667,-9.922,0,1,125.79865599999998,9.628609,133.102369,1,1,1789165518.2974637,-0.9551027591232135,0.2958011797821308,0.015764924377702428,-0.0056434664958443185,178.8474773324539,1.5343098052610482,-34.431580308144746,0.00036878807094640185,0.0007073819458333017,0.0009585348251952857,-0.25899363077163695,0.19838853277206422,-9.706622330093383
2026-09-11T18:25:18.340,1.7707453559996793,0.0,0.0,0.0,0.0,0.0,0.0,0.0,0.0,0.0,0.0,0.0,0.0,0.0,0.0,0.0,0.0,1,1789165517.4238634,38.991380856666666,-76.93674534666667,-9.922,0,1,125.79865599999998,9.628609,133.102369,1,1,1789165518.3304636,-0.9551018748267013,0.2958021041435823,0.015800940897410333,-0.005643948396826201,178.8461998253296,1.5382345720927757,-34.43176812165533,0.0004937536453891958,-0.0011121237993707868,0.0005174901232163187,-0.26173949281692505,0.20093826181411745,-9.693187219371795
2026-09-11T18:25:18.373,1.8041540849999365,0.0,0.0,0.0,0.0,0.0,0.0,0.0,0.0,0.0,0.0,0.0,0.0,0.0,0.0,0.0,0.0,1,1789165517.4238634,38.991380856666666,-76.93674534666667,-9.922,0,1,125.79865599999998,9.628609,133.102369,1,1,1789165518.3704638,-0.955117175961778,0.2957432839185249,0.015946491285962653,-0.005727094861421362,178.8322483984572,1.551417555425537,-34.425131495418256,0.00022235494670407756,0.002877524337763051,0.00035360370645405115,-0.26193562582015995,0.19976146379470824,-9.693873684883117
2026-09-11T18:25:18.408,1.8375692459994752,0.0,0.0,0.0,0.0,0.0,0.0,0.0,0.0,0.0,0.0,0.0,0.0,0.0,0.0,0.0,0.0,1,1789165517.4238634,38.991380856666666,-76.93674534666667,-9.922,0,1,125.79865599999998,9.628609,133.102369,1,1,1789165518.3984637,-0.9551180278073659,0.2957408347763543,0.015937751426117842,-0.005735824494552297,178.83159337197353,1.5501678553216407,-34.424830611384806,-0.0009567894959432914,-0.0019336502782845177,-0.0003441789284932818,-0.2586994312667847,0.201526660823822,-9.696129214420319
2026-09-11T18:25:18.440,1.8710414309998669,0.0,0.0,0.0,0.0,0.0,0.0,0.0,0.0,0.0,0.0,0.0,0.0,0.0,0.0,0.0,0.0,1,1789165518.422721,38.99138078,-76.93674503333334,-9.857000000000003,0,1,125.75379600000001,9.622404,133.056225,1,1,1789165518.4294636,-0.9551072413582831,0.295784572902234,0.015791022358849553,-0.005682213554242313,178.84237538947977,1.5358722456534795,-34.42969436512514,-2.7401669256310975e-05,-0.0019357446733869108,0.000244695161129605,-0.2591897637748718,0.1971136682510376,-9.701130606002808
2026-09-11T18:25:18.473,1.9044620639997447,0.0,0.0,0.0,0.0,0.0,0.0,0.0,0.0,0.0,0.0,0.0,0.0,0.0,0.0,0.0,0.0,1,1789165518.422721,38.99138078,-76.93674503333334,-9.857000000000003,0,1,125.75379600000001,9.622404,133.056225,1,1,1789165518.4704638,-0.9551035807910963,0.2958012392267431,0.01571180248756469,-0.00564943311672931,178.84862817900014,1.528292834519864,-34.4314830760442,-0.0008175122216341439,0.00026232298657474773,-0.001343205392334836,-0.25899363077163695,0.1971136682510376,-9.703190002536774
2026-09-11T18:25:18.506,1.9378690329995152,0.0,0.0,0.0,0.0,0.0,0.0,0.0,0.0,0.0,0.0,0.0,0.0,0.0,0.0,0.0,0.0,1,1789165518.422721,38.99138078,-76.93674503333334,-9.857000000000003,0,1,125.75379600000001,9.622404,133.056225,1,1,1789165518.4984636,-0.9550926848804305,0.29584301352665254,0.015601103508610437,-0.005610722295124517,178.8565597340279,1.517439167990299,-34.43621171551837,-0.00019268434942017396,-0.0020706586245660724,-0.0017484708446479193,-0.25850329826354984,0.19829046627044677,-9.695638881912231
2026-09-11T18:25:18.542,1.971272737999243,0.0,0.0,0.0,0.0,0.0,0.0,0.0,0.0,0.0,0.0,0.0,0.0,0.0,0.0,0.0,0.0,1,1789165518.422721,38.99138078,-76.93674503333334,-9.857000000000003,0,1,125.75379600000001,9.622404,133.056225,1,1,1789165518.5384638,-0.9551038367496584,0.2957944217466701,0.015810189308130017,-0.005688497488485671,178.84102057434177,1.5377451103224784,-34.43092513541816,-0.0009339256827421658,0.0009185667853246157,6.667157742618339e-05,-0.2609549608039856,0.20201699333190917,-9.69642341392517
2026-09-11T18:25:18.575,2.004680346999521,0.0,0.0,0.0,0.0,0.0,0.0,0.0,0.0,0.0,0.0,0.0,0.0,0.0,0.0,0.0,0.0,1,1789165518.422721,38.99138078,-76.93674503333334,-9.857000000000003,0,1,125.75379600000001,9.622404,133.056225,1,1,1789165518.5704637,-0.9551138597617904,0.29575490365442364,0.015923773116535853,-0.005743283471201656,178.83122856964636,1.54836764773587,-34.42649873385554,-0.001541125729510993,0.0005331980864842677,-0.0011847294962537508,-0.2612491603088379,0.1990749982833862,-9.702405470523834
2026-09-11T18:25:18.608,2.03809848399942,0.0,0.0,0.0,0.0,0.0,0.0,0.0,0.0,0.0,0.0,0.0,0.0,0.0,0.0,0.0,0.0,1,1789165518.422721,38.99138078,-76.93674503333334,-9.857000000000003,0,1,125.75379600000001,9.622404,133.056225,1,1,1789165518.5984638,-0.9551128801055572,0.29576059447049885,0.01587967797090789,-0.00573522819638836,178.83359878294345,1.5438073413738445,-34.4270765112178,-6.14355896702004e-05,-0.00232687295875884,-0.0011175343200519692,-0.2572284337425232,0.19887886528015136,-9.703876468048096
2026-09-11T18:25:18.641,2.0715064449996134,0.0,0.0,0.0,0.0,0.0,0.0,0.0,0.0,0.0,0.0,0.0,0.0,0.0,0.0,0.0,0.0,1,1789165518.422721,38.99138078,-76.93674503333334,-9.857000000000003,0,1,125.75379600000001,9.622404,133.056225,1,1,1789165518.6384637,-0.9551120000374546,0.29576236320924804,0.015901612210338374,-0.005729801257134482,178.83344521145224,1.5463900993487472,-34.427328354409596,-0.0012793263417118436,0.0012882275208970146,0.000532150888933071,-0.2627201578330994,0.19848659927368165,-9.69642341392517
2026-09-11T18:25:18.674,2.104905477999637,0.0,0.0,0.0,0.0,0.0,0.0,0.0,0.0,0.0,0.0,0.0,0.0,0.0,0.0,0.0,0.0,1,1789165518.422721,38.99138078,-76.93674503333334,-9.857000000000003,0,1,125.75379600000001,9.622404,133.056225,1,1,1789165518.6704638,-0.955118924647523,0.2957376616536925,0.01593893281655384,-0.005746797406804507,178.83035699416217,1.5499289314733353,-34.424467105131384,-0.0013564698946499929,-0.000676838683923401,-0.0001949532774477666,-0.25899363077163695,0.1995653307914734,-9.694364017391205
2026-09-11T18:25:18.708,2.1383095989995127,0.0,0.0,0.0,0.0,0.0,0.0,0.0,0.0,0.0,0.0,0.0,0.0,0.0,0.0,0.0,0.0,1,1789165518.422721,38.99138078,-76.93674503333334,-9.857000000000003,0,1,125.75379600000001,9.622404,133.056225,1,1,1789165518.6984637,-0.9551173863522741,0.29574564500891465,0.015887662231495576,-0.00573357956949188,178.8335323198812,1.5447554469207825,-34.425297638657014,0.0011081095420912,-0.001576206847476079,0.0013196434474329125,-0.25899363077163695,0.19858466577529907,-9.699953807983398
2026-09-11T18:25:18.742,2.1717261679996227,0.0,0.0,0.0,0.0,0.0,0.0,0.0,0.0,0.0,0.0,0.0,0.0,0.0,0.0,0.0,0.0,1,1789165518.422721,38.99138078,-76.93674503333334,-9.857000000000003,0,1,125.75379600000001,9.622404,133.056225,1,1,1789165518.7384636,-0.9551150773806109,0.2957601947227279,0.015768418090710994,-0.005696768269884796,178.84158865625284,1.5329339672422098,-34.42674065464434,-0.0016884315183793145,-0.00024260076602721178,-0.001917244183315771,-0.25850329826354984,0.19760400075912476,-9.699953807983398
2026-09-11T18:25:18.775,2.2051250089998575,0.0,0.0,0.0,0.0,0.0,0.0,0.0,0.0,0.0,0.0,0.0,0.0,0.0,0.0,0.0,0.0,1,1789165518.422721,38.99138078,-76.93674503333334,-9.857000000000003,0,1,125.75379600000001,9.622404,133.056225,1,1,1789165518.7694638,-0.9551130787602543,0.2957755351566317,0.015585760025918178,-0.00573791498116641,178.84326214062716,1.511526644585258,-34.428249328510645,0.0001223475805648025,0.0011773991133953749,-0.0015296065564478303,-0.21741343408584593,0.20417445636749268,-9.723097502365112
2026-09-11T18:25:18.808,2.238533097999607,0.0,0.0,0.0,0.0,0.0,0.0,0.0,0.0,0.0,0.0,0.0,0.0,0.0,0.0,0.0,0.0,1,1789165518.422721,38.99138078,-76.93674503333334,-9.857000000000003,0,1,125.75379600000001,9.622404,133.056225,1,1,1789165518.7984638,-0.955115570183231,0.29574945714087103,0.015897188098331162,-0.005812538602729414,178.8245575859411,1.5431156767367011,-34.42588073747748,0.001374621318870734,0.0018352137084720374,-3.508111796508603e-05,-0.27772433258056645,0.21368690702438356,-9.662296271362305
2026-09-11T18:25:18.842,2.2719386589997157,0.0,0.0,0.0,0.0,0.0,0.0,0.0,0.0,0.0,0.0,0.0,0.0,0.0,0.0,0.0,0.0,1,1789165518.422721,38.99138078,-76.93674503333334,-9.857000000000003,0,1,125.75379600000001,9.622404,133.056225,1,1,1789165518.8384638,-0.9551167193264576,0.29577468720515143,0.015350980456468493,-0.005808121106253396,178.8435497376038,1.4834483703139985,-34.42774585572662,-0.001078788010657695,0.019240684206910687,-0.0006021385919380437,-0.1611232621574402,0.1546508730506897,-9.660629140834809
2026-09-11T18:25:18.875,2.3054950999994617,0.0,0.0,0.0,0.0,0.0,0.0,0.0,0.0,0.0,0.0,-0.0047779083251953125,-39.140625,-1.7200469970703125,-0.3051758110523224,-109.86329197883606,-3273.9852232740577,1,1789165518.422721,38.99138078,-76.93674503333334,-9.857000000000003,0,1,125.75379600000001,9.622404,133.056225,1,1,1789165518.8704638,-0.9551631656409165,0.29565883716680513,0.014540963089616813,-0.006143240221738238,178.83453195671405,1.3835627210547348,-34.412589014191376,-0.001318596249881716,0.0410902865797025,-0.004943296040423539,-0.045012524242401125,0.15837740011215212,-9.546479732952118
2026-09-11T18:25:18.909,2.3389159889993607,0.0,0.0,0.0,0.0,0.0,0.0,0.0,0.0,0.0,0.0,-0.016149520874023438,-132.296875,-5.8138275146484375,-0.3967285454273224,-142.82227635383606,-986.1791640282091,1,1789165518.422721,38.99138078,-76.93674503333334,-9.857000000000003,0,1,125.75379600000001,9.622404,133.056225,1,1,1789165518.8984637,-0.9552776186816963,0.29539260465807793,0.011905316826566531,-0.0067929220813548455,178.85313406359617,1.0733621322036468,-34.37623433686494,-0.0004944517770899936,0.03830334483011796,-0.02393684162525183,0.46571781618118285,0.17985396396636963,-9.770071356639862
2026-09-11T18:25:18.942,2.3723185099997863,0.0,0.0,0.0,0.0,0.0,0.0,0.0,0.0,0.0,0.0,-0.031097412109375,-254.75,-11.195068359375,-0.3204346299171448,-115.35646677017212,822.2675642749829,1,1789165518.422721,38.99138078,-76.93674503333334,-9.857000000000003,0,1,125.75379600000001,9.622404,133.056225,1,1,1789165518.9384637,-0.9554648705060844,0.29477139316258655,0.012429178258792159,-0.006497886547957331,178.8684232707393,1.1414363198356516,-34.302408727079886,-0.0018308503853420516,0.012013799373177767,-0.026634597050059463,-0.19230840967178345,0.13160524517059327,-9.708975926132203
2026-09-11T18:25:18.975,2.405722214999514,0.0,0.0,0.0,0.0,0.0,0.0,0.0,0.0,0.0,0.0,-0.03993415832519531,-327.140625,-14.376296997070312,-0.2899170517921448,-104.37013864517212,328.89549602625016,1,1789165518.422721,38.99138078,-76.93674503333334,-9.857000000000003,0,1,125.75379600000001,9.622404,133.056225,1,1,1789165518.9704638,-0.955586604328127,0.2943793353187119,0.012331384987196155,-0.006556333598167678,178.8657936031162,1.1292190404071,-34.25526709300562,0.00205599785884932,-0.009835279400838446,-0.025999995334034326,-0.23506540437698367,0.2573265002441406,-9.732413820018769
2026-09-11T18:25:19.009,2.4391286399995806,0.0,0.0,0.0,0.0,0.0,0.0,0.0,0.0,0.0,0.0,-0.05373573303222656,-440.203125,-19.344863891601562,-0.5645752549171448,-203.24709177017212,-2959.818451833835,1,1789165518.422721,38.99138078,-76.93674503333334,-9.857000000000003,0,1,125.75379600000001,9.622404,133.056225,1,1,1789165518.9984636,-0.955675609332703,0.29404339829209647,0.013238974561668265,-0.006880348825290994,178.80007211540118,1.2180904705692603,-34.21704897391561,0.001856855791196767,-0.006276553056022008,-0.023302763508002294,-0.324207854347229,0.27968566261291505,-9.680928906669616
2026-09-11T18:25:19.043,2.4725483129996064,0.0,0.0,0.0,0.0,0.0,0.0,0.0,0.0,0.0,0.0,-0.06993865966796875,-572.9375,-25.17791748046875,-0.07629400491714478,-27.46584177017212,5259.813583450213,1,1789165518.422721,38.99138078,-76.93674503333334,-9.857000000000003,0,1,125.75379600000001,9.622404,133.056225,1,1,1789165519.0384638,-0.9558540955268745,0.29349755626539287,0.012123218674194351,-0.007426984564478263,178.77846047177326,1.0781669597335033,-34.14998245454502,0.0014622368473208491,-0.003497814353921836,-0.03236870177456164,-0.00029419950485229493,0.21555017055511475,-9.656118081760408
2026-09-11T18:25:19.076,2.505962610000097,0.0,0.0,0.0,0.0,0.0,0.0,0.0,0.0,0.0,0.0,-0.07771682739257812,-636.65625,-27.978057861328125,-0.4425049424171448,-159.30177927017212,-3945.4948729899907,1,1789165518.422721,38.99138078,-76.93674503333334,-9.857000000000003,0,1,125.75379600000001,9.622404,133.056225,1,1,1789165519.0704637,-0.9560015318815577,0.29295547574637165,0.013478865184535574,-0.007515348539447888,178.72381035739514,1.2244069690214006,-34.08777720512474,0.002005557843466684,-0.01683911115616649,-0.03351503402727151,-0.456205365524292,0.34862641324996946,-9.81518194738388
2026-09-11T18:25:19.109,2.5393691629997193,0.0,0.0,0.0,0.0,0.0,0.0,0.0,0.0,0.0,0.0,-0.0923004150390625,-756.125,-33.2281494140625,-0.6561279892921448,-236.20607614517212,-2302.0721975077568,1,1789165518.422721,38.99138078,-76.93674503333334,-9.857000000000003,0,1,125.75379600000001,9.622404,133.056225,1,1,1789165519.0984638,-0.9560968294031613,0.2926174647962246,0.014091668795777085,-0.0074361933812052425,178.7123342445817,1.2946555711726202,-34.04845129997122,0.005068261614866333,-0.011656181409444131,-0.027256806928395445,-0.2029976583480835,0.24251845849990844,-9.756538179416657
2026-09-11T18:25:19.142,2.572774019999997,0.0,0.0,0.0,0.0,0.0,0.0,0.0,0.0,0.0,0.0,-0.10619735717773438,-869.96875,-38.231048583984375,-0.15258795022964478,-54.93166208267212,5426.588536541026,1,1789165518.422721,38.99138078,-76.93674503333334,-9.857000000000003,0,1,125.75379600000001,9.622404,133.056225,1,1,1789165519.1384637,-0.9562790526686602,0.29202506421214597,0.013981332583603375,-0.007500509196595708,178.7097855019465,1.2812081771872894,-33.9772967089467,0.0026305602486058535,-0.018983248142241525,-0.03457427435030687,-0.3197948617744446,0.24075326147079468,-9.730550556488037
2026-09-11T18:25:19.176,2.606177660999492,0.0,0.0,0.0,0.0,0.0,0.0,0.0,0.0,0.0,0.0,-0.12484169006347656,-1022.703125,-44.94300842285156,-0.8392334580421448,-302.1240448951721,-7400.162839022138,1,1789165518.422721,38.99138078,-76.93674503333334,-9.857000000000003,0,1,125.75379600000001,9.622404,133.056225,1,1,1789165519.1704638,-0.9563951477197118,0.2915885202991546,0.015474795072791545,-0.0067072323200740944,178.74734064785923,1.472006503529538,-33.92722687689383,0.003671649147420471,-0.021165782371860432,-0.026070506635814897,-0.3530394058227539,0.19662333574295043,-9.656706480770112
2026-09-11T18:25:19.210,2.639592437999454,0.0,0.0,0.0,0.0,0.0,0.0,0.0,0.0,0.0,0.0,-0.1425914764404297,-1168.109375,-51.33293151855469,0.03051757998764515,10.986328795552254,9370.416378690263,1,1789165518.422721,38.99138078,-76.93674503333334,-9.857000000000003,0,1,125.75379600000001,9.622404,133.056225,1,1,1789165519.1984637,-0.9565215505550984,0.2912380204089621,0.014351187752362339,-0.0064017342990702756,178.81894614209196,1.3595033876140032,-33.882499280796864,0.00482304285496113,-0.009503666842959523,-0.030269245217337655,-0.04216859569549561,0.12513285606384278,-9.710152724151612
2026-09-11T18:25:19.243,2.673008366999966,0.0,0.0,0.0,0.0,0.0,0.0,0.0,0.0,0.0,0.0,-0.1520977020263672,-1245.984375,-54.75517272949219,-0.4730225205421448,-170.28810739517212,-5424.791158370843,1,1789165518.422721,38.99138078,-76.93674503333334,-9.857000000000003,0,1,125.75379600000001,9.622404,133.056225,1,1,1789165519.2384636,-0.9567313707228339,0.2905308860649649,0.014934663771227897,-0.0058175884311526035,178.86455296454326,1.443808452934488,-33.798261410162425,0.0033168237104900236,-0.01050513676775387,-0.03314676955510071,-0.4369843312072754,0.2315350103187561,-9.686028364753723
2026-09-11T18:25:19.276,2.706412423999609,0.0,0.0,0.0,0.0,0.0,0.0,0.0,0.0,0.0,0.0,-0.1715412139892578,-1405.265625,-61.75483703613281,-0.7171631455421448,-258.1787323951721,-2631.1362419522497,1,1789165518.422721,38.99138078,-76.93674503333334,-9.857000000000003,0,1,125.75379600000001,9.622404,133.056225,1,1,1789165519.2704637,-0.9568549510193859,0.2901407368477589,0.014854640643158048,-0.005127882846817869,178.94345600726513,1.458441505332844,-33.75050260189016,0.002219709742686388,0.0007180284542704673,-0.030189832736371915,-0.17298930885314942,0.14582488790512085,-9.717605778274537
2026-09-11T18:25:19.309,2.739823457000057,0.0,0.0,0.0,0.0,0.0,0.0,0.0,0.0,0.0,0.0,-0.1828899383544922,-1498.234375,-65.84037780761719,-0.15258795022964478,-54.93166208267212,6083.232155970036,1,1789165518.422721,38.99138078,-76.93674503333334,-9.857000000000003,0,1,125.75379600000001,9.622404,133.056225,1,1,1789165519.2984638,-0.9569661470271777,0.28977999108355146,0.014826200283617691,-0.004851185084617825,178.97530449466439,1.464914213238301,-33.706892604578236,0.004421442594077235,0.003613180617478661,-0.031249247592332476,-0.38952014442443844,0.20692031841278077,-9.649547626152039
2026-09-11T18:25:19.343,2.7732390339997437,0.0,0.0,0.0,0.0,0.0,0.0,0.0,0.0,0.0,0.0,-0.20269393920898438,-1660.46875,-72.96981811523438,-0.8544922471046448,-307.6172089576721,-7561.908833038187,1,1789165518.422721,38.99138078,-76.93674503333334,-9.857000000000003,0,1,125.75379600000001,9.622404,133.056225,1,1,1789165519.3384638,-0.9570493763222798,0.28941825336471977,0.016435991997303417,-0.004839841682816358,178.92361237196044,1.6422436693743798,-33.666776191767504,0.0029297096823976817,-0.014042570095695976,-0.018486527437123937,-0.25438450519561767,0.21280430850982668,-9.70024800748825
2026-09-11T18:25:19.376,2.8066578429998117,0.0,0.0,0.0,0.0,0.0,0.0,0.0,0.0,0.0,0.0,-0.21025657653808594,-1722.421875,-75.69236755371094,0.1525879055261612,54.93164598941803,10848.64678888923,1,1789165518.422721,38.99138078,-76.93674503333334,-9.857000000000003,0,1,125.75379600000001,9.622404,133.056225,1,1,1789165519.3704638,-0.957090607917123,0.28930672495184023,0.015940939865730294,-0.005007351662273806,178.92187060906994,1.5825116207576615,-33.6526364100023,0.0035582027460408397,-0.005131791599638927,-0.016637176561710747,-0.1946620057106018,0.2159424365615845,-9.694265950889587
2026-09-11T18:25:19.410,2.840078283999901,0.0,0.0,0.0,0.0,0.0,0.0,0.0,0.0,0.0,0.0,-0.2134380340576172,-1748.484375,-76.83769226074219,0.0,0.0,-1643.6541333871442,1,1789165518.422721,38.99138078,-76.93674503333334,-9.857000000000003,0,1,125.75379600000001,9.622404,133.056225,1,1,1789165519.3984637,-0.9571184288123677,0.28918329967454687,0.016536442622639883,-0.004886561416132183,178.91555371396262,1.6519770487219003,-33.63891810523863,0.0017709855919986464,-0.005390623927709687,-0.01565211273188515,-0.3711817086219788,0.2302601457977295,-9.732119620513915
2026-09-11T18:25:19.443,2.873482948999481,0.0,0.0,0.0,0.0,0.0,0.0,0.0,0.0,0.0,0.0,-0.2151203155517578,-1762.265625,-77.44331359863281,0.0,0.0,0.0,1,1789165519.427582,38.991381065,-76.93674458666666,-9.841000000000001,0,1,124.36710399999998,8.988004000000002,108.305649,1,1,1789165519.4384637,-0.9571024117661728,0.28922244992535767,0.01695412759331932,-0.0042314782403975485,178.97349053738452,1.719475010264677,-33.643513675138706,0.0002993239667170275,-0.014019182683719251,-0.004320038964536364,-0.33372030500411987,0.1502378804779053,-9.678084978122712
2026-09-11T18:25:19.476,2.9068860139996104,0.0,0.0,0.0,0.0,0.0,0.0,0.0,0.0,0.0,0.0,-0.2151203155517578,-1762.265625,-77.44331359863281,0.0,0.0,0.0,1,1789165519.427582,38.991381065,-76.93674458666666,-9.841000000000001,0,1,124.36710399999998,8.988004000000002,108.305649,1,1,1789165519.4704638,-0.9570459201395052,0.28940275485063427,0.017146369007593906,-0.003892847164574767,179.00393130130803,1.7516056278849248,-33.664990216950756,0.0018938567713390469,-0.01836592518581113,0.0019423769245444894,-0.36382672100067137,0.19897693178176878,-9.702405470523834
2026-09-11T18:25:19.510,2.940292982999381,0.0,0.0,0.0,0.0,0.0,0.0,0.0,0.0,0.0,0.0,-0.2133197784423828,-1747.515625,-76.79512023925781,0.0457763746380806,16.479494869709015,493.2951226381011,1,1789165519.427582,38.991381065,-76.93674458666666,-9.841000000000001,0,1,124.36710399999998,8.988004000000002,108.305649,1,1,1789165519.4984636,-0.9570008700139724,0.2895442297811769,0.017330209324806643,-0.003624587932902632,179.02699120684687,1.780529106665454,-33.68189810236789,0.00022636920398366454,-0.013914462928599592,0.003888942639293765,-0.2881193817520142,0.1512185454940796,-9.699561541976928
2026-09-11T18:25:19.544,2.973714031999407,0.0,0.0,0.0,0.0,0.0,0.0,0.0,0.0,0.0,0.0,-0.2119159698486328,-1736.015625,-76.28974914550781,0.0610351637005806,21.972658932209015,164.36240713137798,1,1789165519.427582,38.991381065,-76.93674458666666,-9.841000000000001,0,1,124.36710399999998,8.988004000000002,108.305649,1,1,1789165519.5374637,-0.9569197187496621,0.28984644210978694,0.01687987261552297,-0.00296002784607296,179.11432131158116,1.7529203334850816,-33.716172827759436,0.00040456732061228557,-0.007256555431016823,0.006496464541773293,-0.3537258713340759,0.11120741283416748,-9.705347465572357
2026-09-11T18:25:19.577,3.0071380889994543,0.0,0.0,0.0,0.0,0.0,0.0,0.0,0.0,0.0,0.0,-0.2098217010498047,-1718.859375,-75.53581237792969,0.0915527418255806,32.958987057209015,328.6952306533105,1,1789165519.427582,38.991381065,-76.93674458666666,-9.841000000000001,0,1,124.36710399999998,8.988004000000002,108.305649,1,1,1789165519.5704637,-0.9568273181780127,0.2901505331952888,0.017020508439739724,-0.0021103476524830475,179.20228304165354,1.7963300492349843,-33.75155413840143,-0.00024225170017681295,-0.0023858650874762485,0.013305343019653573,-0.3921679399681091,0.08031646482467651,-9.704857133064271
2026-09-11T18:25:19.612,3.0405839380000543,0.0,0.0,0.0,0.0,0.0,0.0,0.0,0.0,0.0,0.0,-0.20391464233398438,-1670.46875,-73.40927124023438,0.2136230617761612,76.90430223941803,1313.9243432397448,1,1789165519.427582,38.991381065,-76.93674458666666,-9.841000000000001,0,1,124.36710399999998,8.988004000000002,108.305649,1,1,1789165519.6104639,-0.9566858140724693,0.2906134767177155,0.01711475053155169,-0.0017735886731039656,179.23520447904377,1.8174989127786116,-33.80665966907073,-0.002097536695046785,-0.008171107959061853,0.01789206829389467,-0.3419578911399841,0.16926278179168702,-9.712604386692048
2026-09-11T18:25:19.644,3.0739922189995923,0.0,0.0,0.0,0.0,0.0,0.0,0.0,0.0,0.0,0.0,-0.19478607177734375,-1595.6875,-70.12298583984375,0.3814697563648224,137.32911229133606,1808.6776165691883,1,1789165519.427582,38.991381065,-76.93674458666666,-9.841000000000001,0,1,124.36710399999998,8.988004000000002,108.305649,1,1,1789165519.6384637,-0.956581874097656,0.2909597138033078,0.01700048079393443,-0.002132309566710389,179.19902419536464,1.7927262851292394,-33.848491314427015,0.000559552558189382,-0.0072493995810836475,0.02179479903427919,-0.2786069310951233,0.214471439037323,-9.723489768371582
2026-09-11T18:25:19.678,3.107399603999511,0.0,0.0,0.0,0.0,0.0,0.0,0.0,0.0,0.0,0.0,-0.17925071716308594,-1468.421875,-64.53025817871094,0.5645752549171448,203.24709177017212,1973.1559198361895,1,1789165519.427582,38.991381065,-76.93674458666666,-9.841000000000001,0,1,124.36710399999998,8.988004000000002,108.305649,1,1,1789165519.6704638,-0.956439492698774,0.2914014966485935,0.01736736658850846,-0.002653136794789975,179.12881204390686,1.8151711887898105,-33.9029503715516,0.00012199851471440363,-0.01070811855976081,0.024571966940052568,-0.286942583732605,0.2286910817718506,-9.720155507316589
2026-09-11T18:25:19.711,3.1408061570000427,0.0,0.0,0.0,0.0,0.0,0.0,0.0,0.0,0.0,0.0,-0.16943359375,-1388.0,-60.99609375,0.061035215854644775,21.97267770767212,-5426.313036834838,1,1789165519.427582,38.991381065,-76.93674458666666,-9.841000000000001,0,1,124.36710399999998,8.988004000000002,108.305649,1,1,1789165519.7104638,-0.9562705954904449,0.29197848170175816,0.01693023759461246,-0.0029122978000245335,179.11396001773275,1.7580599632837302,-33.97164210214243,-0.0021530381652602047,-0.011502941501119029,0.021786246920944417,-0.2448720545387268,0.16681111925125122,-9.665434399414062
2026-09-11T18:25:19.745,3.1742381179992663,0.0,0.0,0.0,0.0,0.0,0.0,0.0,0.0,0.0,0.0,-0.16194725036621094,-1326.671875,-58.30101013183594,0.2593994736671448,93.38381052017212,2136.0138824688916,1,1789165519.427582,38.991381065,-76.93674458666666,-9.841000000000001,0,1,124.36710399999998,8.988004000000002,108.305649,1,1,1789165519.7384636,-0.95619027718554,0.2922782235399802,0.016207705481729177,-0.0033021422094230385,179.0949213946554,1.6655370917601755,-34.00674657198411,-0.0007112216701876894,-2.722713633111154e-05,0.019050792384293705,-0.200153729801178,0.1857379540634155,-9.702307404022218
2026-09-11T18:25:19.777,3.2076450229997135,0.0,0.0,0.0,0.0,0.0,0.0,0.0,0.0,0.0,0.0,-0.1494903564453125,-1224.625,-53.8165283203125,0.6256104111671448,225.21974802017212,3946.367899038681,1,1789165519.427582,38.991381065,-76.93674458666666,-9.841000000000001,0,1,124.36710399999998,8.988004000000002,108.305649,1,1,1789165519.7704637,-0.9560788085616622,0.29263005829059696,0.01642080569263404,-0.003364215296205253,179.08034577753648,1.686471347015718,-34.04942260562026,4.572762640225143e-05,-0.0023366468025700082,0.01847064494093079,-0.33156284196853636,0.23722286741256712,-9.735748081073762
2026-09-11T18:25:19.812,3.2410652720000144,0.0,0.0,0.0,0.0,0.0,0.0,0.0,0.0,0.0,0.0,-0.135345458984375,-1108.75,-48.724365234375,-0.0457763709127903,-16.479493528604507,-7232.119711214629,1,1789165519.427582,38.991381065,-76.93674458666666,-9.841000000000001,0,1,124.36710399999998,8.988004000000002,108.305649,1,1,1789165519.8104637,-0.9559180073954795,0.29308774416463396,0.017482774549175677,-0.0038327472659732643,178.99245298631342,1.7866307264544248,-34.10714945150245,-0.0009278170303601856,-0.011363489693884682,0.023930558439944648,-0.34578248470306394,0.2473237170791626,-9.717409645271301
2026-09-11T18:25:19.845,3.2744862249992366,0.0,0.0,0.0,0.0,0.0,0.0,0.0,0.0,0.0,0.0,-0.1320171356201172,-1081.484375,-47.52616882324219,0.1983642876148224,71.41114354133606,2629.8064292776453,1,1789165519.427582,38.991381065,-76.93674458666666,-9.841000000000001,0,1,124.36710399999998,8.988004000000002,108.305649,1,1,1789165519.8384638,-0.9558039281477082,0.2934897116267029,0.016833533065736633,-0.004390019499956153,178.95252066901492,1.6963325399022973,-34.15482440062357,-0.00020210912738094337,-0.006888989090546818,0.023027001486187186,-0.14239256034851075,0.27664560106277464,-9.762716369018554
2026-09-11T18:25:19.877,3.3078911140000855,0.0,0.0,0.0,0.0,0.0,0.0,0.0,0.0,0.0,0.0,-0.124664306640625,-1021.25,-44.879150390625,0.2441406548023224,87.89063572883606,493.32575800749413,1,1789165519.427582,38.991381065,-76.93674458666666,-9.841000000000001,0,1,124.36710399999998,8.988004000000002,108.305649,1,1,1789165519.8704638,-0.9557079980679721,0.29384826246268175,0.01587312108894535,-0.004844079217734425,178.93454319253243,1.5754479443578429,-34.19647591271279,-0.000964643477577266,0.008231147285330457,0.013232911855695808,-0.15788706760406493,0.23359440685272218,-9.721136172332765
2026-09-11T18:25:19.911,3.341297602999475,0.0,0.0,0.0,0.0,0.0,0.0,0.0,0.0,0.0,0.0,-0.11639595031738281,-953.515625,-41.90254211425781,0.3051758110523224,109.86329197883606,657.7361736637879,1,1789165519.427582,38.991381065,-76.93674458666666,-9.841000000000001,0,1,124.36710399999998,8.988004000000002,108.305649,1,1,1789165519.8984637,-0.9556473886386673,0.2940223704263541,0.016325830915319504,-0.004730911316873241,178.93137065753368,1.6286506166347061,-34.2181302426548,-0.002540326726277747,0.012015021103654164,0.01324408196290857,-0.37049524311065674,0.19976146379470824,-9.752027120342255
2026-09-11T18:25:19.944,3.3747079639997537,0.0,0.0,0.0,0.0,0.0,0.0,0.0,0.0,0.0,0.0,-0.10395240783691406,-851.578125,-37.42286682128906,0.4119873344898224,148.31544041633606,1150.9049075279215,1,1789165519.427582,38.991381065,-76.93674458666666,-9.841000000000001,0,1,124.36710399999998,8.988004000000002,108.305649,1,1,1789165519.9384637,-0.9555264186341353,0.29440288021529143,0.01664113070651163,-0.004390920401499334,178.9573057670022,1.674230751603441,-34.26393488290193,-0.0003946189438759179,0.009999514883451114,0.021441369860750337,-0.25085411113739015,0.1748525723838806,-9.714565716724396
2026-09-11T18:25:19.978,3.408123188999525,0.0,0.0,0.0,0.0,0.0,0.0,0.0,0.0,0.0,0.0,-0.099090576171875,-811.75,-35.672607421875,0.0,0.0,-4438.558783229814,1,1789165519.427582,38.991381065,-76.93674458666666,-9.841000000000001,0,1,124.36710399999998,8.988004000000002,108.305649,1,1,1789165519.9704638,-0.9554232366867915,0.2947971940658038,0.015496613448030116,-0.004572542127347951,178.97546132029203,1.5423425051589619,-34.30915959182163,-0.0010702358973229229,0.012305618424111221,0.01536797312966047,-0.09992976514816283,0.18142302799224852,-9.660138808326721
2026-09-11T18:25:20.011,3.4415463499999532,0.0,0.0,0.0,0.0,0.0,0.0,0.0,0.0,0.0,0.0,-0.096893310546875,-793.75,-34.881591796875,0.0,0.0,0.0,1,1789165519.427582,38.991381065,-76.93674458666666,-9.841000000000001,0,1,124.36710399999998,8.988004000000002,108.305649,1,1,1789165520.0104637,-0.9553862368326363,0.2949904367639812,0.01396197478838835,-0.004779534347372452,179.00444453069176,1.3671109473780274,-34.329658910879964,-0.0012048007826516857,0.010099522249590386,0.002228087323095961,-0.19985953029632567,0.11424747438430786,-9.686224497756958
2026-09-11T18:25:20.045,3.474953574999745,0.0,0.0,0.0,0.0,0.0,0.0,0.0,0.0,0.0,0.0,-0.096893310546875,-793.75,-34.881591796875,0.0,0.0,0.0,1,1789165519.427582,38.991381065,-76.93674458666666,-9.841000000000001,0,1,124.36710399999998,8.988004000000002,108.305649,1,1,1789165520.0384638,-0.9554139257867715,0.2949260892699781,0.013554439389843066,-0.0043714360859173265,179.06302183293516,1.3363560949528477,-34.320726098516744,-0.0009960594041131638,0.015937648597511418,-0.0005379104754646524,-0.2398706629562378,0.0598205659866333,-9.664649867401122
2026-09-11T18:25:20.078,3.508356031999938,0.0,0.0,0.0,0.0,0.0,0.0,0.0,0.0,0.0,0.0,-0.09695625305175781,-794.265625,-34.90425109863281,-0.0457763709127903,-16.479493528604507,-493.36171672967987,1,1789165519.427582,38.991381065,-76.93674458666666,-9.841000000000001,0,1,124.36710399999998,8.988004000000002,108.305649,1,1,1789165520.0704637,-0.9554556921804293,0.29480210379169364,0.013418824076001746,-0.004009369080733163,179.10743515308303,1.333865551183665,-34.30519994292146,0.0006728244266438141,0.010499551714147487,-0.003789284339004889,-0.2526193081665039,0.11915079946517944,-9.70181707151413
2026-09-11T18:25:20.111,3.5417639930001314,0.0,0.0,0.0,0.0,0.0,0.0,0.0,0.0,0.0,0.0,-0.09707832336425781,-795.265625,-34.94819641113281,0.0,0.0,493.28043481938346,1,1789165519.427582,38.991381065,-76.93674458666666,-9.841000000000001,0,1,124.36710399999998,8.988004000000002,108.305649,1,1,1789165520.1104639,-0.9554802296084985,0.2946838277088946,0.014046933474522221,-0.004653619461024262,179.01580032228716,1.380987299846604,-34.2928900003576,0.0020830504622552323,0.007396356304101569,-0.003615624078431453,-0.22339549068450928,0.28223539165496825,-9.698188610954285
2026-09-11T18:25:20.145,3.575172625999585,0.0,0.0,0.0,0.0,0.0,0.0,0.0,0.0,0.0,0.0,-0.09707832336425781,-795.265625,-34.94819641113281,0.0,0.0,0.0,1,1789165519.427582,38.991381065,-76.93674458666666,-9.841000000000001,0,1,124.36710399999998,8.988004000000002,108.305649,1,1,1789165520.1384637,-0.9554868047744104,0.2946139136152378,0.014674206072251754,-0.0056811515074030065,178.8821497012078,1.4150360750208488,-34.28695433606105,0.0004485496177625427,0.01330604115135437,-0.004253890985885779,-0.30488875352859496,0.35431427034378055,-9.690539423828126
2026-09-11T18:25:20.179,3.608592650999526,0.0,0.0,0.0,0.0,0.0,0.0,0.0,0.0,0.0,0.0,-0.09732246398925781,-797.265625,-35.03608703613281,0.0,0.0,0.0,1,1789165519.427582,38.991381065,-76.93674458666666,-9.841000000000001,0,1,124.36710399999998,8.988004000000002,108.305649,1,1,1789165520.1704638,-0.9554686357970578,0.2946154905486421,0.015396144065624968,-0.006660141500191708,178.7505042260506,1.461011845971504,-34.28986789047579,-0.0004303981935418017,0.020087343427053136,-0.0015987215948268059,-0.3475476817321777,0.34391922117233276,-9.734080950546264
2026-09-11T18:25:20.212,3.6420089319999533,0.0,0.0,0.0,0.0,0.0,0.0,0.0,0.0,0.0,0.0,-0.09732246398925781,-797.265625,-35.03608703613281,0.0,0.0,0.0,1,1789165519.427582,38.991381065,-76.93674458666666,-9.841000000000001,0,1,124.36710399999998,8.988004000000002,108.305649,1,1,1789165520.2104638,-0.9554327201277902,0.2947199056905115,0.01532349167804652,-0.007327011790648454,178.67976611339344,1.430382910561784,-34.30306539572624,-0.0005796238445873169,0.04129902795824102,0.001886526388480671,-0.2349673378753662,0.24781404958724976,-9.745946997241974
2026-09-11T18:25:20.245,3.675539132999802,0.0,0.0,0.0,0.0,0.0,0.0,0.0,0.0,0.0,0.0,-0.09732246398925781,-797.265625,-35.03608703613281,0.0,0.0,0.0,1,1789165519.427582,38.991381065,-76.93674458666666,-9.841000000000001,0,1,124.36710399999998,8.988004000000002,108.305649,1,1,1789165520.2384636,-0.9554351090117451,0.29475526546412256,0.014445686082659944,-0.007376184819439184,178.70403471303942,1.3325617119792759,-34.30544761431341,-0.0023839452252990547,0.054190378879321544,-0.001216669021565247,-0.22702395124435426,0.18309015851974486,-9.65906007680893
2026-09-11T18:25:20.279,3.708944789999805,0.0,0.0,0.0,0.0,0.0,0.0,0.0,0.0,0.0,0.0,-0.09732246398925781,-797.265625,-35.03608703613281,0.0,0.0,0.0,1,1789165519.427582,38.991381065,-76.93674458666666,-9.841000000000001,0,1,124.36710399999998,8.988004000000002,108.305649,1,1,1789165520.2704637,-0.9554572400081908,0.2947536288727028,0.013264386760840333,-0.006768812758702148,178.8105223980126,1.2237500929982197,-34.30215251378603,-0.002622706266971879,0.044318273031266016,-0.0014385003694937263,-0.22143416065216065,0.08835791795730591,-9.729373758468627
2026-09-11T18:25:20.312,3.7427476319999187,0.0,0.0,0.0,0.0,0.0,0.0,0.0,0.0,0.0,0.0,-0.09732246398925781,-797.265625,-35.03608703613281,0.0,0.0,0.0,1,1789165519.427582,38.991381065,-76.93674458666666,-9.841000000000001,0,1,124.36710399999998,8.988004000000002,108.305649,1,1,1789165520.3104637,-0.9554629798567824,0.2947843568141898,0.012507136882849686,-0.006020683336282414,178.91803053645788,1.1660843334262008,-34.30363080603275,0.0005000368306963754,0.014426542531134729,0.00368421551803483,-0.1344491737174988,0.11640493741989136,-9.673966185054779
2026-09-11T18:25:20.346,3.7761744099998396,0.0,0.0,0.0,0.0,0.0,0.0,0.0,0.0,0.0,0.0,-0.09732246398925781,-797.265625,-35.03608703613281,0.0,0.0,0.0,1,1789165519.427582,38.991381065,-76.93674458666666,-9.841000000000001,0,1,124.36710399999998,8.988004000000002,108.305649,1,1,1789165520.3384638,-0.9554897035067628,0.2947177834130096,0.012029867087828962,-0.00601140004742799,178.93526815933038,1.11421503677058,-34.294780129510116,-0.0005438445949214331,-0.006571339166683851,-0.0008899433855919087,-0.11787593494415283,0.17034151330947875,-9.68995102481842
2026-09-11T18:25:20.379,3.809590371000013,0.0,0.0,0.0,0.0,0.0,0.0,0.0,0.0,0.0,0.0,-0.09732246398925781,-797.265625,-35.03608703613281,0.0,0.0,0.0,1,1789165519.427582,38.991381065,-76.93674458666666,-9.841000000000001,0,1,124.36710399999998,8.988004000000002,108.305649,1,1,1789165520.3704638,-0.9555108287848991,0.2946216264301769,0.012599965946096645,-0.006196303138936363,178.8958571516081,1.1705011501351457,-34.28446189573799,-2.1293016874330818e-05,-0.023684292482488253,-0.0038166860082612,-0.22153222715377807,0.22614135272979738,-9.700738339996338
2026-09-11T18:25:20.412,3.842999802999657,0.0,0.0,0.0,0.0,0.0,0.0,0.0,0.0,0.0,0.0,-0.09732246398925781,-797.265625,-35.03608703613281,0.0,0.0,0.0,1,1789165519.427582,38.991381065,-76.93674458666666,-9.841000000000001,0,1,124.36710399999998,8.988004000000002,108.305649,1,1,1789165520.4094636,-0.9555308992908936,0.29452520254359016,0.01333578401851035,-0.0061451144501171884,178.87671135643367,1.2529136239394714,-34.27422774560281,0.0028998645521885785,-0.03788359314501332,-0.003250501198914239,-0.2104507124710083,0.19642720273971556,-9.687989694786072
2026-09-11T18:25:20.445,3.876406579999639,0.0,0.0,0.0,0.0,0.0,0.0,0.0,0.0,0.0,0.0,-0.09764862060546875,-799.9375,-35.15350341796875,-0.0457763709127903,-16.479493528604507,-493.2979176235232,1,1789165520.4257636,38.99138061,-76.936744415,-9.885000000000002,0,1,17.791524,6.708099999999999,47.596201,1,1,1789165520.4384637,-0.9555538444728102,0.29441547565649423,0.014189294434855096,-0.005919622507713921,178.8727115348969,1.354117728394739,-34.262475311921044,0.0002537708732399755,-0.04293038721008012,-0.005502499532762523,-0.2634066233444214,0.18603215356826783,-9.702013204517366
2026-09-11T18:25:20.478,3.909811532999811,0.0,0.0,0.0,0.0,0.0,0.0,0.0,0.0,0.0,0.0,-0.09805488586425781,-803.265625,-35.29975891113281,0.0,0.0,493.32485300966016,1,1789165520.4257636,38.99138061,-76.936744415,-9.885000000000002,0,1,17.791524,6.708099999999999,47.596201,1,1,1789165520.4704638,-0.955567708614801,0.29434407291257875,0.014948305217586732,-0.005335650383516157,178.91113217826003,1.4570283588400244,-34.25471103351339,0.0009222319767538037,-0.05277980377785972,-0.00526635648496769,-0.238105465927124,0.16141746166229248,-9.750163856811524
2026-09-11T18:25:20.513,3.943224165999709,0.0,0.0,0.0,0.0,0.0,0.0,0.0,0.0,0.0,0.0,-0.09839439392089844,-806.046875,-35.42198181152344,-0.03051757998764515,-10.986328795552254,-328.80763379485165,1,1789165520.4257636,38.99138061,-76.936744415,-9.885000000000002,0,1,17.791524,6.708099999999999,47.596201,1,1,1789165520.5104637,-0.9555709304383021,0.2942968742856373,0.015951479433637884,-0.004370010395810727,178.98308596623522,1.599526584699151,-34.24978253352126,0.004825486315913922,-0.05134828472537397,-0.005802172565329949,-0.30479068702697754,0.14307902585983276,-9.71211405418396
2026-09-11T18:25:20.546,3.976650334999249,0.0,0.0,0.0,0.0,0.0,0.0,0.0,0.0,0.0,0.0,-0.09927558898925781,-813.265625,-35.73921203613281,0.0,0.0,328.67448243032015,1,1789165520.4257636,38.99138061,-76.936744415,-9.885000000000002,0,1,17.791524,6.708099999999999,47.596201,1,1,1789165520.5384638,-0.9555708168037851,0.29426040769824474,0.016694961327699456,-0.00406261005712204,178.99170139427807,1.6913595075481291,-34.246480082084474,0.0017896606149949857,-0.054075885280390715,-0.0093567101199416,-0.3461747507095337,0.20044792930603028,-9.713879251213074
2026-09-11T18:25:20.579,4.010067479999634,0.0,0.0,0.0,0.0,0.0,0.0,0.0,0.0,0.0,0.0,-0.0994720458984375,-814.875,-35.8099365234375,-0.015258789993822575,-5.493164397776127,-164.38161900763305,1,1789165520.4257636,38.99138061,-76.936744415,-9.885000000000002,0,1,17.791524,6.708099999999999,47.596201,1,1,1789165520.5704637,-0.9555384533668037,0.2943031073990252,0.017772884573571127,-0.004008701359423609,178.96110040013104,1.8111807300654195,-34.25378714278177,0.0015831881644840563,-0.04849955832026883,-0.005187293069852346,-0.3409772261238098,0.2433029905128479,-9.684263167724609
2026-09-11T18:25:20.612,4.043473072999404,0.0,0.0,0.0,0.0,0.0,0.0,0.0,0.0,0.0,0.0,-0.10000801086425781,-819.265625,-36.00288391113281,0.0,0.0,164.4384638768094,1,1789165520.4257636,38.99138061,-76.936744415,-9.885000000000002,0,1,17.791524,6.708099999999999,47.596201,1,1,1789165520.6094637,-0.9554850915075375,0.2944523427126501,0.01816091563900581,-0.00402975446123291,178.94538805370587,1.8528001298406565,-34.27256519512464,0.0018980455615438335,-0.02680197412532572,-0.00325032666598904,-0.34941094526290895,0.23683060140609744,-9.677300446109772
2026-09-11T18:25:20.645,4.076883402000021,0.0,0.0,0.0,0.0,0.0,0.0,0.0,0.0,0.0,0.0,-0.10013008117675781,-820.265625,-36.04682922363281,0.0,0.0,0.0,1,1789165520.4257636,38.99138061,-76.936744415,-9.885000000000002,0,1,17.791524,6.708099999999999,47.596201,1,1,1789165520.6384637,-0.9554654660107418,0.2944799798891839,0.01874653614448388,-0.003981468061578904,178.93081419920426,1.9185301240212138,-34.27710387170202,-0.0004157374278250493,-0.014673681153217127,-0.004108679592119851,-0.38785301389694216,0.20525318788528443,-9.703091936035156
2026-09-11T18:25:20.679,4.110286242999791,0.0,0.0,0.0,0.0,0.0,0.0,0.0,0.0,0.0,0.0,-0.10013008117675781,-820.265625,-36.04682922363281,0.0,0.0,0.0,1,1789165520.4257636,38.99138061,-76.936744415,-9.885000000000002,0,1,17.791524,6.708099999999999,47.596201,1,1,1789165520.6704638,-0.9554289610433353,0.29460507382974027,0.018711588849191163,-0.0036369377455171,178.969486049456,1.9262038635874896,-34.2914589633519,-0.0004824090052512327,0.005997300375702915,-3.996803987067015e-05,-0.3708875091171265,0.16435945671081545,-9.70936819213867
2026-09-11T18:25:20.713,4.143697243999668,0.0,0.0,0.0,0.0,0.0,0.0,0.0,0.0,0.0,0.0,-0.10013008117675781,-820.265625,-36.04682922363281,0.0,0.0,0.0,1,1789165520.4257636,38.99138061,-76.936744415,-9.885000000000002,0,1,17.791524,6.708099999999999,47.596201,1,1,1789165520.7104638,-0.955378384084719,0.2948230687510237,0.01786447332162537,-0.0035159563196051876,179.01098397430263,1.8373031122799883,-34.31557708786282,-0.0014751522837856074,0.027528729225856162,0.0011753047182929814,-0.3406830266189575,0.17975589746475218,-9.689264559307098
2026-09-11T18:25:20.746,4.177119412999673,0.0,0.0,0.0,0.0,0.0,0.0,0.0,0.0,0.0,0.0,-0.10013008117675781,-820.265625,-36.04682922363281,0.0,0.0,0.0,1,1789165520.4257636,38.99138061,-76.936744415,-9.885000000000002,0,1,17.791524,6.708099999999999,47.596201,1,1,1789165520.7384636,-0.9553441441249543,0.2949577707830486,0.017447188004491004,-0.003615988328156531,179.01390390826964,1.7880910210736818,-34.33101554425182,-0.0030466467422813016,0.036237747660382666,0.00024696408915719765,-0.3649054525184631,0.2002517963027954,-9.700346073989868
2026-09-11T18:25:20.779,4.210527597999317,0.0,0.0,0.0,0.0,0.0,0.0,0.0,0.0,0.0,0.0,-0.10025215148925781,-821.265625,-36.09077453613281,0.0,0.0,0.0,1,1789165520.4257636,38.99138061,-76.936744415,-9.885000000000002,0,1,17.791524,6.708099999999999,47.596201,1,1,1789165520.7704637,-0.9553115921325538,0.29508791018173086,0.016952529798109333,-0.0039368687034135865,178.99528000789246,1.7229404438440854,-34.346086757415286,-0.002269626159293426,0.046272692727649264,0.0018924605079374515,-0.3456844182014465,0.2050570548820496,-9.699561541976928
2026-09-11T18:25:20.812,4.2439270149998265,0.0,0.0,0.0,0.0,0.0,0.0,0.0,0.0,0.0,0.0,-0.10025215148925781,-821.265625,-36.09077453613281,0.0,0.0,0.0,1,1789165520.4257636,38.99138061,-76.936744415,-9.885000000000002,0,1,17.791524,6.708099999999999,47.596201,1,1,1789165520.8104637,-0.9552846548042331,0.2952165635268704,0.015942360011469228,-0.0049244362324109055,178.92114141763818,1.5787806379325917,-34.3608430821849,-0.00222232773656438,0.05051750800142467,0.003088360111403966,-0.25144251014709473,0.26173949281692505,-9.703582268543244
2026-09-11T18:25:20.846,4.277328767999279,0.0,0.0,0.0,0.0,0.0,0.0,0.0,0.0,0.0,0.0,-0.10025215148925781,-821.265625,-36.09077453613281,0.0,0.0,0.0,1,1789165520.4257636,38.99138061,-76.936744415,-9.885000000000002,0,1,17.791524,6.708099999999999,47.596201,1,1,1789165520.8384638,-0.955276765889433,0.2952589022502183,0.015334232869277991,-0.00577429615900257,178.84862263692386,1.4833843092382943,-34.36578658507238,-0.002497042560828287,0.03923779411163572,-0.0005230751768227006,-0.215844370059967,0.2724287414932251,-9.683772835216521
2026-09-11T18:25:20.881,4.310728984999514,0.0,0.0,0.0,0.0,0.0,0.0,0.0,0.0,0.0,0.0,-0.10025215148925781,-821.265625,-36.09077453613281,0.0,0.0,0.0,1,1789165520.4257636,38.99138061,-76.936744415,-9.885000000000002,0,1,17.791524,6.708099999999999,47.596201,1,1,1789165520.8704638,-0.9552730729175538,0.2952814395049217,0.01483093235520735,-0.006501621953822387,178.78600616671022,1.4036328328615568,-34.36834493914732,-0.0010185741514638909,0.03209939747097891,-0.0010833258667128803,-0.23320214084625243,0.25644390172958376,-9.705445532073975
2026-09-11T18:25:20.914,4.344148049999603,0.0,0.0,0.0,0.0,0.0,0.0,0.0,0.0,0.0,0.0,-0.10025215148925781,-821.265625,-36.09077453613281,0.0,0.0,0.0,1,1789165520.4257636,38.99138061,-76.936744415,-9.885000000000002,0,1,17.791524,6.708099999999999,47.596201,1,1,1789165520.9104638,-0.9552675884802462,0.2953240320553262,0.014197798780674661,-0.006780339187913597,178.77688944661884,1.3248308397577109,-34.3724646293642,-0.002020742207959035,0.027164828076815344,-0.001214225560612455,-0.24457785503387452,0.21035264596939088,-9.674064251556397
2026-09-11T18:25:20.948,4.377575114999672,0.0,0.0,0.0,0.0,0.0,0.0,0.0,0.0,0.0,0.0,-0.10025215148925781,-821.265625,-36.09077453613281,0.0,0.0,0.0,1,1789165520.4257636,38.99138061,-76.936744415,-9.885000000000002,0,1,17.791524,6.708099999999999,47.596201,1,1,1789165520.9374638,-0.9552791484909696,0.2953140173724484,0.013715276037056481,-0.006578054799140689,178.8154094015567,1.278870685400909,-34.37005619764799,-0.0007120943348136865,0.014920645242374325,-0.0027410395902570943,-0.20593965339660647,0.15288567602157593,-9.71711544576645
2026-09-11T18:25:20.981,4.411026595999829,0.0,0.0,0.0,0.0,0.0,0.0,0.0,0.0,0.0,0.0,-0.10025215148925781,-821.265625,-36.09077453613281,0.0,0.0,0.0,1,1789165520.4257636,38.99138061,-76.936744415,-9.885000000000002,0,1,17.791524,6.708099999999999,47.596201,1,1,1789165520.9704638,-0.9552716197313446,0.2953516002586797,0.013536281331715187,-0.006350893496122381,178.84629997183478,1.2669219576273265,-34.373960937031526,-5.969026041820607e-05,0.00047403142484165993,-0.00031328660073298215,-0.233104074344635,0.18956254762649535,-9.682497970695495
2026-09-11T18:25:21.013,4.444438908999473,0.0,0.0,0.0,0.0,0.0,0.0,0.0,0.0,0.0,0.0,-0.10025215148925781,-821.265625,-36.09077453613281,0.0,0.0,0.0,1,1789165520.4257636,38.99138061,-76.936744415,-9.885000000000002,0,1,17.791524,6.708099999999999,47.596201,1,1,1789165521.0104637,-0.9552776506209018,0.2953438989873665,0.013273986831542631,-0.006355535284033041,178.85469283076657,1.2380603969412665,-34.37253225358199,-0.0007136651311404814,-0.008278096642209106,-0.003517362041544172,-0.19544653772354126,0.21741343408584593,-9.695736948413849
2026-09-11T18:25:21.046,4.477840405999814,0.0,0.0,0.0,0.0,0.0,0.0,0.0,0.0,0.0,0.0,-0.10025215148925781,-821.265625,-36.09077453613281,0.0,0.0,0.0,1,1789165520.4257636,38.99138061,-76.936744415,-9.885000000000002,0,1,17.791524,6.708099999999999,47.596201,1,1,1789165521.0384638,-0.9552947281329035,0.29526903037058216,0.013653243316994195,-0.006463052871919571,178.83016445518052,1.2760288628063459,-34.36440942263817,0.0010070549784007281,-0.015488749913898479,-0.003925769086510845,-0.22359162368774416,0.21280430850982668,-9.69760021194458
2026-09-11T18:25:21.081,4.511263790999692,0.0,0.0,0.0,0.0,0.0,0.0,0.0,0.0,0.0,0.0,-0.10025215148925781,-821.265625,-36.09077453613281,0.0,0.0,0.0,1,1789165520.4257636,38.99138061,-76.936744415,-9.885000000000002,0,1,17.791524,6.708099999999999,47.596201,1,1,1789165521.0784638,-0.955293720369478,0.2952674891200314,0.013865057316623687,-0.006227188530985843,178.8488149221181,1.3072038384312632,-34.36438029341549,0.0007162831250184729,-0.022889993139905633,-0.004442037479250769,-0.22457228870391846,0.20574352039337157,-9.698384743957519
2026-09-11T18:25:21.115,4.544688295999549,0.0,0.0,0.0,0.0,0.0,0.0,0.0,0.0,0.0,0.0,-0.10025215148925781,-821.265625,-36.09077453613281,0.0,0.0,0.0,1,1789165520.4257636,38.99138061,-76.936744415,-9.885000000000002,0,1,17.791524,6.708099999999999,47.596201,1,1,1789165521.1104639,-0.9553063095117071,0.29520289173891534,0.014385791103216956,-0.006177113439057173,178.83674159789055,1.3659846081136016,-34.35761571989165,0.0006960373056953386,-0.02970881999452228,-0.0056731927336075684,-0.2656621528816223,0.233104074344635,-9.645624966087341
2026-09-11T18:25:21.147,4.578108128999702,0.0,0.0,0.0,0.0,0.0,0.0,0.0,0.0,0.0,0.0,-0.10025215148925781,-821.265625,-36.09077453613281,0.0,0.0,0.0,1,1789165520.4257636,38.99138061,-76.936744415,-9.885000000000002,0,1,17.791524,6.708099999999999,47.596201,1,1,1789165521.1384637,-0.9553017007613381,0.2951945376757491,0.014836972933751419,-0.006221710621561859,178.81658061198837,1.4138790919071726,-34.35759198788563,0.0036997489483775797,-0.032644987395152335,-0.005019217862885293,-0.2857657857131958,0.2582090987586975,-9.731825421009063
2026-09-11T18:25:21.180,4.61151298599998,0.0,0.0,0.0,0.0,0.0,0.0,0.0,0.0,0.0,0.0,-0.10025215148925781,-821.265625,-36.09077453613281,0.0,0.0,0.0,1,1789165520.4257636,38.99138061,-76.936744415,-9.885000000000002,0,1,17.791524,6.708099999999999,47.596201,1,1,1789165521.1704638,-0.955310449098914,0.2951209207404259,0.015461202287229083,-0.006821965082569006,178.7298058779051,1.4619966880383592,-34.35083928219855,0.003979176161621872,-0.035682558425323266,-0.006286850498608774,-0.2433029905128479,0.33362223850250244,-9.689460692310334
2026-09-11T18:25:21.214,4.644923218999793,0.0,0.0,0.0,0.0,0.0,0.0,0.0,0.0,0.0,0.0,-0.10025215148925781,-821.265625,-36.09077453613281,0.0,0.0,0.0,1,1789165520.4257636,38.99138061,-76.936744415,-9.885000000000002,0,1,17.791524,6.708099999999999,47.596201,1,1,1789165521.2104638,-0.9552909701042449,0.2951140726029647,0.016289443016750588,-0.007842234068601859,178.59001735608442,1.518149580362707,-34.35322322217453,0.002364746603527117,-0.036692405930527194,-0.008661021880096662,-0.26948674644470216,0.39805193006515505,-9.694462083892823
2026-09-11T18:25:21.248,4.678356972000074,-0.01664181798696518,-1.4977636188268661,-5.991054475307465,-0.011399645321071149,-0.011399645321071149,-0.49492117762565613,-0.3390210066735745,-0.7583683935969356,-10.14008228961679,0.0,-0.10025215148925781,-821.265625,-36.09077453613281,0.0,0.0,0.0,1,1789165520.4257636,38.99138061,-76.936744415,-9.885000000000002,0,1,17.791524,6.708099999999999,47.596201,1,1,1789165521.2384636,-0.9552760269414755,0.2951229494621169,0.016616724268098293,-0.008604738595011737,178.49540647181644,1.5281567666747635,-34.35608593880482,0.003432888105747647,-0.03451982007764465,-0.009115156551465584,-0.23418280586242674,0.38383228733062746,-9.700542206993102
2026-09-11T18:25:21.281,4.71178464500008,-0.031364910304546356,-2.822841927409172,-11.291367709636688,-0.021484963558614255,-0.021484963558614255,-0.38987836241722107,-0.26706667825579644,-0.5974111449888067,2.152537761685236,0.0,-0.10025215148925781,-821.265625,-36.09077453613281,0.0,0.0,0.0,1,1789165520.4257636,38.99138061,-76.936744415,-9.885000000000002,0,1,17.791524,6.708099999999999,47.596201,1,1,1789165521.2704637,-0.9552895252476966,0.29502742851667213,0.017367253393320584,-0.008894823463239207,178.43835172347016,1.6006556041199917,-34.34691840667178,0.004420744462376437,-0.027734154478815894,-0.013620724015488948,-0.36510158552169797,0.32558078536987306,-9.685538032245637
2026-09-11T18:25:21.314,4.745190077999723,-0.031190942972898483,-2.8071848675608635,-11.228739470243454,-0.021365795936435464,-0.021365795936435464,-0.07474993169307709,-0.05120370320975781,-0.11453942199748961,6.461912199980856,0.0,-0.10025215148925781,-821.265625,-36.09077453613281,0.0,0.0,0.0,1,1789165520.4257636,38.99138061,-76.936744415,-9.885000000000002,0,1,17.791524,6.708099999999999,47.596201,1,1,1789165521.3104637,-0.9552874186771836,0.29504210943398984,0.017579528097787418,-0.008189112875298474,178.5084178816876,1.6477522378385168,-34.348231597779666,0.0015196581797114626,-0.014374880785275697,-0.011747113063473034,-0.3398984946060181,0.2554632367134094,-9.706916529598235
2026-09-11T18:25:21.347,4.7785968230000435,-0.03139173611998558,-2.8252562507987022,-11.301025003194809,-0.021503339242190125,-0.021503339242190125,-0.022228537127375603,-0.01522654793225229,-0.03406081767236102,1.0769428532220215,0.0,-0.10025215148925781,-821.265625,-36.09077453613281,0.0,0.0,0.0,1,1789165520.4257636,38.99138061,-76.936744415,-9.885000000000002,0,1,17.791524,6.708099999999999,47.596201,1,1,1789165521.3374639,-0.9552841495623647,0.2950706813477011,0.017339525337902884,-0.008051550469885765,178.5315702769591,1.6260888414742927,-34.35086036059555,0.0030778881358920003,-0.0008300785922485031,-0.010098998650814789,-0.29586663537979124,0.2907671772956848,-9.691814288349152
2026-09-11T18:25:21.382,4.8120024800000465,-0.030988801270723343,-2.788992114365101,-11.155968457460403,-0.02122732887044549,-0.02122732887044549,0.0,0.0,0.0,0.4558074679462503,0.0,-0.10025215148925781,-821.265625,-36.09077453613281,0.0,0.0,0.0,1,1789165520.4257636,38.99138061,-76.936744415,-9.885000000000002,0,1,17.791524,6.708099999999999,47.596201,1,1,1789165521.3774638,-0.9552627635104495,0.29513237309375595,0.017127348790244596,-0.008751509917978427,178.4620054188902,1.5790727176087103,-34.35869566283649,-4.0142572795869576e-05,0.016763712932480336,-0.011953410981058765,-0.3045945540237427,0.4080547132301331,-9.695050482902527
2026-09-11T18:25:21.415,4.845464968999295,-0.03164857625961304,-2.8483718633651733,-11.393487453460693,-0.02167927473783493,-0.02167927473783493,-0.026260698214173317,-0.017988578276708724,-0.04023930358963114,-0.5375744248167796,0.0,-0.10025215148925781,-821.265625,-36.09077453613281,0.0,0.0,0.0,1,1789165520.4257636,38.99138061,-76.936744415,-9.885000000000002,0,1,17.791524,6.708099999999999,47.596201,1,1,1789165521.4104638,-0.9552609094663314,0.29510564536388584,0.016821855374503775,-0.010309127105690485,178.30182986439252,1.4929507995558646,-34.356762735361656,-0.0023176227137232702,0.030097853884791814,-0.01373643934489617,-0.28370638917922975,0.4996488257408142,-9.66857252746582
2026-09-11T18:25:21.448,4.878880129999743,-0.03252814710140228,-2.9275332391262054,-11.710132956504822,-0.022281780764460565,-0.022281780764460565,-0.026260698214173317,-0.017988578276708724,-0.04023930358963114,0.0,0.0,-0.10025215148925781,-821.265625,-36.09077453613281,0.0,0.0,0.0,1,1789165521.4279222,38.99138014,-76.93674409,-9.886000000000003,0,1,31.561924000000005,14.760964000000001,79.441569,1,1,1789165521.4384637,-0.9552607073638333,0.29505189812432686,0.016747991039423083,-0.011868579364192448,178.13363796631097,1.4321827642423048,-34.35208570630073,-0.0011184069846779663,0.0396756972209611,-0.014899526758425192,-0.30567328554153445,0.5629997857856751,-9.66896479347229
2026-09-11T18:25:21.481,4.912290330999895,-0.033397872000932693,-3.0058084800839424,-12.02323392033577,-0.022877542320638898,-0.022877542320638898,-0.026260698214173317,-0.017988578276708724,-0.04023930358963114,0.0,0.0,-0.10025215148925781,-821.265625,-36.09077453613281,0.0,0.0,0.0,1,1789165521.4279222,38.99138014,-76.93674409,-9.886000000000003,0,1,31.561924000000005,14.760964000000001,79.441569,1,1,1789165521.4704638,-0.9552724944464246,0.2949728090494319,0.01616701885803772,-0.013569479608177436,177.96717471719865,1.311188659883538,-34.342960038233784,-0.0015418238612117908,0.042959534208588425,-0.017130057542473945,-0.2141772395324707,0.5778078275299072,-9.682694103698731
2026-09-11T18:25:21.514,4.945697011999982,-0.043481845408678055,-3.913366086781025,-15.6534643471241,-0.02978506410494447,-0.02978506410494447,-0.567503035068512,-0.38873957902193074,-0.869585672472106,-11.098109409439648,0.0,-0.10025215148925781,-821.265625,-36.09077453613281,0.0,0.0,0.0,1,1789165521.4279222,38.99138014,-76.93674409,-9.886000000000003,0,1,31.561924000000005,14.760964000000001,79.441569,1,1,1789165521.5104637,-0.955300614679785,0.2948344771699135,0.014761732026697378,-0.015983051396424083,177.75063772466046,1.0760249425009076,-34.324720913067175,-0.004824962717138324,0.03325724889675195,-0.022792778300569548,-0.07423634172439575,0.5739832339668274,-9.642486838035584
2026-09-11T18:25:21.549,4.979115916999945,-0.07241494953632355,-6.517345458269119,-26.069381833076477,-0.04960424043238163,-0.04960424043238163,-0.538615345954895,-0.36895151197910314,-0.8253210271543995,0.5921219454332793,0.0,-0.100067138671875,-819.75,-36.024169921875,0.0,0.0,0.0,1,1789165521.4279222,38.99138014,-76.93674409,-9.886000000000003,0,1,31.561924000000005,14.760964000000001,79.441569,1,1,1789165521.5384638,-0.9553980840772233,0.29454194768055847,0.013992261257606881,-0.01624064724736592,177.7487868774223,0.9837742121459958,-34.287593042926865,0.0011479030490366704,0.03516629003258334,-0.031205614361032613,-0.7672723086547852,0.43217907262802124,-9.819594939956666
2026-09-11T18:25:21.582,5.012539845999527,-0.0722787082195282,-6.505083739757538,-26.02033495903015,-0.04951091513037682,-0.04951091513037682,-0.09605501592159271,-0.06579768590629101,-0.14718523153697866,9.069963799785544,0.0,-0.100067138671875,-819.75,-36.024169921875,0.0,0.0,0.0,1,1789165521.4279222,38.99138014,-76.93674409,-9.886000000000003,0,1,31.561924000000005,14.760964000000001,79.441569,1,1,1789165521.5784638,-0.9555216901486283,0.2941975430203661,0.013520145693035127,-0.015598429303219691,177.83544051545672,0.9545658201128852,-34.24440086821313,-0.0009168214560726214,0.019072958065794034,-0.03382849516092969,-0.19603493673324585,0.2642892218589783,-9.787527193927765
2026-09-11T18:25:21.614,5.045942910999656,-0.07543540000915527,-6.789186000823975,-27.1567440032959,-0.05167324900627136,-0.05167324900627136,-0.09605501592159271,-0.06579768590629101,-0.14718523153697866,0.0,0.0,-0.100067138671875,-819.75,-36.024169921875,0.0,0.0,0.0,1,1789165521.4279222,38.99138014,-76.93674409,-9.886000000000003,0,1,31.561924000000005,14.760964000000001,79.441569,1,1,1789165521.6104639,-0.9556633652035715,0.29379228897002985,0.012451826650220056,-0.015445884973304095,177.8885950696147,0.8436389490006637,-34.19274411808281,0.0023788837704682713,-0.0005824163713905077,-0.03469470206869448,-0.1286632501220703,0.378046363735199,-9.659158143310547
2026-09-11T18:25:21.648,5.079351959999258,-0.08746567368507385,-7.871910631656647,-31.487642526626587,-0.05991398647427559,-0.05991398647427559,-0.6221160888671875,-0.42614952087402347,-0.9532693290846971,-10.786054849152714,0.0,-0.100067138671875,-819.75,-36.024169921875,0.0,0.0,0.0,1,1789165521.4279222,38.99138014,-76.93674409,-9.886000000000003,0,1,31.561924000000005,14.760964000000001,79.441569,1,1,1789165521.6384637,-0.9557598048354691,0.2934169561612571,0.013182950207128175,-0.01599672221941547,177.80394302009765,0.9060014147109596,-34.150194845634864,-0.0005675810727485559,-0.022272670183475236,-0.03290521598662469,-0.16622272024154663,0.4537537029838562,-9.647292096614837
2026-09-11T18:25:21.682,5.112757328999578,-0.11450215429067612,-10.30519388616085,-41.2207755446434,-0.07843397568911314,-0.07843397568911314,-0.5737553834915161,-0.39302243769168854,-0.8791661544642272,0.9916694284088701,0.0,-0.100067138671875,-819.75,-36.024169921875,0.0,0.0,0.0,1,1789165521.4279222,38.99138014,-76.93674409,-9.886000000000003,0,1,31.561924000000005,14.760964000000001,79.441569,1,1,1789165521.6784637,-0.9559454733360753,0.29282726457616876,0.013508479743269523,-0.015426150010002922,177.85608217568964,0.9621757486147328,-34.07997654807365,0.0028696703561290767,-0.053612325831061014,-0.04174478504920037,-0.37294690565109256,0.41550776735305783,-9.77242495267868
2026-09-11T18:25:21.716,5.146165801999814,-0.11654811352491379,-10.489330217242241,-41.957320868968964,-0.07983545776456595,-0.07983545776456595,-0.18628491461277008,-0.12760516650974751,-0.2854446280192989,7.944609476166909,0.0,-0.100067138671875,-819.75,-36.024169921875,0.0,0.0,0.0,1,1789165521.4279222,38.99138014,-76.93674409,-9.886000000000003,0,1,31.561924000000005,14.760964000000001,79.441569,1,1,1789165521.7104638,-0.9560916951036093,0.29233414754534687,0.01505471773576023,-0.014239810628614532,177.93468788933927,1.1724574883047312,-34.02415773259401,0.0016121606300671621,-0.0795639755448151,-0.04264345508105226,-0.3957964005279541,0.23418280586242674,-9.568936961822509
2026-09-11T18:25:21.749,5.179588994999904,-0.12281125783920288,-11.05301320552826,-44.21205282211304,-0.08412571161985398,-0.08412571161985398,-0.18628491461277008,-0.12760516650974751,-0.2854446280192989,0.0,0.0,-0.099945068359375,-818.75,-35.980224609375,0.0,0.0,0.0,1,1789165521.4279222,38.99138014,-76.93674409,-9.886000000000003,0,1,31.561924000000005,14.760964000000001,79.441569,1,1,1789165521.7384636,-0.9562525985423754,0.29189074189466885,0.01486645507801206,-0.012639267801092867,178.11699566247083,1.2063716759291354,-33.96885768623015,0.0016219344738783305,-0.08566651927441328,-0.04452142935619815,-0.1961330032348633,0.14621715391159057,-9.791842119998933
2026-09-11T18:25:21.781,5.212999387999844,-0.14349061250686646,-12.914155125617981,-51.656620502471924,-0.09829106956720353,-0.09829106956720353,-0.6030606627464294,-0.4130965539813042,-0.9240706737233888,-8.54498740772276,0.0,-0.099945068359375,-818.75,-35.980224609375,0.0,0.0,0.0,1,1789165521.4279222,38.99138014,-76.93674409,-9.886000000000003,0,1,31.561924000000005,14.760964000000001,79.441569,1,1,1789165521.7784638,-0.95642781047116,0.29126914425839934,0.01726317333378147,-0.010493417306592173,178.27285706394034,1.5419663258022767,-33.89827218356323,-0.0010007717930935486,-0.1024646151931579,-0.0410901120467773,-0.32724791589736935,0.26948674644470216,-9.804198499202728
2026-09-11T18:25:21.815,5.246402164999381,-0.15600194036960602,-14.040174633264542,-56.16069853305817,-0.10686132915318013,-0.10686132915318013,-0.3141930103302002,-0.21522221207618716,-0.4814383770494518,5.9238889601262175,0.0,-0.099945068359375,-818.75,-35.980224609375,0.0,0.0,0.0,1,1789165521.4279222,38.99138014,-76.93674409,-9.886000000000003,0,1,31.561924000000005,14.760964000000001,79.441569,1,1,1789165521.8104637,-0.9566247932123494,0.2906863072400005,0.017263366840158636,-0.008511871706262428,178.49110353005582,1.6091091107591908,-33.82573875392807,0.0020198695433330375,-0.09952111740966946,-0.0519558338379932,0.06805815212249756,0.05089651433944702,-9.70828946062088
2026-09-11T18:25:21.849,5.2798094859999765,-0.16652393341064453,-14.987154006958008,-59.94861602783203,-0.11406889438629152,-0.11406889438629152,-0.3141930103302002,-0.21522221207618716,-0.4814383770494518,0.0,0.0,-0.099945068359375,-818.75,-35.980224609375,0.0,0.0,0.0,1,1789165521.4279222,38.99138014,-76.93674409,-9.886000000000003,0,1,31.561924000000005,14.760964000000001,79.441569,1,1,1789165521.8384638,-0.9567499053788995,0.29023949977861857,0.018606718503870016,-0.0066664347474426,178.64947635518743,1.8185425888394608,-33.77281604064585,0.0009512044423369096,-0.06417889818848509,-0.040155837298184734,-0.5253422491645813,0.13601823774337768,-9.76556029756546
2026-09-11T18:25:21.883,5.313232806999622,-0.1775776892900467,-15.981992036104202,-63.92796814441681,-0.121640717163682,-0.121640717163682,-0.33996644616127014,-0.23287701562047006,-0.5209310478267488,-0.5282181128700568,0.0,-0.10013008117675781,-820.265625,-36.04682922363281,0.0,0.0,0.0,1,1789165521.4279222,38.99138014,-76.93674409,-9.886000000000003,0,1,31.561924000000005,14.760964000000001,79.441569,1,1,1789165521.8784637,-0.9568263674479344,0.28983622675572746,0.021151086252434417,-0.005558396057758797,178.68704125451063,2.1349786805455384,-33.729070241574476,-0.004634372762820543,-0.03731513940763877,-0.03272998492972446,-0.5534873351287841,0.3306802434539795,-9.709662391643525
2026-09-11T18:25:21.916,5.346643775999837,-0.188924178481102,-17.00317606329918,-68.01270425319672,-0.12941306225955487,-0.12941306225955487,-0.33996644616127014,-0.23287701562047006,-0.5209310478267488,0.0,0.0,-0.10013008117675781,-820.265625,-36.04682922363281,0.0,0.0,0.0,1,1789165521.4279222,38.99138014,-76.93674409,-9.886000000000003,0,1,31.561924000000005,14.760964000000001,79.441569,1,1,1789165521.9104638,-0.9569348396145495,0.28953205137299354,0.020523280053586664,-0.005069411747397486,178.7622714397673,2.08278033486622,-33.690133418451914,-0.0038016761766940486,-0.006668903071870333,-0.04432909407262838,-0.5774155615234375,-0.06040896499633789,-9.734767416057586
2026-09-11T18:25:21.948,5.380050232999565,-0.19944411516189575,-17.949970364570618,-71.79988145828247,-0.1366192188858986,-0.1366192188858986,-0.31393349170684814,-0.215044441819191,-0.48104071630992923,0.5338061980480061,0.0,-0.10097312927246094,-827.171875,-36.35032653808594,-0.1220703199505806,-43.945315182209015,-1315.4736876935701,1,1789165521.4279222,38.99138014,-76.93674409,-9.886000000000003,0,1,31.561924000000005,14.760964000000001,79.441569,1,1,1789165521.9384637,-0.9571016245038265,0.28903558745443325,0.020181410718727803,-0.0027604743087347866,179.02810022902045,2.1224673262561833,-33.62563753075334,-0.0034451054105116073,0.02990045714639126,-0.038906181553756795,-0.5376986283683777,-0.12277926002502441,-9.720547773323059
2026-09-11T18:25:21.982,5.413458545999674,-0.20992177724838257,-18.89295995235443,-75.57183980941772,-0.14379641741514207,-0.14379641741514207,-0.31393349170684814,-0.215044441819191,-0.48104071630992923,0.0,0.0,-0.10680580139160156,-874.953125,-38.45008850097656,-0.2136230617761612,-76.90430223941803,-986.5504749402172,1,1789165521.4279222,38.99138014,-76.93674409,-9.886000000000003,0,1,31.561924000000005,14.760964000000001,79.441569,1,1,1789165521.9784636,-0.9572779990261805,0.28853192994191645,0.01896831143140367,-0.002891564605256725,179.055041407807,1.9855401300248121,-33.562904240770756,-0.007239625737272479,0.0756544380203478,-0.04569324341598715,-0.24251845849990844,0.40423011966705324,-9.672691320533753
2026-09-11T18:25:22.016,5.4468624430001,-0.22478842735290527,-20.230958461761475,-80.9238338470459,-0.15398007273674014,-0.15398007273674014,-0.44544875621795654,-0.30513239800930025,-0.6825617349885914,-2.696929528580481,0.0,-0.11624336242675781,-952.265625,-41.84761047363281,-0.3662109673023224,-131.83594822883606,-1644.4681885085995,1,1789165521.4279222,38.99138014,-76.93674409,-9.886000000000003,0,1,31.561924000000005,14.760964000000001,79.441569,1,1,1789165522.0104637,-0.9574451018528984,0.28808622054891786,0.017109379539241736,-0.0035320814706990616,179.0471643050068,1.760832958270026,-33.50673592214241,-0.0026452210143226057,0.09681254094349946,-0.04729632833394394,-0.4058972501945496,-0.10944221580505371,-9.576880348453523
2026-09-11T18:25:22.050,5.480271202999575,-0.23971018195152283,-21.573916375637054,-86.29566550254822,-0.16420147463679316,-0.16420147463679316,-0.4196173846721649,-0.287437908500433,-0.6429802892368304,0.5296362244257359,0.0,-0.1350536346435547,-1106.359375,-48.61930847167969,-0.5187988877296448,-186.76759958267212,-1644.2289793066245,1,1789165521.4279222,38.99138014,-76.93674409,-9.886000000000003,0,1,31.561924000000005,14.760964000000001,79.441569,1,1,1789165522.0384638,-0.9576559677534207,0.28747137591793903,0.015452922670810913,-0.004057417286431973,179.04529585885945,1.5623277661792059,-33.43067065159607,-0.005715080635655433,0.1000328479463542,-0.04893117824428703,-0.2715461429786682,0.2342808723640442,-9.607967429466248
2026-09-11T18:25:22.083,5.513719548999688,-0.24362042546272278,-21.92583829164505,-87.7033531665802,-0.1668799914419651,-0.1668799914419651,-0.2129664421081543,-0.1458820128440857,-0.3263287688888814,4.232074604103462,0.0,-0.13726234436035156,-1124.453125,-49.41444396972656,0.015258789993822575,5.493164397776127,5747.990169074251,1,1789165521.4279222,38.99138014,-76.93674409,-9.886000000000003,0,1,31.561924000000005,14.760964000000001,79.441569,1,1,1789165522.0784638,-0.957993721431651,0.28647013919692016,0.013210112608972764,-0.002895163361892754,179.2482937755417,1.3552663389324449,-33.30551638398256,-0.0017250834326711952,0.09305449799810527,-0.05606049917283346,-0.21702116807937621,-0.24663725156784055,-10.114971242828368
2026-09-11T18:25:22.116,5.54711909299931,-0.2506749629974365,-22.560746669769287,-90.24298667907715,-0.17171234965324403,-0.17171234965324403,-0.2129664421081543,-0.1458820128440857,-0.3263287688888814,0.0,0.0,-0.1409778594970703,-1154.890625,-50.75202941894531,-0.1678466945886612,-60.42481005191803,-1973.6189946318163,1,1789165521.4279222,38.99138014,-76.93674409,-9.886000000000003,0,1,31.561924000000005,14.760964000000001,79.441569,1,1,1789165522.1104639,-0.9582436219386609,0.2857015278764275,0.011778127232132642,-0.002252487925730233,179.36690166074624,1.2196644123795428,-33.21076897803979,-0.002782752959379759,0.06632739849769011,-0.0489378104954446,0.018142302799224855,-0.09649743759155273,-9.420562344875336
2026-09-11T18:25:22.149,5.580531853999673,-0.26378685235977173,-23.740816712379456,-94.96326684951782,-0.18069399386644364,-0.18069399386644364,-0.4213542938232422,-0.2886276912689209,-0.645641757491322,-4.272190449130581,0.0,-0.14547348022460938,-1191.71875,-52.370452880859375,-0.1373291164636612,-49.43848192691803,328.8063541016714,1,1789165521.4279222,38.99138014,-76.93674409,-9.886000000000003,0,1,31.561924000000005,14.760964000000001,79.441569,1,1,1789165522.1384637,-0.9584544930357373,0.2850173644038879,0.011236965861759346,-0.001953808099760983,179.41827446980244,1.1704337777816962,-33.1279315692457,-0.006760532857600036,0.033716095957101254,-0.0483239781975182,-0.33901589609146116,0.06266449453353881,-9.446255768299103
2026-09-11T18:25:22.182,5.6139385030000994,-0.2778492569923401,-25.006433129310608,-100.02573251724243,-0.19032674103975297,-0.19032674103975297,-0.4213542938232422,-0.2886276912689209,-0.645641757491322,0.0,0.0,-0.14856719970703125,-1217.0625,-53.48419189453125,-0.061035171151161194,-21.97266161441803,822.166279298162,1,1789165521.4279222,38.99138014,-76.93674409,-9.886000000000003,0,1,31.561924000000005,14.760964000000001,79.441569,1,1,1789165522.1784637,-0.9587266672731123,0.28408057087154687,0.011714816010139443,-0.0020420084563389884,179.39415696977528,1.2206312717347634,-33.01665000310893,-0.003449468733641593,-0.005949478354198271,-0.04197813557019202,-0.18975868062973023,0.12562318857192994,-9.722607169857026
2026-09-11T18:25:22.217,5.647340159999658,-0.282858669757843,-25.45728027820587,-101.82912111282349,-0.1937581887841225,-0.1937581887841225,-0.1850079596042633,-0.12673045232892038,-0.283487948123032,4.8469822602555706,0.0,-0.15005874633789062,-1229.28125,-54.021148681640625,-0.061035171151161194,-21.97266161441803,0.0,1,1789165521.4279222,38.99138014,-76.93674409,-9.886000000000003,0,1,31.561924000000005,14.760964000000001,79.441569,1,1,1789165522.2104638,-0.9589029559056356,0.28346377470111994,0.01226944857328357,-0.0016941721679918783,179.41513847394066,1.2932725870982498,-32.943285236272565,0.00012304571226560022,-0.016849757664603657,-0.04517662595739682,-0.42237242246627804,0.11797400144577028,-9.776249546241761
2026-09-11T18:25:22.250,5.680765176999557,-0.2890797257423401,-26.017175316810608,-104.06870126724243,-0.19801961213350297,-0.19801961213350297,-0.1850079596042633,-0.12673045232892038,-0.283487948123032,0.0,0.0,-0.15201950073242188,-1245.34375,-54.727020263671875,-0.0762939602136612,-27.46582567691803,-164.34289509909635,1,1789165521.4279222,38.99138014,-76.93674409,-9.886000000000003,0,1,31.561924000000005,14.760964000000001,79.441569,1,1,1789165522.2384636,-0.9590425228945706,0.2829485367380653,0.01322206340083447,-0.0016558614764018071,179.3891242834214,1.3995309953526416,-32.882986297816025,0.0009625490824748727,-0.010362194302015534,-0.042200839582746494,-0.3320531744766235,0.15425860704421998,-9.684263167724609
2026-09-11T18:25:22.283,5.714172465999582,-0.29520827531814575,-26.568744778633118,-106.27497911453247,-0.20221766859292986,-0.20221766859292986,-0.1850079596042633,-0.12673045232892038,-0.283487948123032,0.0,0.0,-0.155364990234375,-1272.75,-55.931396484375,-0.1373291164636612,-49.43848192691803,-657.7204229287807,1,1789165521.4279222,38.99138014,-76.93674409,-9.886000000000003,0,1,31.561924000000005,14.760964000000001,79.441569,1,1,1789165522.2784638,-0.959230114945488,0.28234457552474623,0.012544001186886294,-0.0013323992044442553,179.4475319636499,1.3358446956545769,-32.809496973492585,0.0006902777191637574,0.013178457583033584,-0.0395809258425778,-0.16739951826095578,0.08423912488937378,-9.773895950202942
2026-09-11T18:25:22.316,5.747580491000008,-0.3106265366077423,-27.956388294696808,-111.82555317878723,-0.2127791775763035,-0.2127791775763035,-0.4169689118862152,-0.28562370464205744,-0.638922030784845,-4.756140248072421,0.0,-0.16194725036621094,-1326.671875,-58.30101013183594,-0.2746582329273224,-98.87696385383606,-1479.8385096481222,1,1789165521.4279222,38.99138014,-76.93674409,-9.886000000000003,0,1,31.561924000000005,14.760964000000001,79.441569,1,1,1789165522.3104637,-0.9593865917066802,0.28182059845297724,0.01236134448382244,-0.0013096196386033717,179.45667143267133,1.3167993288402402,-32.74663219138513,-0.0009264207669585901,0.026296526773948163,-0.040908597804569895,-0.20103632831573487,0.11316874286651611,-9.671906788520813
2026-09-11T18:25:22.350,5.78098793999925,-0.3222362995147705,-29.001266956329346,-116.00506782531738,-0.2207318651676178,-0.2207318651676178,-0.3128370940685272,-0.21429340943694117,-0.47936070471756653,2.135161388908661,0.0,-0.16998291015625,-1392.5,-61.19384765625,-0.030517607927322388,-10.98633885383606,2630.8690915608327,1,1789165521.4279222,38.99138014,-76.93674409,-9.886000000000003,0,1,31.561924000000005,14.760964000000001,79.441569,1,1,1789165522.3384638,-0.9595381949801007,0.2813069226150398,0.012265582458996943,-0.0015566470786987762,179.43329817685554,1.2985938827824752,-32.68543310793009,-0.0043751913688993855,0.034958595851596025,-0.047130172989154076,-0.34784188123703,0.1530818090248108,-9.631307256851196
2026-09-11T18:25:22.384,5.814405916999931,-0.3223259449005127,-29.009335041046143,-116.03734016418457,-0.22079327225685122,-0.22079327225685122,-0.05250745266675949,-0.035967605076730254,-0.08045724113441798,5.336223804228948,0.0,-0.17062759399414062,-1397.78125,-61.425933837890625,-0.0457763746380806,-16.479494869709015,-164.377275613092,1,1789165521.4279222,38.99138014,-76.93674409,-9.886000000000003,0,1,31.561924000000005,14.760964000000001,79.441569,1,1,1789165522.3784637,-0.9597704600810428,0.2805383554514493,0.011556702634127867,-0.0023103464341817856,179.37423835784514,1.1968401425263895,-32.59353833839076,-0.0016320573835398975,0.0331502602136047,-0.04433729712011275,-0.40138619112014773,0.19377940719604492,-9.746633462753296
2026-09-11T18:25:22.417,5.847818037999787,-0.32542943954467773,-29.288649559020996,-117.15459823608398,-0.22291916608810428,-0.22291916608810428,-0.07854041457176208,-0.053800183981657035,-0.1203475840677724,-0.5337158603311596,0.0,-0.17252540588378906,-1413.328125,-62.10914611816406,-0.0457763746380806,-16.479494869709015,0.0,1,1789165521.4279222,38.99138014,-76.93674409,-9.886000000000003,0,1,31.561924000000005,14.760964000000001,79.441569,1,1,1789165522.4104638,-0.9599351420633392,0.2799757905198063,0.011591567673056491,-0.0019275148579298268,179.41594073264446,1.2133283180209744,-32.5260116224386,-1.53588974175501e-05,0.03215472440826713,-0.03956120362203027,-0.29459177085876465,0.050308115329742435,-9.703484202041626
2026-09-11T18:25:22.450,5.881225039000128,-0.3280414938926697,-29.52373445034027,-118.09493780136108,-0.22470842331647875,-0.22470842331647875,-0.07854041457176208,-0.053800183981657035,-0.1203475840677724,0.0,0.0,-0.17435836791992188,-1428.34375,-62.769012451171875,-0.0457763746380806,-16.479494869709015,0.0,1,1789165522.4321926,38.99137953666666,-76.936743235,-9.983,0,1,36.421225,8.305924000000001,96.4324,1,1,1789165522.4384637,-0.9600722728648323,0.27952828402349367,0.01108242358371829,-0.0015327082394117862,179.47627321268538,1.170232181969505,-32.47154324528121,-0.0018641861740551434,0.025465226451223264,-0.04050211062178041,-0.21035264596939088,0.04795451929092408,-9.691029756336212
2026-09-11T18:25:22.483,5.914632680000068,-0.35128486156463623,-31.61563754081726,-126.46255016326904,-0.24063013017177584,-0.24063013017177584,-0.7361167669296265,-0.5042399853467942,-1.1279527231272226,-13.483137027422838,0.0,-0.1753253936767578,-1436.265625,-63.11714172363281,0.0,0.0,493.28519992593107,1,1789165522.4321926,38.99137953666666,-76.936743235,-9.983,0,1,36.421225,8.305924000000001,96.4324,1,1,1789165522.4784636,-0.9602578919797374,0.2788792282434607,0.011401725388975785,-0.0010759196610070363,179.5171260285641,1.2203256507822635,-32.39397490580432,0.00019792033717615695,0.02675694463062427,-0.03258791512861212,-0.30086802696228027,0.09904716663360595,-9.698973142967224
2026-09-11T18:25:22.518,5.9480424329995,-0.36433348059654236,-32.79001325368881,-131.16005301475525,-0.24956843420863153,-0.24956843420863153,-0.32281509041786194,-0.22112833693623543,-0.4946500020942985,8.473922223111575,0.0,-0.1753253936767578,-1436.265625,-63.11714172363281,0.0,0.0,0.0,1,1789165522.4321926,38.99137953666666,-76.936743235,-9.983,0,1,36.421225,8.305924000000001,96.4324,1,1,1789165522.5094638,-0.9603520086546453,0.2785720689534706,0.010934179744417908,-0.0014372144194182705,179.49268597542758,1.1574871306461674,-32.357145580053555,8.255407361933179e-05,0.02803435111015892,-0.02806157824649003,-0.20034986280441283,0.16406525720596313,-9.735257748565674
2026-09-11T18:25:22.551,5.981466649999675,-0.36459416151046753,-32.81347453594208,-131.2538981437683,-0.24974700063467029,-0.24974700063467029,-0.06450149416923523,-0.04418352350592614,-0.09883572724124483,5.293910502956167,0.0,-0.1753253936767578,-1436.265625,-63.11714172363281,0.0,0.0,0.0,1,1789165522.4321926,38.99137953666666,-76.936743235,-9.983,0,1,36.421225,8.305924000000001,96.4324,1,1,1789165522.5384638,-0.9604425956785417,0.27826537774622884,0.010694082016070005,-0.0020091201674602792,179.43776319038022,1.1129813021424204,-32.320835052530065,-0.0013657201396855628,0.025360506696103603,-0.03210027013560491,-0.25154057664871216,0.18367855752944948,-9.649351493148803
2026-09-11T18:25:22.583,6.014874034999593,-0.364904522895813,-32.84140706062317,-131.36562824249268,-0.24995959818363192,-0.24995959818363192,-0.02583135850727558,-0.017694480577483775,-0.03958142577282515,0.792909799091037,0.0,-0.1753253936767578,-1436.265625,-63.11714172363281,0.0,0.0,0.0,1,1789165522.4321926,38.99137953666666,-76.936743235,-9.983,0,1,36.421225,8.305924000000001,96.4324,1,1,1789165522.5784638,-0.9605987797139246,0.2777513674563268,0.009911448902303827,-0.0024342286081548347,179.41648599488894,1.013594053050889,-32.25897724860254,-0.0003216641811425549,0.032547248957040656,-0.030143930577044464,-0.16141746166229248,0.13474337322235108,-9.751732920837402
2026-09-11T18:25:22.617,6.0482758519992785,-0.36576589941978455,-32.91893094778061,-131.67572379112244,-0.25054964110255246,-0.25054964110255246,-0.02583135850727558,-0.017694480577483775,-0.03958142577282515,0.0,0.0,-0.1753253936767578,-1436.265625,-63.11714172363281,0.0,0.0,0.0,1,1789165522.4321926,38.99137953666666,-76.936743235,-9.983,0,1,36.421225,8.305924000000001,96.4324,1,1,1789165522.6104639,-0.9606985272206023,0.27742479969646333,0.009446945971243948,-0.0021390468342827634,179.46410828866019,0.9720400137484407,-32.21923557653191,-0.0019645426060448173,0.03167475886396869,-0.029386457681678926,-0.18975868062973023,0.04442412523269654,-9.748987058792114
2026-09-11T18:25:22.650,6.081694501000129,-0.3666272759437561,-32.99645483493805,-131.9858193397522,-0.25113968402147296,-0.25113968402147296,-0.02583135850727558,-0.017694480577483775,-0.03958142577282515,0.0,0.0,-0.1753253936767578,-1436.265625,-63.11714172363281,0.0,0.0,0.0,1,1789165522.4321926,38.99137953666666,-76.936743235,-9.983,0,1,36.421225,8.305924000000001,96.4324,1,1,1789165522.6384637,-0.9608042296637792,0.27708087415776195,0.008879606985443014,-0.0016043740045038177,179.5413558925807,0.9267449363868144,-32.1771729748721,-0.0033569662832858937,0.026712089668848013,-0.02780972723542725,-0.16249619318008424,-0.0048052585792541505,-9.67622171459198
2026-09-11T18:25:22.685,6.1151027500000055,-0.3674886226654053,-33.073976039886475,-132.2959041595459,-0.2517297065258026,-0.2517297065258026,-0.02583135850727558,-0.017694480577483775,-0.03958142577282515,0.0,0.0,-0.1753253936767578,-1436.265625,-63.11714172363281,0.0,0.0,0.0,1,1789165522.4321926,38.99137953666666,-76.936743235,-9.983,0,1,36.421225,8.305924000000001,96.4324,1,1,1789165522.6784637,-0.9609402098605995,0.2766233795505263,0.008555826009514574,-0.00046561830639604206,179.67747559208797,0.9274112284370164,-32.12138201992063,-0.0020498892064673402,0.02555912516498056,-0.022641109188571238,-0.2730171405029297,-0.03912853414535522,-9.650037958660125
2026-09-11T18:25:22.719,6.148522358999799,-0.36835646629333496,-33.15208196640015,-132.6083278656006,-0.2523241794109345,-0.2523241794109345,-0.02583135850727558,-0.017694480577483775,-0.03958142577282515,0.0,0.0,-0.1753253936767578,-1436.265625,-63.11714172363281,0.0,0.0,0.0,1,1789165522.4321926,38.99137953666666,-76.936743235,-9.983,0,1,36.421225,8.305924000000001,96.4324,1,1,1789165522.7104638,-0.9610125519561628,0.2763816417553009,0.008231289710866506,0.0005558354467880565,179.80049122690437,0.9241058747422227,-32.09146634122063,-0.002419026343264141,0.01747406193804203,-0.01850467886134468,-0.1754409713935852,-0.08149326284408569,-9.715350248737336
2026-09-11T18:25:22.751,6.181942895999782,-0.40605977177619934,-36.54537945985794,-146.18151783943176,-0.27815094366669657,-0.27815094366669657,-0.7547644972801208,-0.5170136806368828,-1.1565266657052662,-14.940490036400195,0.0,-0.1753253936767578,-1436.265625,-63.11714172363281,0.0,0.0,0.0,1,1789165522.4321926,38.99137953666666,-76.936743235,-9.983,0,1,36.421225,8.305924000000001,96.4324,1,1,1789165522.7384636,-0.9610808521469931,0.2761517351700804,0.007886900458774812,0.001269488131742573,179.89021881000906,0.9088088003588065,-32.06324491016983,-0.00139434353941827,0.008406727408081087,-0.020250182646264207,-0.1956426707267761,-0.05011198232650757,-9.692108487854004
2026-09-11T18:25:22.785,6.21549847299957,-0.40627366304397583,-36.564629673957825,-146.2585186958313,-0.27829745918512344,-0.27829745918512344,-0.15076857805252075,-0.10327647596597672,-0.2310228972037773,12.329908815858476,0.0,-0.1753253936767578,-1436.265625,-63.11714172363281,0.0,0.0,0.0,1,1789165522.4321926,38.99137953666666,-76.936743235,-9.983,0,1,36.421225,8.305924000000001,96.4324,1,1,1789165522.7784638,-0.9611447987483547,0.27590630133792954,0.008531175399338627,0.0018994123601703671,179.9394641152966,0.999719377851743,-32.033846709916794,-0.0006649704450098396,0.0059589031321590396,-0.01146489332342555,-0.24859858160018922,-0.012748645210266113,-9.69230462085724
2026-09-11T18:25:22.817,6.248901281999679,-0.4060590863227844,-36.5453177690506,-146.1812710762024,-0.27815047413110733,-0.27815047413110733,-0.019465094432234764,-0.013333589686080815,-0.029826390672156408,2.6926743280663628,0.0,-0.1753253936767578,-1436.265625,-63.11714172363281,0.0,0.0,0.0,1,1789165522.4321926,38.99137953666666,-76.936743235,-9.983,0,1,36.421225,8.305924000000001,96.4324,1,1,1789165522.8104637,-0.9611969401515508,0.27572959335316555,0.008310985109805094,0.0021356776673563493,179.97263406242175,0.9829416123676371,-32.01244074507856,-0.0007648032782239151,-0.003970100449511502,-0.010002481943179504,-0.12199472801208495,-0.04540479024887085,-9.691814288349152
2026-09-11T18:25:22.851,6.282309946999703,-0.40598875284194946,-36.53898775577545,-146.1559510231018,-0.2781022956967354,-0.2781022956967354,0.0,0.0,0.0,0.39910573158403795,0.0,-0.1753253936767578,-1436.265625,-63.11714172363281,0.0,0.0,0.0,1,1789165522.4321926,38.99137953666666,-76.936743235,-9.983,0,1,36.421225,8.305924000000001,96.4324,1,1,1789165522.8504636,-0.9612177277442623,0.27564102272903307,0.008721223558067957,0.0025390389323501584,-179.99580041421424,1.0408761086728047,-32.00175461282829,0.0012939871074285959,-0.015091862041994968,-0.005299866806605981,-0.20191892683029175,0.022751428375244142,-9.7022093375206
2026-09-11T18:25:22.885,6.315729844000089,-0.40598875284194946,-36.53898775577545,-146.1559510231018,-0.2781022956967354,-0.2781022956967354,0.0,0.0,0.0,0.0,0.0,-0.1753253936767578,-1436.265625,-63.11714172363281,0.0,0.0,0.0,1,1789165522.4321926,38.99137953666666,-76.936743235,-9.983,0,1,36.421225,8.305924000000001,96.4324,1,1,1789165522.8784637,-0.9612184964449954,0.2756313482560253,0.008964996623307207,0.0024476082472893084,179.98643600000136,1.0648412678278112,-32.00082881648862,-0.0019111355309337909,-0.021275214515960476,-0.005289918429869614,-0.16632078674316406,0.03824593563079834,-9.690637490329742
2026-09-11T18:25:22.918,6.349147852999522,-0.40598875284194946,-36.53898775577545,-146.1559510231018,-0.2781022956967354,-0.2781022956967354,0.0,0.0,0.0,0.0,0.0,-0.1753253936767578,-1436.265625,-63.11714172363281,0.0,0.0,0.0,1,1789165522.4321926,38.99137953666666,-76.936743235,-9.983,0,1,36.421225,8.305924000000001,96.4324,1,1,1789165522.9104638,-0.9612117219265569,0.27564185618834164,0.009439092211404546,0.0021204448244729543,179.93540270327313,1.1067310069635703,-32.00269819236576,-0.0016345008444926896,-0.019530583395666944,-0.0035595990094424348,-0.22565102022171019,0.0830623268699646,-9.717703844776153
2026-09-11T18:25:22.951,6.382555557999694,-0.40598875284194946,-36.53898775577545,-146.1559510231018,-0.2781022956967354,-0.2781022956967354,0.0,0.0,0.0,0.0,0.0,-0.1753253936767578,-1436.265625,-63.11714172363281,0.0,0.0,0.0,1,1789165522.4321926,38.99137953666666,-76.936743235,-9.983,0,1,36.421225,8.305924000000001,96.4324,1,1,1789165522.9494638,-0.96118283214045,0.2757353894011839,0.009764158330930901,0.0014897792888051442,179.85554393033948,1.122602283386598,-32.01470547735743,0.0007243116395776468,-0.016330871277985742,-4.084070449666731e-05,-0.18809155010223388,0.11052094732284547,-9.706916529598235
2026-09-11T18:25:22.984,6.415964350999275,-0.40598875284194946,-36.53898775577545,-146.1559510231018,-0.2781022956967354,-0.2781022956967354,0.0,0.0,0.0,0.0,0.0,-0.17542266845703125,-1437.0625,-63.15216064453125,-0.015258789993822575,-5.493164397776127,-164.42271344089355,1,1789165522.4321926,38.99137953666666,-76.936743235,-9.983,0,1,36.421225,8.305924000000001,96.4324,1,1,1789165522.9784636,-0.9611619761797033,0.2758004493072123,0.010048502124803547,0.000891803406096533,179.780603664734,1.135011715676704,-32.02328910682259,0.00012304571226560022,-0.018124895216110715,-0.00015166911199830722,-0.1869147520828247,0.14150996183395387,-9.709172059135437
2026-09-11T18:25:23.019,6.4493687919994045,-0.40598875284194946,-36.53898775577545,-146.1559510231018,-0.2781022956967354,-0.2781022956967354,0.0,0.0,0.0,0.0,0.0,-0.17578697204589844,-1440.046875,-63.28330993652344,-0.015258789993822575,-5.493164397776127,0.0,1,1789165522.4321926,38.99137953666666,-76.936743235,-9.983,0,1,36.421225,8.305924000000001,96.4324,1,1,1789165523.0094638,-0.9611207194916757,0.27595523140173517,0.009758208703444996,0.000670961040842067,179.76527813725173,1.0960172784104505,-32.04171459529844,-0.0006009168614616477,-0.027778660374741748,-0.0010697122985473245,-0.1623981266784668,0.044620258235931395,-9.68730322927475
2026-09-11T18:25:23.053,6.482790129000023,-0.40598875284194946,-36.53898775577545,-146.1559510231018,-0.2781022956967354,-0.2781022956967354,0.0,0.0,0.0,0.0,0.0,-0.17599868774414062,-1441.78125,-63.359527587890625,-0.015258789993822575,-5.493164397776127,0.0,1,1789165522.4321926,38.99137953666666,-76.936743235,-9.983,0,1,36.421225,8.305924000000001,96.4324,1,1,1789165523.0504637,-0.9610574836765297,0.27614676013022005,0.01042271352856649,0.0016873000980955801,179.8559717288221,1.2013248949015376,-32.06407580924198,0.001792278608872977,-0.0390871721971886,0.005074195734323114,-0.2853735197067261,-0.037461403617858886,-9.703190002536774
2026-09-11T18:25:23.085,6.5162118819998796,-0.40598875284194946,-36.53898775577545,-146.1559510231018,-0.2781022956967354,-0.2781022956967354,0.0,0.0,0.0,0.0,0.0,-0.17633628845214844,-1444.546875,-63.48106384277344,-0.015258789993822575,-5.493164397776127,0.0,1,1789165522.4321926,38.99137953666666,-76.936743235,-9.983,0,1,36.421225,8.305924000000001,96.4324,1,1,1789165523.0784638,-0.9609955283776327,0.27633458094376095,0.010906149885291212,0.0028017329476764,179.96317314043281,1.2898342997028422,-32.08562811512569,0.001210211303332868,-0.05154969572105412,0.005911953775280392,-0.2625240248298645,-0.08541592290878297,-9.699365408973694
2026-09-11T18:25:23.118,6.549618467000073,-0.40598875284194946,-36.53898775577545,-146.1559510231018,-0.2781022956967354,-0.2781022956967354,0.0,0.0,0.0,0.0,0.0,-0.1768360137939453,-1448.640625,-63.66096496582031,-0.015258789993822575,-5.493164397776127,0.0,1,1789165522.4321926,38.99137953666666,-76.936743235,-9.983,0,1,36.421225,8.305924000000001,96.4324,1,1,1789165523.1104639,-0.9609155744079069,0.276567269549768,0.011749253389525179,0.003709355590547972,-179.96390202848315,1.4114440179827608,-32.1129287729144,0.0015877260205392416,-0.05827165680218508,0.009583951988551264,-0.29468983736038207,-0.027752819957733155,-9.704366800556182
2026-09-11T18:25:23.153,6.5830235799994625,-0.40598875284194946,-36.53898775577545,-146.1559510231018,-0.2781022956967354,-0.2781022956967354,0.0,0.0,0.0,0.0,0.0,-0.17733383178710938,-1452.71875,-63.840179443359375,-0.015258789993822575,-5.493164397776127,0.0,1,1789165522.4321926,38.99137953666666,-76.936743235,-9.983,0,1,36.421225,8.305924000000001,96.4324,1,1,1789165523.1494215,-0.9607983605406589,0.27691780546592776,0.012939251457432688,0.003951603476796577,-179.97551599752524,1.550186742814109,-32.155362538687086,0.002968455991791956,-0.06034737688158194,0.014630396987767667,-0.2996912289428711,0.09071151399612426,-9.729275691967011
2026-09-11T18:25:23.186,6.616443541000081,-0.36499252915382385,-32.84932762384415,-131.3973104953766,-0.2500198824703694,-0.2500198824703694,0.6536006331443787,0.4477164337038994,1.0015131391014203,13.396677323938812,0.0,-0.17792701721191406,-1457.578125,-64.05372619628906,-0.015258789993822575,-5.493164397776127,0.0,1,1789165522.4321926,38.99137953666666,-76.936743235,-9.983,0,1,36.421225,8.305924000000001,96.4324,1,1,1789165523.1774216,-0.960678496826045,0.2773032800102589,0.01376449581792637,0.0032023876219010217,179.91511398129614,1.617249204391772,-32.20314479735231,0.0008032005217677904,-0.06391448080680795,0.016271530083417935,-0.2247684217071533,0.20652805240631103,-9.668866726970673
2026-09-11T18:25:23.218,6.64986327799943,-0.36486315727233887,-32.8376841545105,-131.350736618042,-0.24993126273155214,-0.24993126273155214,0.11114206910133362,0.07613231733441353,0.1703031436435519,-11.118702591128244,0.0,-0.1788921356201172,-1465.484375,-64.40116882324219,-0.015258791856467724,-5.493165068328381,-2.0064558070466178e-05,1,1789165522.4321926,38.99137953666666,-76.936743235,-9.983,0,1,36.421225,8.305924000000001,96.4324,1,1,1789165523.2094214,-0.9605655019340591,0.27769281542388957,0.014045570877976633,0.0018272095759796424,179.75408106767725,1.604387644278655,-32.25187218846685,0.0017514379043763095,-0.05689057776508197,0.011988143033173452,-0.1825017595100403,0.2814508596420288,-9.723980100879668
2026-09-11T18:25:23.252,6.683282631000111,-0.36488276720046997,-32.8394490480423,-131.3577961921692,-0.24994469553232196,-0.24994469553232196,0.033647991716861725,0.023048874326050284,0.051558863470942774,-1.5884042700431946,0.0,-0.18013572692871094,-1475.671875,-64.84886169433594,-0.0457763709127903,-16.479493528604507,-328.74150675664214,1,1789165522.4321926,38.99137953666666,-76.936743235,-9.983,0,1,36.421225,8.305924000000001,96.4324,1,1,1789165523.2494214,-0.9604269521055718,0.27812211884790844,0.015104758195682062,-5.437463955999971e-05,179.51240957302176,1.6608813319414868,-32.30717099762359,0.0034136894839757095,-0.04051799311797356,0.007349232414297723,-0.37010297710418705,0.36039439344406127,-9.687989694786072
2026-09-11T18:25:23.285,6.7166884799999025,-0.3653488755226135,-32.88139879703522,-131.52559518814087,-0.2502639797329903,-0.2502639797329903,0.0,0.0,0.0,-0.6899652311244702,0.0,-0.18095016479492188,-1482.34375,-65.14205932617188,-0.015258789993822575,-5.493164397776127,328.87441749787456,1,1789165522.4321926,38.99137953666666,-76.936743235,-9.983,0,1,36.421225,8.305924000000001,96.4324,1,1,1789165523.2774215,-0.9603129754441183,0.27848440083348414,0.015607055087827388,-0.001359234183323989,179.35208258697543,1.6743214986351398,-32.35308539047844,0.0021907372771032825,-0.03680899392456041,0.007577521480458581,-0.29812216491699217,0.38059609277725215,-9.692598820362091
2026-09-11T18:25:23.320,6.750102648999928,-0.3653488755226135,-32.88139879703522,-131.52559518814087,-0.2502639797329903,-0.2502639797329903,0.0,0.0,0.0,0.0,0.0,-0.1813068389892578,-1485.265625,-65.27046203613281,0.0,0.0,164.3962594961435,1,1789165522.4321926,38.99137953666666,-76.936743235,-9.983,0,1,36.421225,8.305924000000001,96.4324,1,1,1789165523.3094215,-0.9601960526166327,0.27886650642871963,0.01574499540114884,-0.0030178223100861485,179.1644345239497,1.6362131702827365,-32.40134060823276,0.0016418312273510658,-0.024136681824605183,0.0046656141564312414,-0.29194397531509403,0.4257066835212707,-9.675241049575806
