timestamp,time_s,drive_pos_turns,drive_encoder_count,drive_wheel_angle_deg,drive_distance_m,drive_distance_since_start_m,drive_velocity_turns_s,drive_velocity_mps,drive_velocity_mph,drive_acceleration_mps2,drive_iq_A,steer_pos_turns,steer_encoder_count,steer_angle_deg,steer_velocity_turns_s,steer_velocity_deg_s,steer_acceleration_deg_s2,gps_received,gps_ros_stamp_s,gps_latitude_deg,gps_longitude_deg,gps_altitude_m,gps_status,gps_service,gps_cov_x_m2,gps_cov_y_m2,gps_cov_z_m2,gps_covariance_type,imu_received,imu_ros_stamp_s,imu_qx,imu_qy,imu_qz,imu_qw,imu_roll_deg,imu_pitch_deg,imu_yaw_deg,imu_gyro_x_rad_s,imu_gyro_y_rad_s,imu_gyro_z_rad_s,imu_accel_x_mps2,imu_accel_y_mps2,imu_accel_z_mps2
2026-09-11T18:26:13.952,8.351999895239715e-06,-160.1153564453125,-14410.382080078125,-57641.5283203125,-109.67901916503907,0.0,0.0,0.0,0.0,0.0,0.0,-0.002899169921875,-23.75,-1.043701171875,0.0,0.0,0.0,0,nan,nan,nan,nan,-999,-999,nan,nan,nan,-999,1,1789165573.9494627,-0.8585557355745739,0.510943297853228,0.005876315915171927,-0.04224291895850838,175.4928368551258,-1.8955287513551844,-61.440806622406896,-0.0014987142286875309,-0.012218701027361903,-0.0028691467573534785,0.32440398735046383,0.7210829863929749,-9.657392946281433
2026-09-11T18:26:13.986,0.03341916099998343,-160.1153564453125,-14410.382080078125,-57641.5283203125,-109.67901916503907,0.0,0.0,0.0,0.0,0.0,0.0,-0.002899169921875,-23.75,-1.043701171875,0.0,0.0,0.0,0,nan,nan,nan,nan,-999,-999,nan,nan,nan,-999,1,1789165573.9774625,-0.8586478430581532,0.5108193146360815,0.00602950908191112,-0.04184679708814169,175.5226906861936,-1.8565852087988548,-61.42520151538204,-0.0004206243497306334,-0.01056639782449887,0.0007843509658462517,0.384420686340332,0.6771491936683655,-9.65680454727173
2026-09-11T18:26:14.020,0.06682334499964782,-160.1153564453125,-14410.382080078125,-57641.5283203125,-109.67901916503907,0.0,0.0,0.0,0.0,0.0,0.0,-0.002899169921875,-23.75,-1.043701171875,0.0,0.0,0.0,0,nan,nan,nan,nan,-999,-999,nan,nan,nan,-999,1,1789165574.0084627,-0.8587554593423895,0.510670381391782,0.005807545311092206,-0.041486082440661626,175.57093408744777,-1.8565307561855209,-61.40499583258632,0.0007840018999958529,-0.0020181242140810433,-0.0006117379028240125,0.32430592084884646,0.6586146248626709,-9.674358451061249
2026-09-11T18:26:14.054,0.10023236200049723,-160.1153564453125,-14410.382080078125,-57641.5283203125,-109.67901916503907,0.0,0.0,0.0,0.0,0.0,0.0,-0.002899169921875,-23.75,-1.043701171875,0.0,0.0,0.0,0,nan,nan,nan,nan,-999,-999,nan,nan,nan,-999,1,1789165574.0494626,-0.8589085945684433,0.5104679164010907,0.005621943181727518,-0.04082800823518295,175.6462804917702,-1.835228668002994,-61.37809337659583,-0.0016437510895282595,0.005018519731184496,0.00018989182261698308,0.34999934427261353,0.6344902654647826,-9.676123648090362
2026-09-11T18:26:14.087,0.1336564189996352,-160.1153564453125,-14410.382080078125,-57641.5283203125,-109.67901916503907,0.0,0.0,0.0,0.0,0.0,0.0,-0.002899169921875,-23.75,-1.043701171875,0.0,0.0,0.0,0,nan,nan,nan,nan,-999,-999,nan,nan,nan,-999,1,1789165574.0774627,-0.8589848198027684,0.5103597376595236,0.005054242233288193,-0.04065061081896425,175.69671628119173,-1.880202535157635,-61.36208048099569,0.0009363691436949579,0.007893600607994754,-0.00010471975511965978,0.3846168193435669,0.6460621126556396,-9.676025581588744
2026-09-11T18:26:14.121,0.16707583599963982,-160.1153564453125,-14410.382080078125,-57641.5283203125,-109.67901916503907,0.0,0.0,0.0,0.0,0.0,0.0,-0.002899169921875,-23.75,-1.043701171875,0.0,0.0,0.0,0,nan,nan,nan,nan,-999,-999,nan,nan,nan,-999,1,1789165574.1174626,-0.8591407456123062,0.5100972771547123,0.004838635223016732,-0.04067597174324835,175.70622697969537,-1.9016102745774537,-61.326421651061885,-0.0006236061417375739,0.008567646765114964,-0.0008581783932056119,0.3639247875022888,0.6809737872314453,-9.667984128456116
2026-09-11T18:26:14.154,0.20049765200019465,-160.1153564453125,-14410.382080078125,-57641.5283203125,-109.67901916503907,0.0,0.0,0.0,0.0,0.0,0.0,-0.002899169921875,-23.75,-1.043701171875,0.0,0.0,0.0,0,nan,nan,nan,nan,-999,-999,nan,nan,nan,-999,1,1789165574.1494627,-0.8592869513552549,0.509813073490898,0.004865662142112535,-0.041144752524163046,175.65774147265867,-1.9249425494668237,-61.28814285358308,-0.0012510520078295353,0.003913726314672085,-0.00210224908402717,0.3956002675247193,0.7152970627975465,-9.667395729446412
2026-09-11T18:26:14.188,0.23392052500003047,-160.1153564453125,-14410.382080078125,-57641.5283203125,-109.67901916503907,0.0,0.0,0.0,0.0,0.0,0.0,-0.0027561187744140625,-22.578125,-0.9922027587890625,0.0,0.0,0.0,0,nan,nan,nan,nan,-999,-999,nan,nan,nan,-999,1,1789165574.1774626,-0.8593741096258373,0.5096435240076985,0.004838638382470621,-0.04142711334884099,175.6310580640908,-1.943256317886019,-61.26517059636462,0.0010903071837208575,-0.0008171631557837452,-0.0003551745027808461,0.3807922257804871,0.7235346489334106,-9.666611197433472
2026-09-11T18:26:14.221,0.26734042200041586,-160.1153564453125,-14410.382080078125,-57641.5283203125,-109.67901916503907,0.0,0.0,0.0,0.0,0.0,0.0,-0.002777099609375,-22.75,-0.999755859375,0.0,0.0,0.0,0,nan,nan,nan,nan,-999,-999,nan,nan,nan,-999,1,1789165574.2174625,-0.8594906020065883,0.509425968015216,0.004793179706997344,-0.04169068963700171,175.6071872085775,-1.9620335978162717,-61.235767766871554,-0.0010362019769090335,-0.006460685292107409,-0.0028352873698647887,0.3893240114212036,0.7148067302894592,-9.663963401889802
2026-09-11T18:26:14.254,0.30075897500046267,-160.1153564453125,-14410.382080078125,-57641.5283203125,-109.67901916503907,0.0,0.0,0.0,0.0,0.0,0.0,-0.002777099609375,-22.75,-0.999755859375,0.0,0.0,0.0,0,nan,nan,nan,nan,-999,-999,nan,nan,nan,-999,1,1789165574.2494626,-0.8596201840347737,0.5092043045816591,0.0050070975251776,-0.041701850917004575,175.59311495340813,-1.940470190557989,-61.20690827507024,-0.0014686945655532284,-0.010238799523899536,-0.0028639107695974954,0.3485283467483521,0.7039213486099243,-9.666022798423766
2026-09-11T18:26:14.288,0.33417480699972657,-160.1153564453125,-14410.382080078125,-57641.5283203125,-109.67901916503907,0.0,0.0,0.0,0.0,0.0,0.0,-0.002777099609375,-22.75,-0.999755859375,0.0,0.0,0.0,0,nan,nan,nan,nan,-999,-999,nan,nan,nan,-999,1,1789165574.2774627,-0.8597195457494935,0.5090454208614489,0.005066146850374358,-0.0415860110177119,175.60076058504774,-1.9270717470995096,-61.18606623180758,0.0009265952998837896,-0.007734426580212871,0.001301666556137371,0.3718681741333008,0.6796008562088013,-9.674946850070953
2026-09-11T18:26:14.321,0.3675971680004295,-160.1153564453125,-14410.382080078125,-57641.5283203125,-109.67901916503907,0.0,0.0,0.0,0.0,0.0,0.0,-0.002777099609375,-22.75,-0.999755859375,0.0,0.0,0.0,0,nan,nan,nan,nan,-999,-999,nan,nan,nan,-999,1,1789165574.3164625,-0.859848691969883,0.5088661767906817,0.004884698746259301,-0.04112883118050397,175.65609320644074,-1.9173565064702913,-61.16213105476899,-0.0011986921302697055,-0.004294731690382447,-0.0020830504622552323,0.3520587408065796,0.6558687628173827,-9.673966185054779
2026-09-11T18:26:14.356,0.4010151129996302,-160.1153564453125,-14410.382080078125,-57641.5283203125,-109.67901916503907,0.0,0.0,0.0,0.0,0.0,0.0,-0.002777099609375,-22.75,-0.999755859375,0.0,0.0,0.0,0,nan,nan,nan,nan,-999,-999,nan,nan,nan,-999,1,1789165574.3494625,-0.8599710724790696,0.5086809552525536,0.0048513150731281035,-0.04086447117740949,175.68374468431512,-1.9042879052858626,-61.13765733802907,-0.0003193952531149623,-0.0005733406592801372,-0.0005895722213236844,0.35970792793273926,0.6657734794807435,-9.678379177627564
2026-09-11T18:26:14.389,0.4344540820002294,-160.1153564453125,-14410.382080078125,-57641.5283203125,-109.67901916503907,0.0,0.0,0.0,0.0,0.0,0.0,-0.002777099609375,-22.75,-0.999755859375,0.0,0.0,0.0,0,nan,nan,nan,nan,-999,-999,nan,nan,nan,-999,1,1789165574.3774626,-0.8600770785738832,0.5085053428142996,0.004818552592741295,-0.040822993423277804,175.68936212164294,-1.9042186560845265,-61.11422868698506,0.0017845991601642018,0.00392733988283764,0.0007148868616168774,0.3589233959197998,0.670676804561615,-9.672299054527283
2026-09-11T18:26:14.422,0.46787407500050904,-160.1153564453125,-14410.382080078125,-57641.5283203125,-109.67901916503907,0.0,0.0,0.0,0.0,0.0,0.0,-0.002777099609375,-22.75,-0.999755859375,0.0,0.0,0.0,0,nan,nan,nan,nan,-999,-999,nan,nan,nan,-999,1,1789165574.4174626,-0.8601948328756148,0.508303781129431,0.0046604171875474975,-0.04087047950849617,175.693422985483,-1.9215739212357539,-61.086871242495896,-0.0010379473061610277,0.005505117526640514,0.0007642796794483169,0.3702991101074219,0.6908785038948059,-9.672102921524049
2026-09-11T18:26:14.455,0.5012903870001537,-160.1153564453125,-14410.382080078125,-57641.5283203125,-109.67901916503907,0.0,0.0,0.0,0.0,0.0,0.0,-0.002777099609375,-22.75,-0.999755859375,0.0,0.0,0.0,1,1789165574.431987,38.99141343833333,-76.93670178166667,-10.339000000000002,0,1,17.347225,6.604899999999999,45.846441,1,1,1789165574.4494627,-0.8603172327438157,0.5080782935233255,0.004671252853612833,-0.041096059315054896,175.6699930285751,-1.932524051647497,-61.05665762172944,-0.00031555552876057474,0.002665815899496139,-0.0008299040593233038,0.3784386297416687,0.7031368165969849,-9.668082194957734
2026-09-11T18:26:14.488,0.5347117560004335,-160.1153564453125,-14410.382080078125,-57641.5283203125,-109.67901916503907,0.0,0.0,0.0,0.0,0.0,0.0,-0.002777099609375,-22.75,-0.999755859375,0.0,0.0,0.0,1,1789165574.431987,38.99141343833333,-76.93670178166667,-10.339000000000002,0,1,17.347225,6.604899999999999,45.846441,1,1,1789165574.4764626,-0.8603879707281059,0.5079485491676243,0.004562323717285916,-0.04123101292930116,175.66269322456043,-1.9504803598263805,-61.038915766100466,0.0022886502481401644,0.003487865977185468,0.0014519394047340828,0.3797134942626953,0.7058826786422729,-9.669258992977143
2026-09-11T18:26:14.522,0.568136580999635,-160.1153564453125,-14410.382080078125,-57641.5283203125,-109.67901916503907,0.0,0.0,0.0,0.0,0.0,0.0,-0.002777099609375,-22.75,-0.999755859375,0.0,0.0,0.0,1,1789165574.431987,38.99141343833333,-76.93670178166667,-10.339000000000002,0,1,17.347225,6.604899999999999,45.846441,1,1,1789165574.5174625,-0.860507190984193,0.5077408444870776,0.004400506612718568,-0.041318817088514814,175.66294444925586,-1.9705133795291605,-61.010696237484325,-0.00019879300180215416,-0.005605997557405786,-0.000986809159077594,0.3817728907966614,0.6889171738624573,-9.666905396938324
2026-09-11T18:26:14.555,0.6015536940003585,-160.1153564453125,-14410.382080078125,-57641.5283203125,-109.67901916503907,0.0,0.0,0.0,0.0,0.0,0.0,-0.002777099609375,-22.75,-0.999755859375,0.0,0.0,0.0,1,1789165574.431987,38.99141343833333,-76.93670178166667,-10.339000000000002,0,1,17.347225,6.604899999999999,45.846441,1,1,1789165574.5494626,-0.8606050286833542,0.5075827413047296,0.0043647895090836945,-0.04122734465183008,175.6737030525603,-1.9679158100402896,-60.989660411769876,-0.0005358160803622592,-0.006185272336142704,-0.00038117990863556153,0.3718681741333008,0.6874461763381957,-9.669455125980377
2026-09-11T18:26:14.589,0.6349810780002372,-160.1153564453125,-14410.382080078125,-57641.5283203125,-109.67901916503907,0.0,0.0,0.0,0.0,0.0,0.0,-0.002777099609375,-22.75,-0.999755859375,0.0,0.0,0.0,1,1789165574.431987,38.99141343833333,-76.93670178166667,-10.339000000000002,0,1,17.347225,6.604899999999999,45.846441,1,1,1789165574.5774627,-0.8606814168555901,0.50745864549238,0.004344822820082548,-0.04116241379165268,175.68100057410908,-1.9654833943674177,-60.97316781561716,0.0016535249333394278,-0.004292811828205253,-0.0007977900010866081,0.36451318651199344,0.6945069644546508,-9.667886061954498
2026-09-11T18:26:14.622,0.6683955670005162,-160.1153564453125,-14410.382080078125,-57641.5283203125,-109.67901916503907,0.0,0.0,0.0,0.0,0.0,0.0,-0.002777099609375,-22.75,-0.999755859375,0.0,0.0,0.0,1,1789165574.431987,38.99141343833333,-76.93670178166667,-10.339000000000002,0,1,17.347225,6.604899999999999,45.846441,1,1,1789165574.6174626,-0.8607997338163592,0.5072669638854687,0.004465527799041307,-0.04103784440707994,175.68587743883742,-1.9453612143049535,-60.94818045665708,-0.00075101517713316,-0.0060201641889040414,0.0003218387140677544,0.359413728427887,0.6831312502670288,-9.669455125980377
2026-09-11T18:26:14.655,0.7018127439996533,-160.1153564453125,-14410.382080078125,-57641.5283203125,-109.67901916503907,0.0,0.0,0.0,0.0,0.0,0.0,-0.002777099609375,-22.75,-0.999755859375,0.0,0.0,0.0,1,1789165574.431987,38.99141343833333,-76.93670178166667,-10.339000000000002,0,1,17.347225,6.604899999999999,45.846441,1,1,1789165574.6494627,-0.8609044424979145,0.5070970549564734,0.004493057923230595,-0.04093812614574139,175.69376032301997,-1.9359928030382252,-60.92578145622355,0.0004532620067429274,-0.0007278022980816355,1.937315469713706e-05,0.35911952892303467,0.6821505852508545,-9.665238266410828
2026-09-11T18:26:14.689,0.7352367690000392,-160.1153564453125,-14410.382080078125,-57641.5283203125,-109.67901916503907,0.0,0.0,0.0,0.0,0.0,0.0,-0.002777099609375,-22.75,-0.999755859375,0.0,0.0,0.0,1,1789165574.431987,38.99141343833333,-76.93670178166667,-10.339000000000002,0,1,17.347225,6.604899999999999,45.846441,1,1,1789165574.6774626,-0.8610096569980703,0.506919919546396,0.004529514832429075,-0.040915146566078656,175.69352140932708,-1.93017249269208,-60.902367509675095,0.0009728465250616392,0.00279479573121852,0.0006792821448761931,0.35990406093597416,0.6807776542282105,-9.67700624660492
2026-09-11T18:26:14.723,0.7686572410002555,-160.1153564453125,-14410.382080078125,-57641.5283203125,-109.67901916503907,0.0,0.0,0.0,0.0,0.0,0.0,-0.002777099609375,-22.75,-0.999755859375,0.0,0.0,0.0,1,1789165574.431987,38.99141343833333,-76.93670178166667,-10.339000000000002,0,1,17.347225,6.604899999999999,45.846441,1,1,1789165574.7174625,-0.8611366783762208,0.5067094560130624,0.004377182712990871,-0.04086549416822024,175.70679666356367,-1.9412750664516791,-60.87398370419551,0.00040334559013588953,0.00316096580828693,0.00035709436495803983,0.3689261790847778,0.672736201095581,-9.678575310630798
2026-09-11T18:26:14.756,0.8020749300003445,-160.1153564453125,-14410.382080078125,-57641.5283203125,-109.67901916503907,0.0,0.0,0.0,0.0,0.0,0.0,-0.002777099609375,-22.75,-0.999755859375,0.0,0.0,0.0,1,1789165574.431987,38.99141343833333,-76.93670178166667,-10.339000000000002,0,1,17.347225,6.604899999999999,45.846441,1,1,1789165574.7494626,-0.8612352131063896,0.506541737983084,0.004276626209625466,-0.0408789169980255,175.71092034768378,-1.9511490252677919,-60.85137449783792,0.0008703956979695722,0.002321986036853256,-0.0009464920533565249,0.3708875091171265,0.6847003142929077,-9.672691320533753
2026-09-11T18:26:14.790,0.8355105709997588,-160.1153564453125,-14410.382080078125,-57641.5283203125,-109.67901916503907,0.0,0.0,0.0,0.0,0.0,0.0,-0.002777099609375,-22.75,-0.999755859375,0.0,0.0,0.0,1,1789165574.431987,38.99141343833333,-76.93670178166667,-10.339000000000002,0,1,17.347225,6.604899999999999,45.846441,1,1,1789165574.7774627,-0.8613213897088521,0.5063864848289679,0.004229248443620402,-0.04099152436998606,175.70217126256352,-1.9615961485966018,-60.83047456234843,-0.00022322761133007475,0.0044032911698564945,-0.000850149878646438,0.38098835878372195,0.6980373585128784,-9.667297662944794
2026-09-11T18:26:14.823,0.8689302439997846,-160.1153564453125,-14410.382080078125,-57641.5283203125,-109.67901916503907,0.0,0.0,0.0,0.0,0.0,0.0,-0.002777099609375,-22.75,-0.999755859375,0.0,0.0,0.0,1,1789165574.431987,38.99141343833333,-76.93670178166667,-10.339000000000002,0,1,17.347225,6.604899999999999,45.846441,1,1,1789165574.8174627,-0.8614267930216966,0.5062002970827231,0.004136393491032701,-0.04108563917727772,175.69781213488542,-1.9753037491154484,-60.80534998856423,0.0016261232640831169,-0.003286978580280921,-0.0004557054676957195,0.3738295041656494,0.6926437009239197,-9.671122256507873
2026-09-11T18:26:14.856,0.9023583959997268,-160.1153564453125,-14410.382080078125,-57641.5283203125,-109.67901916503907,0.0,0.0,0.0,0.0,0.0,0.0,-0.002777099609375,-22.75,-0.999755859375,0.0,0.0,0.0,1,1789165574.431987,38.99141343833333,-76.93670178166667,-10.339000000000002,0,1,17.347225,6.604899999999999,45.846441,1,1,1789165574.8494625,-0.8615032376337457,0.5060756532680158,0.004066658681536916,-0.041025199610640786,175.7075480447481,-1.9780616031075835,-60.78864800120666,0.001483006265419582,-0.0038470547372459014,-0.0009663888068292603,0.3775560312271118,0.6898978388786315,-9.6723971210289
2026-09-11T18:26:14.890,0.9357845330005148,-160.1153564453125,-14410.382080078125,-57641.5283203125,-109.67901916503907,0.0,0.0,0.0,0.0,0.0,0.0,-0.002777099609375,-22.75,-0.999755859375,0.0,0.0,0.0,1,1789165574.431987,38.99141343833333,-76.93670178166667,-10.339000000000002,0,1,17.347225,6.604899999999999,45.846441,1,1,1789165574.8774626,-0.861583206565462,0.5059395255513608,0.0040672142961780235,-0.041024778087266296,175.70724586833856,-1.9773046363128814,-60.770564159079505,4.5902159327450866e-05,-0.0007674212721019068,-0.0021689206614533534,0.3735353046607971,0.6923495014190674,-9.669651258983611
2026-09-11T18:26:14.923,0.9692061260002447,-160.1153564453125,-14410.382080078125,-57641.5283203125,-109.67901916503907,0.0,0.0,0.0,0.0,0.0,0.0,-0.002777099609375,-22.75,-0.999755859375,0.0,0.0,0.0,1,1789165574.431987,38.99141343833333,-76.93670178166667,-10.339000000000002,0,1,17.347225,6.604899999999999,45.846441,1,1,1789165574.9164627,-0.8616881987300775,0.5057689667102906,0.004084758807446602,-0.04092084099336677,175.71613023036068,-1.9686925336212706,-60.748074584596466,6.754424205218056e-05,-0.0026899014431736607,-0.0006412339671827167,0.3653957850265503,0.6817583192443848,-9.673181653041839
2026-09-11T18:26:14.956,1.002625031000207,-160.1153564453125,-14410.382080078125,-57641.5283203125,-109.67901916503907,0.0,0.0,0.0,0.0,0.0,0.0,-0.002777099609375,-22.75,-0.999755859375,0.0,0.0,0.0,1,1789165574.431987,38.99141343833333,-76.93670178166667,-10.339000000000002,0,1,17.347225,6.604899999999999,45.846441,1,1,1789165574.9494627,-0.8617864331947731,0.5056117433635274,0.004035803340082532,-0.04079976502047113,175.73059263689393,-1.965727075542325,-60.72718021634998,0.0011241665712095476,0.0011433651929814853,0.0006346017160251383,0.36314025548934936,0.6763646616554261,-9.673966185054779
2026-09-11T18:26:14.989,1.0360451189999367,-160.1153564453125,-14410.382080078125,-57641.5283203125,-109.67901916503907,0.0,0.0,0.0,0.0,0.0,0.0,-0.002777099609375,-22.75,-0.999755859375,0.0,0.0,0.0,1,1789165574.431987,38.99141343833333,-76.93670178166667,-10.339000000000002,0,1,17.347225,6.604899999999999,45.846441,1,1,1789165574.9774625,-0.8618711731035643,0.5054707126694129,0.0040229993945785116,-0.04075849705807169,175.7350988575002,-1.9639016579959658,-60.708456938625,-0.0007220427115500541,0.0018425440913304137,-7.435102613495844e-05,0.36441512001037596,0.6829351172637939,-9.668670593967438
2026-09-11T18:26:15.023,1.0694648879998567,-160.1153564453125,-14410.382080078125,-57641.5283203125,-109.67901916503907,0.0,0.0,0.0,0.0,0.0,0.0,-0.002777099609375,-22.75,-0.999755859375,0.0,0.0,0.0,1,1789165574.431987,38.99141343833333,-76.93670178166667,-10.339000000000002,0,1,17.347225,6.604899999999999,45.846441,1,1,1789165575.0174625,-0.8619616982864894,0.5053213058022306,0.003860673210837764,-0.040712452539229296,175.74870582440585,-1.9765368760945707,-60.68818846002033,0.0015875514876140422,0.0011845549633285515,0.00045902159327450867,0.3696126445960999,0.6812679867362976,-9.673966185054779
2026-09-11T18:26:15.056,1.102882129000136,-160.1153564453125,-14410.382080078125,-57641.5283203125,-109.67901916503907,0.0,0.0,0.0,0.0,0.0,0.0,-0.002777099609375,-22.75,-0.999755859375,0.0,0.0,0.0,1,1789165574.431987,38.99141343833333,-76.93670178166667,-10.339000000000002,0,1,17.347225,6.604899999999999,45.846441,1,1,1789165575.0494626,-0.862053282634595,0.5051622570556619,0.003817453724118816,-0.040751183938787156,175.74700435937643,-1.982269221300311,-60.666897874538265,0.001156629695296642,0.003466049361535539,-1.239183768915974e-05,0.37333917165756225,0.68499451379776,-9.669651258983611
2026-09-11T18:26:15.090,1.1362976420004998,-160.1153564453125,-14410.382080078125,-57641.5283203125,-109.67901916503907,0.0,0.0,0.0,0.0,0.0,0.0,-0.002777099609375,-22.75,-0.999755859375,0.0,0.0,0.0,1,1789165574.431987,38.99141343833333,-76.93670178166667,-10.339000000000002,0,1,17.347225,6.604899999999999,45.846441,1,1,1789165575.0764625,-0.8621155830687693,0.5050513137453513,0.00377338599645506,-0.0408124181127808,175.74323139838546,-1.989625716847824,-60.65196872007421,-0.002217266281733596,0.00259460646601477,-0.0014835298641951802,0.3764772997093201,0.6990180235290527,-9.666022798423766
2026-09-11T18:26:15.124,1.1697138899999118,-160.1153564453125,-14410.382080078125,-57641.5283203125,-109.67901916503907,0.0,0.0,0.0,0.0,0.0,0.0,-0.002777099609375,-22.75,-0.999755859375,0.0,0.0,0.0,1,1789165574.431987,38.99141343833333,-76.93670178166667,-10.339000000000002,0,1,17.347225,6.604899999999999,45.846441,1,1,1789165575.1174626,-0.86219941300763,0.5049084390045596,0.003693405274504472,-0.04081665332625473,175.74710401781581,-1.9970729841472887,-60.632761153061494,0.0010859438605908718,-0.0012215559434708312,7.696902001294993e-05,0.37078944261550906,0.6894075063705445,-9.668376394462586
2026-09-11T18:26:15.157,1.203126778999831,-160.1153564453125,-14410.382080078125,-57641.5283203125,-109.67901916503907,0.0,0.0,0.0,0.0,0.0,0.0,-0.002777099609375,-22.75,-0.999755859375,0.0,0.0,0.0,1,1789165574.431987,38.99141343833333,-76.93670178166667,-10.339000000000002,0,1,17.347225,6.604899999999999,45.846441,1,1,1789165575.1494627,-0.8622840857405103,0.5047686134318483,0.0036679137628293445,-0.04075964648239598,175.75390111394012,-1.9956036836577138,-60.6141889405353,0.0014477506145292962,0.0013870131565598936,-0.0019235273686229507,0.37059330961227416,0.6820525187492371,-9.672200988025665
2026-09-11T18:26:15.191,1.2365464200001952,-160.1153564453125,-14410.382080078125,-57641.5283203125,-109.67901916503907,0.0,0.0,0.0,0.0,0.0,0.0,-0.002777099609375,-22.75,-0.999755859375,0.0,0.0,0.0,1,1789165574.431987,38.99141343833333,-76.93670178166667,-10.339000000000002,0,1,17.347225,6.604899999999999,45.846441,1,1,1789165575.1764627,-0.8623522427386434,0.5046539185723888,0.0037063286411116044,-0.04073444538923545,175.75391484491584,-1.98978236101434,-60.599104028963076,-0.0009272934315845872,-0.002949257370020018,-0.00018308503853420516,0.3695145780944824,0.6884268413543702,-9.675927515087128
2026-09-11T18:26:15.224,1.2699651969996921,-160.1153564453125,-14410.382080078125,-57641.5283203125,-109.67901916503907,0.0,0.0,0.0,0.0,0.0,0.0,-0.002777099609375,-22.75,-0.999755859375,0.0,0.0,0.0,1,1789165574.431987,38.99141343833333,-76.93670178166667,-10.339000000000002,0,1,17.347225,6.604899999999999,45.846441,1,1,1789165575.2174625,-0.8624730375476449,0.5044440495348115,0.003811300165593498,-0.040766829448793875,175.7441634931671,-1.9802431039955275,-60.57151814345838,0.0008510225432724351,0.0021671753322013592,0.00023317598806644243,0.3678474475669861,0.6874461763381957,-9.676123648090362
2026-09-11T18:26:15.257,1.3033884530004798,-160.1153564453125,-14410.382080078125,-57641.5283203125,-109.67901916503907,0.0,0.0,0.0,0.0,0.0,0.0,-0.002777099609375,-22.75,-0.999755859375,0.0,0.0,0.0,1,1789165574.431987,38.99141343833333,-76.93670178166667,-10.339000000000002,0,1,17.347225,6.604899999999999,45.846441,1,1,1789165575.2494626,-0.8625632518735544,0.5042912187177815,0.003810524355073118,-0.040749026314665905,175.7456226029705,-1.9785366149714174,-60.551253255166465,0.0011501719770642632,0.0010772172143309001,0.0017496925751243155,0.36608225053787236,0.682248651752472,-9.672004855022431
2026-09-11T18:26:15.290,1.3368303019997256,-160.1153564453125,-14410.382080078125,-57641.5283203125,-109.67901916503907,0.0,0.0,0.0,0.0,0.0,0.0,-0.002777099609375,-22.75,-0.999755859375,0.0,0.0,0.0,1,1789165574.431987,38.99141343833333,-76.93670178166667,-10.339000000000002,0,1,17.347225,6.604899999999999,45.846441,1,1,1789165575.2764626,-0.8626202178812759,0.5041957839049594,0.0037641569325558553,-0.04072839694256039,175.7501239995755,-1.9814593317789106,-60.53847634003005,-0.001506044611545907,-0.00027331856086231204,-0.00047350782606606166,0.3683377800750733,0.6891133068656922,-9.6723971210289
2026-09-11T18:26:15.324,1.3702359910002997,-160.1153564453125,-14410.382080078125,-57641.5283203125,-109.67901916503907,0.0,0.0,0.0,0.0,0.0,0.0,-0.002777099609375,-22.75,-0.999755859375,0.0,0.0,0.0,1,1789165574.431987,38.99141343833333,-76.93670178166667,-10.339000000000002,0,1,17.347225,6.604899999999999,45.846441,1,1,1789165575.3174627,-0.8627368219168575,0.5039902621754301,0.0037623190988713413,-0.0408024104207076,175.74242277000795,-1.9849080998951658,-60.5111167281414,0.001807986572140926,0.004274485871059312,-0.00017784905077822217,0.3728488391494751,0.6864655113220216,-9.667886061954498
2026-09-11T18:26:15.357,1.4036567840003045,-160.1153564453125,-14410.382080078125,-57641.5283203125,-109.67901916503907,0.0,0.0,0.0,0.0,0.0,0.0,-0.002777099609375,-22.75,-0.999755859375,0.0,0.0,0.0,1,1789165574.431987,38.99141343833333,-76.93670178166667,-10.339000000000002,0,1,17.347225,6.604899999999999,45.846441,1,1,1789165575.3494625,-0.8628167203056109,0.5038565298744203,0.003692188303974317,-0.040770972633783986,175.749275859652,-1.9893698482444846,-60.49320454485768,-0.000661479786505851,0.0009009389598794729,0.001904328746851013,0.3721623736381531,0.679306656703949,-9.672985520038605
2026-09-11T18:26:15.391,1.4370794639999076,-160.1153564453125,-14410.382080078125,-57641.5283203125,-109.67901916503907,0.0,0.0,0.0,0.0,0.0,0.0,-0.002777099609375,-22.75,-0.999755859375,0.0,0.0,0.0,1,1789165574.431987,38.99141343833333,-76.93670178166667,-10.339000000000002,0,1,17.347225,6.604899999999999,45.846441,1,1,1789165575.3774626,-0.86289053828927,0.503732026576731,0.003631002151331549,-0.04075267052759034,175.75433089414375,-1.993753208069227,-60.47653018968987,-0.0011999138607461017,-0.0014566517937144676,-0.0020662953014360867,0.3710836421203613,0.6898978388786315,-9.672102921524049
2026-09-11T18:26:15.424,1.4704963209997004,-160.1153564453125,-14410.382080078125,-57641.5283203125,-109.67901916503907,0.0,0.0,0.0,0.0,0.0,0.0,-0.002777099609375,-22.75,-0.999755859375,0.0,0.0,0.0,1,1789165574.431987,38.99141343833333,-76.93670178166667,-10.339000000000002,0,1,17.347225,6.604899999999999,45.846441,1,1,1789165575.4174626,-0.862982816358781,0.5035725110188317,0.0036011364312865716,-0.04077274373963604,175.75369397127898,-1.9970836739951898,-60.455260688424026,-2.7401669256310975e-05,0.0010861183935160714,-0.00012985249634837813,0.3748101691818237,0.6882307083511353,-9.676613980598448
2026-09-11T18:26:15.458,1.503910458000064,-160.1153564453125,-14410.382080078125,-57641.5283203125,-109.67901916503907,0.0,0.0,0.0,0.0,0.0,0.0,-0.002777099609375,-22.75,-0.999755859375,0.0,0.0,0.0,1,1789165575.4296849,38.991413273333336,-76.93670199666667,-10.372000000000003,0,1,17.347225,6.604899999999999,45.846441,1,1,1789165575.4494627,-0.8630489819644216,0.5034640597619282,0.0035527501777136484,-0.04071576137551711,175.76188147615014,-1.9980480905633866,-60.44080062316113,-0.00016458454846306526,0.00044977134823893873,0.0009998991284675513,0.37010297710418705,0.6833273832702638,-9.676417847595216
2026-09-11T18:26:15.491,1.5373353149998366,-160.1153564453125,-14410.382080078125,-57641.5283203125,-109.67901916503907,0.0,0.0,0.0,0.0,0.0,0.0,-0.002777099609375,-22.75,-0.999755859375,0.0,0.0,0.0,1,1789165575.4296849,38.991413273333336,-76.93670199666667,-10.372000000000003,0,1,17.347225,6.604899999999999,45.846441,1,1,1789165575.4894626,-0.8631251422403572,0.5033433113006955,0.0034463243701904193,-0.04060323447398653,175.77889129525795,-2.001491622465818,-60.424607759960644,0.0011583750245486365,0.00045884706034930923,0.0007346090821644134,0.36529771852493287,0.6902901048851012,-9.669160926475525
2026-09-11T18:26:15.524,1.5707502189998195,-160.1153564453125,-14410.382080078125,-57641.5283203125,-109.67901916503907,0.0,0.0,0.0,0.0,0.0,0.0,-0.002777099609375,-22.75,-0.999755859375,0.0,0.0,0.0,1,1789165575.4296849,38.991413273333336,-76.93670199666667,-10.372000000000003,0,1,17.347225,6.604899999999999,45.846441,1,1,1789165575.5174625,-0.8631988937102094,0.5032136029868591,0.0034837848621082444,-0.040639917685559766,175.77279617239046,-1.999267521706233,-60.40747186685371,-0.0002734930937875114,0.0021556561591381963,0.00047612581994405307,0.3735353046607971,0.6916630359077454,-9.6746526505661
2026-09-11T18:26:15.557,1.6041646439998658,-160.1153564453125,-14410.382080078125,-57641.5283203125,-109.67901916503907,0.0,0.0,0.0,0.0,0.0,0.0,-0.002777099609375,-22.75,-0.999755859375,0.0,0.0,0.0,1,1789165575.4296849,38.991413273333336,-76.93670199666667,-10.372000000000003,0,1,17.347225,6.604899999999999,45.846441,1,1,1789165575.5494626,-0.8632832921491378,0.5030692916258968,0.0034587285101318485,-0.0406359756405307,175.77429615538514,-2.0008141642917203,-60.388267746180595,-0.0003925245487735247,0.002648013541125797,-0.0032375857624494814,0.36637645004272457,0.6812679867362976,-9.675241049575806
2026-09-11T18:26:15.591,1.6375807969998277,-160.1153564453125,-14410.382080078125,-57641.5283203125,-109.67901916503907,0.0,0.0,0.0,0.0,0.0,0.0,-0.002777099609375,-22.75,-0.999755859375,0.0,0.0,0.0,1,1789165575.4296849,38.991413273333336,-76.93670199666667,-10.372000000000003,0,1,17.347225,6.604899999999999,45.846441,1,1,1789165575.5894625,-0.8633592399445967,0.5029436462985769,0.003321314049810219,-0.04058916509566284,175.7865572912793,-2.0111023770742356,-60.37126794333391,0.0015351916100542122,0.002606125639077933,-0.001316152788928924,0.3728488391494751,0.6854848463058472,-9.673181653041839
2026-09-11T18:26:15.625,1.6709997979996842,-160.1153564453125,-14410.382080078125,-57641.5283203125,-109.67901916503907,0.0,0.0,0.0,0.0,0.0,0.0,-0.002777099609375,-22.75,-0.999755859375,0.0,0.0,0.0,1,1789165575.4296849,38.991413273333336,-76.93670199666667,-10.372000000000003,0,1,17.347225,6.604899999999999,45.846441,1,1,1789165575.6174626,-0.8634069555271854,0.5028609816833032,0.0032700658860247154,-0.04060257278649676,175.78798405985629,-2.016546140778071,-60.36014630225728,-0.0004054399852382828,0.0012939871074285959,-0.0015049974139947104,0.37304497215270993,0.6925456344223022,-9.667395729446412
2026-09-11T18:26:15.658,1.7044284300000072,-160.1153564453125,-14410.382080078125,-57641.5283203125,-109.67901916503907,0.0,0.0,0.0,0.0,0.0,0.0,-0.002777099609375,-22.75,-0.999755859375,0.0,0.0,0.0,1,1789165575.4296849,38.991413273333336,-76.93670199666667,-10.372000000000003,0,1,17.347225,6.604899999999999,45.846441,1,1,1789165575.6494627,-0.8634771181905928,0.5027425140637339,0.0032749671347618394,-0.040577154957088475,175.7899477084309,-2.0140178025687465,-60.344483572288354,-0.0006649704450098396,-0.001395565269894666,-0.001059763921810957,0.3718681741333008,0.6820525187492371,-9.675927515087128
2026-09-11T18:26:15.692,1.7378510150001603,-160.1153564453125,-14410.382080078125,-57641.5283203125,-109.67901916503907,0.0,0.0,0.0,0.0,0.0,0.0,-0.002777099609375,-22.75,-0.999755859375,0.0,0.0,0.0,1,1789165575.4296849,38.991413273333336,-76.93670199666667,-10.372000000000003,0,1,17.347225,6.604899999999999,45.846441,1,1,1789165575.6894627,-0.8635663457698118,0.5025907860699266,0.0032744855973610085,-0.04055793332333135,175.79152949535612,-2.012218328208983,-60.32439064852479,0.0014529866022852795,-0.00037297686115118824,0.0003066543495754037,0.3688281125831604,0.688622974357605,-9.667886061954498
2026-09-11T18:26:15.725,1.771273504000419,-160.1153564453125,-14410.382080078125,-57641.5283203125,-109.67901916503907,0.0,0.0,0.0,0.0,0.0,0.0,-0.002777099609375,-22.75,-0.999755859375,0.0,0.0,0.0,1,1789165575.4296849,38.991413273333336,-76.93670199666667,-10.372000000000003,0,1,17.347225,6.604899999999999,45.846441,1,1,1789165575.7164626,-0.8636050904410176,0.5025272324421358,0.0032293974794322393,-0.04052405964768847,175.79733542334154,-2.0144211535823775,-60.31587726894485,-0.0014353587768401366,-0.0012758356832078548,-0.00101264003200711,0.37010297710418705,0.6896036393737792,-9.672887453536987
2026-09-11T18:26:15.758,1.8046925369999371,-160.1153564453125,-14410.382080078125,-57641.5283203125,-109.67901916503907,0.0,0.0,0.0,0.0,0.0,0.0,-0.002777099609375,-22.75,-0.999755859375,0.0,0.0,0.0,1,1789165575.4296849,38.991413273333336,-76.93670199666667,-10.372000000000003,0,1,17.347225,6.604899999999999,45.846441,1,1,1789165575.7494626,-0.8636650418524603,0.5024269300380808,0.0032179573848443044,-0.04049098917989875,175.80104121992727,-2.013160629806969,-60.302588167753456,-0.00128037353926304,-0.0002537708732399755,0.0006204645490839842,0.3691223120880127,0.685680979309082,-9.674162318058015
2026-09-11T18:26:15.792,1.8381125930000053,-160.1153564453125,-14410.382080078125,-57641.5283203125,-109.67901916503907,0.0,0.0,0.0,0.0,0.0,0.0,-0.002777099609375,-22.75,-0.999755859375,0.0,0.0,0.0,1,1789165575.4296849,38.991413273333336,-76.93670199666667,-10.372000000000003,0,1,17.347225,6.604899999999999,45.846441,1,1,1789165575.7894626,-0.8636885744114252,0.502399157021248,0.002945402378268564,-0.040354157906336584,175.83022290192153,-2.03213259144009,-60.2983004215556,0.0010288715940506574,0.0005417501998190399,0.0010861183935160714,0.37275077264785766,0.6898978388786315,-9.676613980598448
2026-09-11T18:26:15.825,1.8715258020001784,-160.1153564453125,-14410.382080078125,-57641.5283203125,-109.67901916503907,0.0,0.0,0.0,0.0,0.0,0.0,-0.002777099609375,-22.75,-0.999755859375,0.0,0.0,0.0,1,1789165575.4296849,38.991413273333336,-76.93670199666667,-10.372000000000003,0,1,17.347225,6.604899999999999,45.846441,1,1,1789165575.8174627,-0.8637325888936119,0.5023233882129894,0.002891790511945086,-0.040359213136482545,175.83262495297913,-2.037367965392908,-60.28810319594445,-0.0010960667702524388,0.002244667950989907,-0.0012498302773531393,0.37127977512359617,0.6896036393737792,-9.671612589015961
2026-09-11T18:26:15.858,1.9049480989997392,-160.1153564453125,-14410.382080078125,-57641.5283203125,-109.67901916503907,0.0,0.0,0.0,0.0,0.0,0.0,-0.002777099609375,-22.75,-0.999755859375,0.0,0.0,0.0,1,1789165575.4296849,38.991413273333336,-76.93670199666667,-10.372000000000003,0,1,17.347225,6.604899999999999,45.846441,1,1,1789165575.8494625,-0.8638042503633577,0.5021971335800343,0.002943672758345375,-0.04039295568396503,175.82599778277662,-2.0335641665986945,-60.27147536006894,-0.0018313739841176499,-0.002042558823608964,-0.00316724899359411,0.3725546396446228,0.6837196492767335,-9.671906788520813
2026-09-11T18:26:15.892,1.9383678359999976,-160.1153564453125,-14410.382080078125,-57641.5283203125,-109.67901916503907,0.0,0.0,0.0,0.0,0.0,0.0,-0.002777099609375,-22.75,-0.999755859375,0.0,0.0,0.0,1,1789165575.4296849,38.991413273333336,-76.93670199666667,-10.372000000000003,0,1,17.347225,6.604899999999999,45.846441,1,1,1789165575.8894627,-0.8638857177273035,0.5020542603403637,0.0029508256939105443,-0.040426216847434915,175.82195009101815,-2.0340811517221975,-60.252523090001155,0.0004237659423842232,0.0032154200809491533,-0.00018936822384138475,0.3702991101074219,0.6896036393737792,-9.666905396938324
2026-09-11T18:26:15.925,1.9717805640002553,-160.1153564453125,-14410.382080078125,-57641.5283203125,-109.67901916503907,0.0,0.0,0.0,0.0,0.0,0.0,-0.002777099609375,-22.75,-0.999755859375,0.0,0.0,0.0,1,1789165575.4296849,38.991413273333336,-76.93670199666667,-10.372000000000003,0,1,17.347225,6.604899999999999,45.846441,1,1,1789165575.9174626,-0.8639335570018973,0.5019722424175126,0.0029288025102377044,-0.040423990948933675,175.82324334730086,-2.035738318492832,-60.24159620853914,-0.001640260431024271,-0.0025523694981165078,-0.0031089549965774995,0.37206430713653565,0.6900939718818665,-9.670435790996551
2026-09-11T18:26:15.959,2.0052007169997523,-160.1153564453125,-14410.382080078125,-57641.5283203125,-109.67901916503907,0.0,0.0,0.0,0.0,0.0,0.0,-0.002777099609375,-22.75,-0.999755859375,0.0,0.0,0.0,1,1789165575.4296849,38.991413273333336,-76.93670199666667,-10.372000000000003,0,1,17.347225,6.604899999999999,45.846441,1,1,1789165575.9494627,-0.8639830302197123,0.5018897176824715,0.0029154162625844586,-0.040392265658027074,175.8269672617562,-2.0348395848384366,-60.230661407932814,-0.0019750145815567834,-0.0017863444894161962,-0.0015437437233889845,0.37137784162521364,0.68499451379776,-9.675927515087128
2026-09-11T18:26:15.993,2.038624966000498,-160.1153564453125,-14410.382080078125,-57641.5283203125,-109.67901916503907,0.0,0.0,0.0,0.0,0.0,0.0,-0.002777099609375,-22.75,-0.999755859375,0.0,0.0,0.0,1,1789165575.4296849,38.991413273333336,-76.93670199666667,-10.372000000000003,0,1,17.347225,6.604899999999999,45.846441,1,1,1789165575.9894626,-0.8640782763710542,0.5017218202198406,0.002978321086500145,-0.04043608564665772,175.81861125923214,-2.030318545414156,-60.20854101846844,0.00011850785621041498,0.002293711702970948,-0.001229933523880404,0.36931844509124756,0.6876423093414307,-9.667689928951264
2026-09-11T18:26:16.025,2.0720526069999323,-160.1153564453125,-14410.382080078125,-57641.5283203125,-109.67901916503907,0.0,0.0,0.0,0.0,0.0,0.0,-0.002777099609375,-22.75,-0.999755859375,0.0,0.0,0.0,1,1789165575.4296849,38.991413273333336,-76.93670199666667,-10.372000000000003,0,1,17.347225,6.604899999999999,45.846441,1,1,1789165576.0164626,-0.8641288366998469,0.5016341555876601,0.0030174068990961823,-0.04044036086918269,175.81573779587433,-2.026267948522495,-60.19703189094232,-0.0018709929581379214,-0.0031140164514082825,-0.003488215043035867,0.37177010763168333,0.6891133068656922,-9.671122256507873
2026-09-11T18:26:16.059,2.1054701670000213,-160.1153564453125,-14410.382080078125,-57641.5283203125,-109.67901916503907,0.0,0.0,0.0,0.0,0.0,0.0,-0.002777099609375,-22.75,-0.999755859375,0.0,0.0,0.0,1,1789165575.4296849,38.991413273333336,-76.93670199666667,-10.372000000000003,0,1,17.347225,6.604899999999999,45.846441,1,1,1789165576.0494626,-0.8641855607826431,0.5015377265899233,0.0030272421499470026,-0.040423522196434684,175.8166196381175,-2.023858245297305,-60.18430519988866,-0.0010461503536454012,-0.0019039796810006143,-0.0006719517620178169,0.3683377800750733,0.6854848463058472,-9.669455125980377
2026-09-11T18:26:16.093,2.138890383999751,-160.1153564453125,-14410.382080078125,-57641.5283203125,-109.67901916503907,0.0,0.0,0.0,0.0,0.0,0.0,-0.002777099609375,-22.75,-0.999755859375,0.0,0.0,0.0,1,1789165575.4296849,38.991413273333336,-76.93670199666667,-10.372000000000003,0,1,17.347225,6.604899999999999,45.846441,1,1,1789165576.0894625,-0.8642462456423248,0.5014366615006377,0.002919260872284013,-0.04038786095104692,175.8261201113287,-2.0320190031152947,-60.170657580983466,-0.00044715335436094726,0.0010464994194958,-6.387905062299247e-05,0.36931844509124756,0.6871519768333434,-9.669945458488465
2026-09-11T18:26:16.126,2.172304489000453,-160.1153564453125,-14410.382080078125,-57641.5283203125,-109.67901916503907,0.0,0.0,0.0,0.0,0.0,0.0,-0.002777099609375,-22.75,-0.999755859375,0.0,0.0,0.0,1,1789165575.4296849,38.991413273333336,-76.93670199666667,-10.372000000000003,0,1,17.347225,6.604899999999999,45.846441,1,1,1789165576.1174626,-0.8642698818907127,0.5014000162566802,0.002794275002203321,-0.04034584218511986,175.83737721988305,-2.0418118015862547,-60.16550598276407,-0.00047403142484165993,0.000527263967027487,0.0006295402611943546,0.3723585066413879,0.6884268413543702,-9.667886061954498
2026-09-11T18:26:16.159,2.205727298000056,-160.1153564453125,-14410.382080078125,-57641.5283203125,-109.67901916503907,0.0,0.0,0.0,0.0,0.0,0.0,-0.002777099609375,-22.75,-0.999755859375,0.0,0.0,0.0,1,1789165575.4296849,38.991413273333336,-76.93670199666667,-10.372000000000003,0,1,17.347225,6.604899999999999,45.846441,1,1,1789165576.1494627,-0.8643433385500349,0.5012697682359095,0.0028602920139697958,-0.04038602835749127,175.82929300383765,-2.036952622839427,-60.14839059369173,-0.0008504989444968368,-0.0034620351042559524,-0.00102189027704268,0.37304497215270993,0.6862693783187866,-9.6723971210289
2026-09-11T18:26:16.193,2.239155897999808,-160.1153564453125,-14410.382080078125,-57641.5283203125,-109.67901916503907,0.0,0.0,0.0,0.0,0.0,0.0,-0.002777099609375,-22.75,-0.999755859375,0.0,0.0,0.0,1,1789165575.4296849,38.991413273333336,-76.93670199666667,-10.372000000000003,0,1,17.347225,6.604899999999999,45.846441,1,1,1789165576.1894627,-0.8644157050663864,0.501144064572217,0.0028190822355674246,-0.04040010091533109,175.82996299880503,-2.0412400418623604,-60.13161177849139,-0.0004417428336797648,0.0018001325905069514,-0.001476199481336804,0.37333917165756225,0.6867597108268737,-9.6746526505661
2026-09-11T18:26:16.226,2.272573586999897,-160.1153564453125,-14410.382080078125,-57641.5283203125,-109.67901916503907,0.0,0.0,0.0,0.0,0.0,0.0,-0.002777099609375,-22.75,-0.999755859375,0.0,0.0,0.0,1,1789165575.4296849,38.991413273333336,-76.93670199666667,-10.372000000000003,0,1,17.347225,6.604899999999999,45.846441,1,1,1789165576.2174625,-0.8644664174228224,0.5010555246121593,0.002853546535763921,-0.040410786628732806,175.82671717649654,-2.038011203357392,-60.119969802981146,-0.0007150613945420768,-0.004245862471326605,-0.002674368012830911,0.37275077264785766,0.6908785038948059,-9.671416456012727
2026-09-11T18:26:16.259,2.3060092599998825,-160.1153564453125,-14410.382080078125,-57641.5283203125,-109.67901916503907,0.0,0.0,0.0,0.0,0.0,0.0,-0.002777099609375,-22.75,-0.999755859375,0.0,0.0,0.0,1,1789165575.4296849,38.991413273333336,-76.93670199666667,-10.372000000000003,0,1,17.347225,6.604899999999999,45.846441,1,1,1789165576.2494626,-0.8645127189491094,0.5009797685318224,0.0028266600275368378,-0.04036137126149902,175.8329883694811,-2.037471610609807,-60.10992152519616,0.0009517280411125079,-0.002497042560828287,-0.0009906488834319814,0.37206430713653565,0.6867597108268737,-9.67886951013565
2026-09-11T18:26:16.293,2.3394350449998456,-160.1153564453125,-14410.382080078125,-57641.5283203125,-109.67901916503907,0.0,0.0,0.0,0.0,0.0,0.0,-0.002777099609375,-22.75,-0.999755859375,0.0,0.0,0.0,1,1789165575.4296849,38.991413273333336,-76.93670199666667,-10.372000000000003,0,1,17.347225,6.604899999999999,45.846441,1,1,1789165576.2894626,-0.8645938462755204,0.5008381000937316,0.0028403341684772325,-0.04038082439492855,175.82993932201288,-2.0365512071778316,-60.09117822178934,-0.0013721778579179418,0.00021327923459370707,-0.0018242181341844733,0.3728488391494751,0.6867597108268737,-9.67543718257904
2026-09-11T18:26:16.326,2.372855645000527,-160.1153564453125,-14410.382080078125,-57641.5283203125,-109.67901916503907,0.0,0.0,0.0,0.0,0.0,0.0,-0.002777099609375,-22.75,-0.999755859375,0.0,0.0,0.0,1,1789165575.4296849,38.991413273333336,-76.93670199666667,-10.372000000000003,0,1,17.347225,6.604899999999999,45.846441,1,1,1789165576.3174627,-0.8646574281250133,0.5007254705707247,0.0028919269171874084,-0.04041252118674729,175.823569858393,-2.032713714409565,-60.07637263596847,-0.00012671090369478834,-0.0020233602018370263,-0.0019668115340724097,0.3696126445960999,0.6864655113220216,-9.670435790996551
2026-09-11T18:26:16.359,2.406266965999748,-160.1153564453125,-14410.382080078125,-57641.5283203125,-109.67901916503907,0.0,0.0,0.0,0.0,0.0,0.0,-0.002777099609375,-22.75,-0.999755859375,0.0,0.0,0.0,1,1789165575.4296849,38.991413273333336,-76.93670199666667,-10.372000000000003,0,1,17.347225,6.604899999999999,45.846441,1,1,1789165576.3494625,-0.8647267186912023,0.5006038383419309,0.002909434939100536,-0.04043555622477861,175.81999322333797,-2.0317133799874276,-60.060291812726284,-0.00020961404316451897,-0.0004071853144902771,-0.0012878784550466157,0.3723585066413879,0.6876423093414307,-9.66896479347229
2026-09-11T18:26:16.394,2.439693711000473,-160.1153564453125,-14410.382080078125,-57641.5283203125,-109.67901916503907,0.0,0.0,0.0,0.0,0.0,0.0,-0.002777099609375,-22.75,-0.999755859375,0.0,0.0,0.0,1,1789165575.4296849,38.991413273333336,-76.93670199666667,-10.372000000000003,0,1,17.347225,6.604899999999999,45.846441,1,1,1789165576.3894627,-0.8647973589434103,0.500482646815188,0.0028654058052622303,-0.040428178921854005,175.82296359119292,-2.0350705166462943,-60.04413446337066,-0.0014297737232337549,-0.0006180210881311921,-0.002032435913947397,0.37275077264785766,0.6906823708915711,-9.673181653041839
2026-09-11T18:26:16.426,2.4731104720003714,-160.1153564453125,-14410.382080078125,-57641.5283203125,-109.67901916503907,0.0,0.0,0.0,0.0,0.0,0.0,-0.002777099609375,-22.75,-0.999755859375,0.0,0.0,0.0,1,1789165575.4296849,38.991413273333336,-76.93670199666667,-10.372000000000003,0,1,17.347225,6.604899999999999,45.846441,1,1,1789165576.4174626,-0.864851674489991,0.5003859298085565,0.002861442276611378,-0.04046374339557521,175.81942966781958,-2.037037931950772,-60.03127930546232,-0.0004742059577668593,-0.0007108726043372905,-0.00019722220547535924,0.3748101691818237,0.688622974357605,-9.667395729446412
2026-09-11T18:26:16.460,2.506529311999657,-160.1153564453125,-14410.382080078125,-57641.5283203125,-109.67901916503907,0.0,0.0,0.0,0.0,0.0,0.0,-0.002777099609375,-22.75,-0.999755859375,0.0,0.0,0.0,1,1789165576.4322536,38.99141310666667,-76.93670219,-10.424000000000003,0,1,17.347225,6.604899999999999,45.846441,1,1,1789165576.4494627,-0.8649067005479993,0.5002903426737135,0.0028378861562174404,-0.04047120923268806,175.8198116557625,-2.0393408074081876,-60.018552889080674,0.0013857914260834976,-0.00010786134777324956,-0.000827635131295711,0.37530050168991086,0.6901920383834839,-9.669651258983611
2026-09-11T18:26:16.493,2.5399558010003602,-160.1153564453125,-14410.382080078125,-57641.5283203125,-109.67901916503907,0.0,0.0,0.0,0.0,0.0,0.0,-0.002777099609375,-22.75,-0.999755859375,0.0,0.0,0.0,1,1789165576.4322536,38.99141310666667,-76.93670219,-10.424000000000003,0,1,17.347225,6.604899999999999,45.846441,1,1,1789165576.4894626,-0.8649821752652882,0.5001615108200858,0.002849990880958737,-0.040449686271688226,175.82095478523303,-2.036283462139396,-60.00156112575228,-0.0016276940604099117,-0.0007838273670706533,-0.0012901473830742084,0.3696126445960999,0.6840138487815858,-9.669160926475525
2026-09-11T18:26:16.526,2.5733781939998153,-160.1153564453125,-14410.382080078125,-57641.5283203125,-109.67901916503907,0.0,0.0,0.0,0.0,0.0,0.0,-0.002777099609375,-22.75,-0.999755859375,0.0,0.0,0.0,1,1789165576.4322536,38.99141310666667,-76.93670219,-10.424000000000003,0,1,17.347225,6.604899999999999,45.846441,1,1,1789165576.5164626,-0.8650350924658706,0.5000681363011874,0.002879104012105998,-0.04047046600803213,175.81700446492692,-2.034136910591933,-59.989260832223486,0.0008333947178272924,-0.0018310249182672512,-8.395033702092725e-05,0.3710836421203613,0.6889171738624573,-9.669945458488465
2026-09-11T18:26:16.560,2.606788267000411,-160.1153564453125,-14410.382080078125,-57641.5283203125,-109.67901916503907,0.0,0.0,0.0,0.0,0.0,0.0,-0.002777099609375,-22.75,-0.999755859375,0.0,0.0,0.0,1,1789165576.4322536,38.99141310666667,-76.93670219,-10.424000000000003,0,1,17.347225,6.604899999999999,45.846441,1,1,1789165576.5494626,-0.8650700706828446,0.5000140098996286,0.0027819438910756176,-0.04039831062135597,175.8296077278054,-2.0393748059044428,-59.98191228232564,0.0006632251157578452,-0.00021886428820008894,0.0008576547944300136,0.37127977512359617,0.687250043334961,-9.674946850070953
2026-09-11T18:26:16.594,2.640213923000374,-160.1153564453125,-14410.382080078125,-57641.5283203125,-109.67901916503907,0.0,0.0,0.0,0.0,0.0,0.0,-0.002777099609375,-22.75,-0.999755859375,0.0,0.0,0.0,1,1789165576.4322536,38.99141310666667,-76.93670219,-10.424000000000003,0,1,17.347225,6.604899999999999,45.846441,1,1,1789165576.5894625,-0.8651572207229169,0.4998610063492504,0.002832139801003005,-0.04042198345776856,175.82402387906055,-2.035015536562317,-59.96177794187501,-0.0012316788531323982,-0.002282890661608583,-0.0014208725440485836,0.3696126445960999,0.6876423093414307,-9.669455125980377
2026-09-11T18:26:16.627,2.6736377240004003,-160.1153564453125,-14410.382080078125,-57641.5283203125,-109.67901916503907,0.0,0.0,0.0,0.0,0.0,0.0,-0.002777099609375,-22.75,-0.999755859375,0.0,0.0,0.0,1,1789165576.4322536,38.99141310666667,-76.93670219,-10.424000000000003,0,1,17.347225,6.604899999999999,45.846441,1,1,1789165576.6174626,-0.8651921110135217,0.4998022130431482,0.0027256207608965773,-0.040409526953493084,175.8312158322309,-2.0445852158649043,-59.95371731236423,0.0009693558665576506,0.0015964526667992132,-0.0010442304914682074,0.3633363884925842,0.69225143491745,-9.658177478294371
2026-09-11T18:26:16.660,2.7070542930005104,-160.1153564453125,-14410.382080078125,-57641.5283203125,-109.67901916503907,0.0,0.0,0.0,0.0,0.0,0.0,-0.002777099609375,-22.75,-0.999755859375,0.0,0.0,0.0,1,1789165576.4322536,38.99141310666667,-76.93670219,-10.424000000000003,0,1,17.347225,6.604899999999999,45.846441,1,1,1789165576.6494627,-0.8652272010187259,0.4997452383027268,0.0026581367698884245,-0.04036733481374251,175.83913454101918,-2.0485876674571624,-59.94604239193081,0.0010786134777324957,0.0012456414871483531,-6.440264939859077e-05,0.38638201637268066,0.6862693783187866,-9.66317886987686
2026-09-11T18:26:16.694,2.7404762699998173,-160.1153564453125,-14410.382080078125,-57641.5283203125,-109.67901916503907,0.0,0.0,0.0,0.0,0.0,0.0,-0.002777099609375,-22.75,-0.999755859375,0.0,0.0,0.0,1,1789165576.4322536,38.99141310666667,-76.93670219,-10.424000000000003,0,1,17.347225,6.604899999999999,45.846441,1,1,1789165576.6894627,-0.8652530158643118,0.4997023403151182,0.002370330140672229,-0.04036299241051352,175.85592071563752,-2.0766871484273612,-59.939584993476565,-0.0004824090052512327,-0.000530056493830678,-0.002689726910248461,0.38500908535003664,0.6876423093414307,-9.594238119239806
2026-09-11T18:26:16.727,2.77388659799999,-160.1153564453125,-14410.382080078125,-57641.5283203125,-109.67901916503907,0.0,0.0,0.0,0.0,0.0,0.0,-0.002655029296875,-21.75,-0.955810546875,0.0,0.0,0.0,1,1789165576.4322536,38.99141310666667,-76.93670219,-10.424000000000003,0,1,17.347225,6.604899999999999,45.846441,1,1,1789165576.7174625,-0.8652450023210952,0.49971987825638137,0.002694203951867689,-0.04029727656877991,175.84397662568844,-2.040872177312622,-59.94286952280618,0.00039863320115550487,0.001648812544359043,0.004560719868386382,1.0359745230865478,0.6992141565322876,-9.988073189735411
2026-09-11T18:26:16.760,2.807300254999973,-160.1153564453125,-14410.382080078125,-57641.5283203125,-109.67901916503907,0.0,0.0,0.0,0.0,0.0,0.0,-0.001468658447265625,-12.03125,-0.528717041015625,-0.0915527418255806,-32.958987057209015,-986.3926913844241,1,1789165576.4322536,38.99141310666667,-76.93670219,-10.424000000000003,0,1,17.347225,6.604899999999999,45.846441,1,1,1789165576.7494626,-0.8652388293434666,0.499678856787545,0.0033860691955812767,-0.040882059772502415,175.7461889902484,-2.0055489326519855,-59.93871771434201,-0.0013482668471656196,0.009410815326753426,-0.002968106925941557,0.3989345285797119,0.924669043750763,-9.98738672422409
2026-09-11T18:26:16.794,2.840721976000168,-160.1153564453125,-14410.382080078125,-57641.5283203125,-109.67901916503907,0.0,0.0,0.0,0.0,0.0,0.0,-0.008211135864257812,-67.265625,-2.9560089111328125,-0.1525879204273224,-54.93165135383606,-657.4366501503223,1,1789165576.4322536,38.99141310666667,-76.93670219,-10.424000000000003,0,1,17.347225,6.604899999999999,45.846441,1,1,1789165576.7894626,-0.86532646006196,0.4994668610288476,0.001037935882604117,-0.04173601489997253,175.79496937051945,-2.286433722126203,-59.90317566079587,-0.0021116738619879395,0.0025930356696879757,-0.02288877140942924,0.735204562625885,0.5098477419090272,-9.819987205963136
2026-09-11T18:26:16.827,2.8741380009996647,-160.1153564453125,-14410.382080078125,-57641.5283203125,-109.67901916503907,0.0,0.0,0.0,0.0,0.0,0.0,-0.008943557739257812,-73.265625,-3.2196807861328125,0.0,0.0,1643.8715064004055,1,1789165576.4322536,38.99141310666667,-76.93670219,-10.424000000000003,0,1,17.347225,6.604899999999999,45.846441,1,1,1789165576.8174627,-0.8655251144308452,0.4992501797182802,0.0029448659407898844,-0.04008568454358615,175.84959239519202,-2.0016260636332253,-59.88167964544548,0.0009717993275104427,-0.0159441063157438,-0.005376486760768532,-0.6750897971343994,0.5889874087142944,-9.716821246261597
2026-09-11T18:26:16.861,2.907546473000366,-160.1153564453125,-14410.382080078125,-57641.5283203125,-109.67901916503907,0.0,0.0,0.0,0.0,0.0,0.0,-0.003261566162109375,-26.71875,-1.174163818359375,0.3356933891773224,120.84962010383606,3617.334552184824,1,1789165576.4322536,38.99141310666667,-76.93670219,-10.424000000000003,0,1,17.347225,6.604899999999999,45.846441,1,1,1789165576.8494625,-0.8654333131185814,0.49950716141927554,0.003462371836228204,-0.03880448706942241,175.94797102443022,-1.8781100609135746,-59.91855922623296,0.0002939134460358451,-0.03677426187244572,0.02290255951051999,0.5751600319862366,0.5734929014587402,-9.59678784828186
2026-09-11T18:26:16.894,2.9409708499997578,-160.1153564453125,-14410.382080078125,-57641.5283203125,-109.67901916503907,0.0,0.0,0.0,0.0,0.0,0.0,0.0021324160043150187,17.468751907348633,0.7676697615534067,0.0,0.0,-3615.613242575471,1,1789165576.4322536,38.99141310666667,-76.93670219,-10.424000000000003,0,1,17.347225,6.604899999999999,45.846441,1,1,1789165576.8894627,-0.8652696976290277,0.4997911715032609,0.0039668430683419045,-0.038747895535632945,175.92535544378504,-1.8261499896209132,-59.95762486270954,-0.0007154104603924756,-0.040033489717619934,0.020365199843970637,0.08855405096054077,0.6724420015907289,-9.56207230670929
2026-09-11T18:26:16.927,2.9743882829998256,-160.1153564453125,-14410.382080078125,-57641.5283203125,-109.67901916503907,0.0,0.0,0.0,0.0,0.0,0.0,0.0022277834359556437,18.250001907348633,0.8020020369440317,0.0,0.0,0.0,1,1789165576.4322536,38.99141310666667,-76.93670219,-10.424000000000003,0,1,17.347225,6.604899999999999,45.846441,1,1,1789165576.9174626,-0.8651476796793132,0.4999619737515278,0.00333258597231104,-0.03932443284669763,175.90471098103617,-1.9229256653335658,-59.97779495870792,0.002473480615926364,-0.01298542416776301,0.009959372310655242,0.8494520370101929,0.804047246761322,-9.65062635766983
2026-09-11T18:26:16.961,3.007797107999977,-160.1153564453125,-14410.382080078125,-57641.5283203125,-109.67901916503907,0.0,0.0,0.0,0.0,0.0,0.0,0.0022277834359556437,18.250001907348633,0.8020020369440317,0.0,0.0,0.0,1,1789165576.4322536,38.99141310666667,-76.93670219,-10.424000000000003,0,1,17.347225,6.604899999999999,45.846441,1,1,1789165576.9574625,-0.8652409279963126,0.4996556740214794,0.003195138793308034,-0.04113556887065845,175.73184887566808,-2.0389059036676835,-59.93480015091788,-0.0016622515795993995,0.036092536266616744,-0.015822805932730194,-0.017357770786285403,0.8495501035118103,-9.587961863136291
2026-09-11T18:26:16.995,3.0412178039996434,-160.1153564453125,-14410.382080078125,-57641.5283203125,-109.67901916503907,0.0,0.0,0.0,0.0,0.0,0.0,0.0019207003060728312,15.734376907348633,0.6914521101862192,0.0,0.0,0.0,1,1789165576.4322536,38.99141310666667,-76.93670219,-10.424000000000003,0,1,17.347225,6.604899999999999,45.846441,1,1,1789165576.9894626,-0.865337991500573,0.49956307716305476,0.003810223663784449,-0.04015438452729258,175.7940163665724,-1.9212029077270123,-59.92546834365344,-0.0004864232625308196,0.022069513858543097,0.003987728274956644,0.24428365552902223,0.5404444904136657,-9.715840581245422
2026-09-11T18:26:17.028,3.074632900999859,-160.1153564453125,-14410.382080078125,-57641.5283203125,-109.67901916503907,0.0,0.0,0.0,0.0,0.0,0.0,0.0019207003060728312,15.734376907348633,0.6914521101862192,0.0,0.0,0.0,1,1789165576.4322536,38.99141310666667,-76.93670219,-10.424000000000003,0,1,17.347225,6.604899999999999,45.846441,1,1,1789165577.0174625,-0.8653464996743897,0.4996135332006311,0.002277051468754653,-0.03945336463055873,175.95146905924466,-2.0333952508956594,-59.92866861767105,0.0016479398797330461,0.008788954514267845,0.003123441229369052,0.5473091455268859,0.45463630149841305,-9.726725962924958
2026-09-11T18:26:17.061,3.1080464619999475,-160.1153564453125,-14410.382080078125,-57641.5283203125,-109.67901916503907,0.0,0.0,0.0,0.0,0.0,0.0,0.0008621218148618937,7.062501907348633,0.3103638533502817,-0.0915527418255806,-32.958987057209015,-986.3955253713215,1,1789165576.4322536,38.99141310666667,-76.93670219,-10.424000000000003,0,1,17.347225,6.604899999999999,45.846441,1,1,1789165577.0574627,-0.8654983006880674,0.4993753797457971,0.0016658292997242946,-0.039168183804622246,176.01419129375046,-2.0766077721686087,-59.895922354609596,0.0015126768627034854,0.009112014958811995,-0.008821941237130539,0.278999197101593,0.7057846121406556,-9.706720396595001
2026-09-11T18:26:17.095,3.141469686000164,-160.1153564453125,-14410.382080078125,-57641.5283203125,-109.67901916503907,0.0,0.0,0.0,0.0,0.0,0.0,-0.001071929931640625,-8.78125,-0.385894775390625,-0.0915527418255806,-32.958987057209015,0.0,1,1789165576.4322536,38.99141310666667,-76.93670219,-10.424000000000003,0,1,17.347225,6.604899999999999,45.846441,1,1,1789165577.0894625,-0.8655772421257015,0.4991689732753157,0.002221666479935967,-0.04001797385405438,175.8974454710754,-2.069137558190434,-59.86904364407007,0.0008222246106145286,0.011513588009556194,-0.008503244115716374,0.35882532941818235,0.7966922591400147,-9.647488229618073
2026-09-11T18:26:17.128,3.174890191000486,-160.1153564453125,-14410.382080078125,-57641.5283203125,-109.67901916503907,0.0,0.0,0.0,0.0,0.0,0.0,-0.0033931732177734375,-27.796875,-1.2215423583984375,-0.0762939527630806,-27.465822994709015,164.36508252783952,1,1789165576.4322536,38.99141310666667,-76.93670219,-10.424000000000003,0,1,17.347225,6.604899999999999,45.846441,1,1,1789165577.1174626,-0.8656211073879042,0.4990464219921597,0.0018681212119983938,-0.040611294789734104,175.8583322063929,-2.137609665627868,-59.8511710578826,-0.00048764499300721565,0.0115118426803042,-0.005239303881561778,0.41423290283203124,0.7007832205581664,-9.665826665420532
2026-09-11T18:26:17.162,3.208305991999623,-160.1153564453125,-14410.382080078125,-57641.5283203125,-109.67901916503907,0.0,0.0,0.0,0.0,0.0,0.0,-0.00531005859375,-43.5,-1.91162109375,-0.0610351637005806,-21.972658932209015,164.38822049011688,1,1789165576.4322536,38.99141310666667,-76.93670219,-10.424000000000003,0,1,17.347225,6.604899999999999,45.846441,1,1,1789165577.1574626,-0.8657357810045782,0.49886987769968544,0.0023314873960694625,-0.040310876681312266,175.86133039895873,-2.073577797788796,-59.82943217603004,6.126105674500097e-05,-0.002021963938435431,-0.0044184755343488445,0.3160683347129822,0.6866616443252563,-9.689362625808716
2026-09-11T18:26:17.195,3.2417339849998825,-160.1153564453125,-14410.382080078125,-57641.5283203125,-109.67901916503907,0.0,0.0,0.0,0.0,0.0,0.0,-0.00652313232421875,-53.4375,-2.34832763671875,-0.030517585575580597,-10.986330807209015,328.6565282251534,1,1789165576.4322536,38.99141310666667,-76.93670219,-10.424000000000003,0,1,17.347225,6.604899999999999,45.846441,1,1,1789165577.1894627,-0.86580037384928,0.4987553451300929,0.0023576814665816088,-0.04033930694386263,175.85673386220702,-2.072056562437298,-59.814324471312915,0.002180090768666117,-0.004556705611106795,-0.005683141110343936,0.3889317454147339,0.7325567670822144,-9.68200763818741
2026-09-11T18:26:17.228,3.275149336999675,-160.1153564453125,-14410.382080078125,-57641.5283203125,-109.67901916503907,0.0,0.0,0.0,0.0,0.0,0.0,-0.0076160430908203125,-62.390625,-2.7417755126953125,-0.0457763746380806,-16.479494869709015,-164.39042936115385,1,1789165576.4322536,38.99141310666667,-76.93670219,-10.424000000000003,0,1,17.347225,6.604899999999999,45.846441,1,1,1789165577.2174625,-0.8658031466360349,0.49870871461174876,0.0025324582907900895,-0.04084257460596207,175.79658596296613,-2.0832680152882745,-59.808030961586084,0.0014107496343870166,-0.007936012108818216,-0.0033639476002938705,0.3747121026802063,0.801301384716034,-9.654647084236146
2026-09-11T18:26:17.262,3.308570002000124,-160.1153564453125,-14410.382080078125,-57641.5283203125,-109.67901916503907,0.0,0.0,0.0,0.0,0.0,0.0,-0.008874893188476562,-72.703125,-3.1949615478515625,-0.0457763746380806,-16.479494869709015,0.0,1,1789165576.4322536,38.99141310666667,-76.93670219,-10.424000000000003,0,1,17.347225,6.604899999999999,45.846441,1,1,1789165577.2574625,-0.865776667618244,0.4987202139788316,0.0028957092642193745,-0.04123742044083637,175.73660711512022,-2.069847417692312,-59.81009726007856,0.0011644836769306166,-0.013604492453445399,-0.004753927816582155,0.3703971766090393,0.77472536277771,-9.653960618724824
2026-09-11T18:26:17.295,3.3419926830001714,-160.1153564453125,-14410.382080078125,-57641.5283203125,-109.67901916503907,0.0,0.0,0.0,0.0,0.0,0.0,-0.010641098022460938,-87.171875,-3.8307952880859375,-0.0762939527630806,-27.465822994709015,-328.70876292013946,1,1789165576.4322536,38.99141310666667,-76.93670219,-10.424000000000003,0,1,17.347225,6.604899999999999,45.846441,1,1,1789165577.2884626,-0.8657448659891004,0.4987691279297026,0.0028483606730724154,-0.04131671428410697,175.73153797160526,-2.0793246556322926,-59.81633392193066,0.002076418211097654,-0.007019016119820396,-0.005716651431982227,0.3589233959197998,0.7693317051887513,-9.670435790996551
2026-09-11T18:26:17.329,3.3754097959999854,-160.14190673828125,-14412.771606445312,-57651.08642578125,-109.69720611572266,-0.01818695068359375,-0.9116969108581543,-0.6245123839378357,-1.396994416467956,-18.688400279859966,0.0,-0.012731552124023438,-104.296875,-4.5833587646484375,-0.0610351637005806,-21.972658932209015,164.38176638809517,1,1789165576.4322536,38.99141310666667,-76.93670219,-10.424000000000003,0,1,17.347225,6.604899999999999,45.846441,1,1,1789165577.3174627,-0.8657650745411944,0.4987319024014529,0.0028039217181511163,-0.04134565581419883,175.73110548231642,-2.085208481407879,-59.811250313545976,0.0004581489286485115,-0.006452307711697837,-0.004304680067118814,0.38628394987106324,0.720200387878418,-9.66435566789627
2026-09-11T18:26:17.362,3.4088284119998207,-160.1564483642578,-14414.080352783203,-57656.32141113281,-109.7071671295166,-0.028147964477539065,-0.36022257804870605,-0.24675246596336367,-0.5519695462673663,11.303876796583488,0.0,-0.014699935913085938,-120.421875,-5.2919769287109375,-0.0457763746380806,-16.479494869709015,164.374373329137,1,1789165576.4322536,38.99141310666667,-76.93670219,-10.424000000000003,0,1,17.347225,6.604899999999999,45.846441,1,1,1789165577.3574626,-0.8658001910449159,0.4987013593029831,0.0028856765013944028,-0.04097140816561589,175.76359736686516,-2.0555348309911166,-59.807894650407036,0.0023483405085583703,-0.012675977291384418,-0.004678180527045601,0.3481360807418823,0.7164738608169555,-9.670926123504639
2026-09-11T18:26:17.396,3.442255572999784,-160.15628051757812,-14414.065246582031,-57656.260986328125,-109.70705215454102,-0.028032989501953126,-0.07135485857725143,-0.04887807812541724,-0.10933714684461611,5.919569054583009,0.0,-0.016515731811523438,-135.296875,-5.9456634521484375,-0.0610351637005806,-21.972658932209015,-164.3323542345113,1,1789165576.4322536,38.99141310666667,-76.93670219,-10.424000000000003,0,1,17.347225,6.604899999999999,45.846441,1,1,1789165577.3894627,-0.8658571441964317,0.49863531382968573,0.00326678340238599,-0.04054081612612796,175.78453226425307,-1.9927495708081424,-59.80075846092997,0.0019430750562452871,-0.012937951212108766,-0.005622054586524134,0.31096887662887573,0.7102956712150573,-9.667493795948028
2026-09-11T18:26:17.429,3.475668525999936,-160.1563262939453,-14414.069366455078,-57656.27746582031,-109.70708351135255,-0.028064346313476565,-0.01883346401154995,-0.012900922847911717,-0.028858542519487523,1.0767427613279785,0.0,-0.018362045288085938,-150.421875,-6.6103363037109375,-0.0457763746380806,-16.479494869709015,164.40223234609127,1,1789165576.4322536,38.99141310666667,-76.93670219,-10.424000000000003,0,1,17.347225,6.604899999999999,45.846441,1,1,1789165577.4174626,-0.8658696684378367,0.49862194168093554,0.0032205981599172217,-0.04044136868574738,175.79702954337313,-1.9915824026956372,-59.79897315875597,-0.00020123646275494621,-0.013195736342628326,-0.00557719962474788,0.3865781493759155,0.7169641933250427,-9.669651258983611
2026-09-11T18:26:17.463,3.5090838790001726,-160.15599060058594,-14414.039154052734,-57656.15661621094,-109.70685356140137,-0.02783439636230469,0.0,0.0,0.0,0.3860777064907947,0.0,-0.019788742065429688,-162.109375,-7.1239471435546875,-0.030517585575580597,-10.986330807209015,164.39042443936097,1,1789165577.4382951,38.99141281833333,-76.93670249333333,-10.470000000000002,0,1,18.003049000000004,7.257636,70.76174400000001,1,1,1789165577.4574625,-0.8659180192998102,0.49856074801724093,0.0034458433246890414,-0.040140883798995615,175.8139313070961,-1.951740047224749,-59.791875018310726,0.0029457667115160295,-0.015713897387405747,-0.0038891171722189644,0.2957685688781738,0.7077459421730041,-9.674946850070953
2026-09-11T18:26:17.497,3.5425038390003465,-160.15599060058594,-14414.039154052734,-57656.15661621094,-109.70685356140137,-0.02783439636230469,0.0,0.0,0.0,0.0,0.0,-0.0206298828125,-169.0,-7.4267578125,-0.015258789993822575,-5.493164397776127,164.36783315731995,1,1789165577.4382951,38.99141281833333,-76.93670249333333,-10.470000000000002,0,1,18.003049000000004,7.257636,70.76174400000001,1,1,1789165577.4894626,-0.8659669435445141,0.49850349781717596,0.004046134318587734,-0.03973844673976536,175.8195922798733,-1.868854007257643,-59.78650801130294,0.002802475179927295,-0.013369222070276564,-0.00442598045013242,0.27782239908218387,0.7268689099884034,-9.694756283397675
2026-09-11T18:26:17.529,3.5759189359996526,-160.15599060058594,-14414.039154052734,-57656.15661621094,-109.70685356140137,-0.02783439636230469,0.0,0.0,0.0,0.0,0.0,-0.020780563354492188,-170.234375,-7.4810028076171875,-0.015258789993822575,-5.493164397776127,0.0,1,1789165577.4382951,38.99141281833333,-76.93670249333333,-10.470000000000002,0,1,18.003049000000004,7.257636,70.76174400000001,1,1,1789165577.5174625,-0.8659581182266154,0.49849637744932895,0.0042427084609386705,-0.03999873213279222,175.7824701096401,-1.8641852595165767,-59.78587092334721,0.0021718877211817436,-0.014124949636390109,-0.0047193702973926666,0.3783405632400513,0.813559697418213,-9.650822490673066
2026-09-11T18:26:17.563,3.609335793000355,-160.15599060058594,-14414.039154052734,-57656.15661621094,-109.70685356140137,-0.02783439636230469,0.0,0.0,0.0,0.0,0.0,-0.020784378051757812,-170.265625,-7.4823760986328125,0.0,0.0,164.38303571340302,1,1789165577.4382951,38.99141281833333,-76.93670249333333,-10.470000000000002,0,1,18.003049000000004,7.257636,70.76174400000001,1,1,1789165577.5574627,-0.8659187832855955,0.4985202718202081,0.004966038277200152,-0.0404665022126869,175.6947218075116,-1.819238782919592,-59.79075683250581,0.0010906562495712564,-0.005989271861143741,-0.0025487043066873194,0.35470653635025023,0.8101273698616028,-9.641408106517792
2026-09-11T18:26:17.596,3.6427586979998523,-160.15599060058594,-14414.039154052734,-57656.15661621094,-109.70685356140137,-0.02783439636230469,0.0,0.0,0.0,0.0,0.0,-0.021028518676757812,-172.265625,-7.5702667236328125,0.0,0.0,0.0,1,1789165577.4382951,38.99141281833333,-76.93670249333333,-10.470000000000002,0,1,18.003049000000004,7.257636,70.76174400000001,1,1,1789165577.5894625,-0.8658531922756337,0.49859227992353533,0.00511586992687025,-0.040961148685510644,175.637118805778,-1.833012159756191,-59.80022664121847,0.0014849261275967757,0.0050558697771771735,-0.006163281187567576,0.3039080885124207,0.8416067168807982,-9.680830840168
2026-09-11T18:26:17.629,3.676170146000004,-160.15599060058594,-14414.039154052734,-57656.15661621094,-109.70685356140137,-0.02783439636230469,0.0,0.0,0.0,0.0,0.0,-0.021661758422851562,-177.453125,-7.7982330322265625,0.0,0.0,0.0,1,1789165577.4382951,38.99141281833333,-76.93670249333333,-10.470000000000002,0,1,18.003049000000004,7.257636,70.76174400000001,1,1,1789165577.6174626,-0.8657836677000229,0.49867246487574823,0.004875611180874064,-0.04148062118935916,175.5993255983518,-1.8869787138979484,-59.809495873294296,0.0006239552075879728,0.009401914147568254,-0.006146002427972832,0.3038100220108032,0.8503346355247497,-9.710446923656464
2026-09-11T18:26:17.663,3.709582811000473,-160.15599060058594,-14414.039154052734,-57656.15661621094,-109.70685356140137,-0.02783439636230469,0.0,0.0,0.0,0.0,0.0,-0.022228240966796875,-182.09375,-8.002166748046875,-0.0457763709127903,-16.479493528604507,-493.2109883594477,1,1789165577.4382951,38.99141281833333,-76.93670249333333,-10.470000000000002,0,1,18.003049000000004,7.257636,70.76174400000001,1,1,1789165577.6574626,-0.8657104355194634,0.498723371676325,0.004760113943320427,-0.042400255798115696,175.5145461352211,-1.951312027559957,-59.81482917905909,0.0014385003694937263,0.01927925598337976,-0.005465673085545442,0.2997892954444885,0.8327807317352295,-9.679850175151826
2026-09-11T18:26:17.697,3.743002004000118,-160.1571807861328,-14414.146270751953,-57656.58508300781,-109.70766883850098,-0.028649673461914063,-0.026260698214173317,-0.017988578276708724,-0.04023930358963114,-0.5382708755684136,0.0,-0.023164749145507812,-189.765625,-8.339309692382812,-0.0305175818502903,-10.986329466104507,164.3715353197891,1,1789165577.4382951,38.99141281833333,-76.93670249333333,-10.470000000000002,0,1,18.003049000000004,7.257636,70.76174400000001,1,1,1789165577.6894627,-0.8656440837214072,0.49885273264500907,0.004178580441663796,-0.04229433669210083,175.55856674867937,-2.00363862848096,-59.8302054373136,0.000952600705738505,0.02104709998272482,-0.006644293929417212,0.3073404160690308,0.7780596238327026,-9.720547773323059
2026-09-11T18:26:17.729,3.7764107000002696,-160.15805053710938,-14414.224548339844,-57656.898193359375,-109.70826461791994,-0.029245452880859377,-0.026260698214173317,-0.017988578276708724,-0.04023930358963114,0.0,0.0,-0.023983001708984375,-196.46875,-8.633880615234375,-0.015258789993822575,-5.493164397776127,164.42321090004495,1,1789165577.4382951,38.99141281833333,-76.93670249333333,-10.470000000000002,0,1,18.003049000000004,7.257636,70.76174400000001,1,1,1789165577.7174625,-0.8656121920284486,0.4989402873765705,0.003955012757450246,-0.04193424040539911,175.60734953666284,-2.0056673040970376,-59.84150888237879,-0.0005626941508429718,0.009607513933453186,-0.005702863330891471,0.2874329162406921,0.7595250550270081,-9.641015840511322
2026-09-11T18:26:17.763,3.8098217970000405,-160.15892028808594,-14414.302825927734,-57657.21130371094,-109.70886039733888,-0.02984123229980469,-0.026260698214173317,-0.017988578276708724,-0.04023930358963114,0.0,0.0,-0.024080276489257812,-197.265625,-8.668899536132812,0.0,0.0,164.41137499357723,1,1789165577.4382951,38.99141281833333,-76.93670249333333,-10.470000000000002,0,1,18.003049000000004,7.257636,70.76174400000001,1,1,1789165577.7574625,-0.8655601047404314,0.4990205137910004,0.0033988591870394917,-0.042103202416517084,175.622483995831,-2.0709421561987273,-59.85023397799746,0.0004988151002199795,0.002322335102703655,-0.005213647541557461,0.3427424231529236,0.7853165449523926,-9.607575163459778
2026-09-11T18:26:17.797,3.8432359660000657,-160.15980529785156,-14414.38247680664,-57657.52990722656,-109.70946662902833,-0.030447463989257816,-0.026260698214173317,-0.017988578276708724,-0.04023930358963114,0.0,0.0,-0.024080276489257812,-197.265625,-8.668899536132812,0.0,0.0,0.0,1,1789165577.4382951,38.99141281833333,-76.93670249333333,-10.470000000000002,0,1,18.003049000000004,7.257636,70.76174400000001,1,1,1789165577.7894626,-0.8655573002150867,0.49900046375791884,0.0035099098169466226,-0.04238841524319092,175.58772701347004,-2.076144124330827,-59.84757278230827,-0.0016790067404185449,-0.007487986089831272,-0.004992688858254979,0.451890439453125,0.7595250550270081,-9.578155212974549
2026-09-11T18:26:17.830,3.876648407000175,-160.1802520751953,-14416.222686767578,-57664.89074707031,-109.7234726715088,-0.04445350646972657,-0.799464225769043,-0.5476329946517945,-1.2250201204630322,-15.8517127309959,0.0,-0.024080276489257812,-197.265625,-8.668899536132812,-0.015258789993822575,-5.493164397776127,-164.40476162032334,1,1789165577.4382951,38.99141281833333,-76.93670249333333,-10.470000000000002,0,1,18.003049000000004,7.257636,70.76174400000001,1,1,1789165577.8174627,-0.8655730744463528,0.4990572662272919,0.003571711407495737,-0.041380438577327,175.6845865874127,-2.01259938523095,-59.856465702555745,-0.0037000980142279784,-0.01669756495382975,-0.006339908507869403,0.20750871742248536,0.650671238231659,-9.683870901718139
2026-09-11T18:26:17.863,3.9100604630002636,-160.19740295410156,-14417.76626586914,-57671.06506347656,-109.73522102355957,-0.05620185852050782,-0.43500253558158875,-0.2979767368733883,-0.6665549769000269,7.472041163158175,0.0,-0.024202346801757812,-198.265625,-8.712844848632812,0.0,0.0,164.40665602145535,1,1789165577.4382951,38.99141281833333,-76.93670249333333,-10.470000000000002,0,1,18.003049000000004,7.257636,70.76174400000001,1,1,1789165577.8574626,-0.8655597166901331,0.4991539182940852,0.0028474003844484314,-0.040541768659112805,175.80958252975597,-2.036948825689707,-59.868141266175,0.0002642428487519415,-0.024637416787002358,-0.0059095103143276,0.19397554019927976,0.652730634765625,-9.586196666107178
2026-09-11T18:26:17.897,3.943476808000014,-160.197265625,-14417.75390625,-57671.015625,-109.735126953125,-0.056107788085937506,-0.07054109126329422,-0.04832064751535654,-0.10809021008266931,7.471077083980798,0.0,-0.024202346801757812,-198.265625,-8.712844848632812,0.0,0.0,0.0,1,1789165577.4382951,38.99141281833333,-76.93670249333333,-10.470000000000002,0,1,18.003049000000004,7.257636,70.76174400000001,1,1,1789165577.8894627,-0.865612326688878,0.4991543343934192,0.0026726155303350456,-0.03940948447717483,175.93216262171728,-1.9894761453083742,-59.869036985301655,0.0012140510276872555,-0.027772202656509367,-0.004925493682053197,0.36510158552169797,0.5961462633323669,-9.640721641006468
2026-09-11T18:26:17.930,3.976892257000145,-160.197509765625,-14417.77587890625,-57671.103515625,-109.73529418945313,-0.056275024414062506,-0.018475167453289032,-0.012655489705502988,-0.02830952421596048,1.0673254101632357,0.0,-0.024202346801757812,-198.265625,-8.712844848632812,0.0,0.0,0.0,1,1789165577.4382951,38.99141281833333,-76.93670249333333,-10.470000000000002,0,1,18.003049000000004,7.257636,70.76174400000001,1,1,1789165577.9174626,-0.865662912897767,0.49910797548017466,0.002854270354141099,-0.03886905177876036,175.9754207342277,-1.940293372173401,-59.864014138131935,-0.0025909412745855824,-0.033077305450871335,-0.00890763690340346,0.35156840829849245,0.6210551547431945,-9.674750717067718
2026-09-11T18:26:17.964,4.010306936999768,-160.19723510742188,-14417.751159667969,-57671.004638671875,-109.73510604858399,-0.05608688354492188,0.0,0.0,0.0,0.3787404130653248,0.0,-0.024202346801757812,-198.265625,-8.712844848632812,0.0,0.0,0.0,1,1789165577.4382951,38.99141281833333,-76.93670249333333,-10.470000000000002,0,1,18.003049000000004,7.257636,70.76174400000001,1,1,1789165577.9574625,-0.865800777002038,0.49897552003706647,0.0032237084039243268,-0.03744399351742151,176.09573339165678,-1.8214585145094149,-59.849050365903125,-0.0023851669557754507,-0.028311334862450417,-0.008602204284304452,0.3375448985671997,0.5471130125236511,-9.64493850057602
2026-09-11T18:26:17.997,4.0437224180004705,-160.1982421875,-14417.841796875,-57671.3671875,-109.7357958984375,-0.0567767333984375,-0.026032961905002594,-0.017832578904926778,-0.03989034293335442,-0.5336621940157641,0.0,-0.024202346801757812,-198.265625,-8.712844848632812,0.0,0.0,0.0,1,1789165577.4382951,38.99141281833333,-76.93670249333333,-10.470000000000002,0,1,18.003049000000004,7.257636,70.76174400000001,1,1,1789165577.9894626,-0.8659204647111343,0.4988836683117412,0.003409174438290001,-0.03584985098885665,176.24346006079026,-1.7114308993004044,-59.83903229011822,-0.003079982530994393,-0.02852077437268974,-0.005276828460479656,0.23418280586242674,0.4367881982040406,-9.76252023601532
2026-09-11T18:26:18.030,4.077138122999713,-160.19911193847656,-14417.92007446289,-57671.68029785156,-109.73639167785646,-0.057372512817382815,-0.026032961905002594,-0.017832578904926778,-0.03989034293335442,0.0,0.0,-0.024202346801757812,-198.265625,-8.712844848632812,0.0,0.0,0.0,1,1789165577.4382951,38.99141281833333,-76.93670249333333,-10.470000000000002,0,1,18.003049000000004,7.257636,70.76174400000001,1,1,1789165578.0174625,-0.8660088648876211,0.4988377723442078,0.0033589227028953134,-0.03432550738151233,176.39779688776306,-1.6290242074637395,-59.83431200376241,-0.0006988298324985295,-0.02768336539758286,-0.0036290631136718095,0.2213360941505432,0.4162922993659973,-9.66670926393509
2026-09-11T18:26:18.064,4.110550244000478,-160.1999969482422,-14417.999725341797,-57671.99890136719,-109.7369979095459,-0.05797874450683594,-0.026032961905002594,-0.017832578904926778,-0.03989034293335442,0.0,0.0,-0.024202346801757812,-198.265625,-8.712844848632812,0.0,0.0,0.0,1,1789165577.4382951,38.99141281833333,-76.93670249333333,-10.470000000000002,0,1,18.003049000000004,7.257636,70.76174400000001,1,1,1789165578.0574627,-0.8661350894251741,0.49872814320447456,0.0034041206370450227,-0.032690335038833195,176.55758260839022,-1.5305708396166995,-59.821429689314996,-0.0016376424371462794,-0.018865962016507507,-0.0015369369393062066,0.34637088371276853,0.4590492940711975,-9.692108487854004
2026-09-11T18:26:18.099,4.144072445000347,-160.20086669921875,-14418.078002929688,-57672.31201171875,-109.73759368896485,-0.058574523925781254,-0.026032961905002594,-0.017832578904926778,-0.03989034293335442,0.0,0.0,-0.024202346801757812,-198.265625,-8.712844848632812,0.0,0.0,0.0,1,1789165577.4382951,38.99141281833333,-76.93670249333333,-10.470000000000002,0,1,18.003049000000004,7.257636,70.76174400000001,1,1,1789165578.0884626,-0.866238318467053,0.4985958575717732,0.003640992192872517,-0.03193884167423407,176.61854284741395,-1.4635629449145338,-59.80517366549681,-0.001117010721276371,-0.006259623362277663,-0.0018036232490109402,0.23771319992065432,0.49239190462112425,-9.6915200888443
2026-09-11T18:26:18.131,4.177485109000372,-160.20172119140625,-14418.154907226562,-57672.61962890625,-109.73817901611329,-0.059159851074218756,-0.026032961905002594,-0.017832578904926778,-0.03989034293335442,0.0,0.0,-0.024202346801757812,-198.265625,-8.712844848632812,0.0,0.0,0.0,1,1789165577.4382951,38.99141281833333,-76.93670249333333,-10.470000000000002,0,1,18.003049000000004,7.257636,70.76174400000001,1,1,1789165578.1174626,-0.8663542097055643,0.4984297942107218,0.003798782800389394,-0.03136387759414201,176.66642587098102,-1.4143867836345927,-59.78408802326138,-0.00029635690698863714,-0.006031857894892403,-0.0016489870772842426,0.19966339729309082,0.4719940722846985,-9.688185827789306
2026-09-11T18:26:18.164,4.210891693999656,-160.2025909423828,-14418.233184814453,-57672.93273925781,-109.73877479553224,-0.05975563049316407,-0.026032961905002594,-0.017832578904926778,-0.03989034293335442,0.0,0.0,-0.024202346801757812,-198.265625,-8.712844848632812,0.0,0.0,0.0,1,1789165577.4382951,38.99141281833333,-76.93670249333333,-10.470000000000002,0,1,18.003049000000004,7.257636,70.76174400000001,1,1,1789165578.1574626,-0.8664730065968971,0.49826268528878864,0.0035857895953801074,-0.030756583046828788,176.73869288685515,-1.400203883863456,-59.761986475708824,-0.0005824163713905077,0.004154930817297701,-0.0013999285930246519,0.2676234829139709,0.4660120156860352,-9.679261776142122
2026-09-11T18:26:18.198,4.244314278999809,-160.20347595214844,-14418.31283569336,-57673.25134277344,-109.73938102722168,-0.060361862182617194,-0.026032961905002594,-0.017832578904926778,-0.03989034293335442,0.0,0.0,-0.024202346801757812,-198.265625,-8.712844848632812,0.0,0.0,0.0,1,1789165577.4382951,38.99141281833333,-76.93670249333333,-10.470000000000002,0,1,18.003049000000004,7.257636,70.76174400000001,1,1,1789165578.1894627,-0.8665552583287299,0.49813466838737486,0.0033951047015751885,-0.030533746535493837,176.77152244377174,-1.4059356508171914,-59.744802672795636,-0.0017929767405737748,0.004393866391895724,-0.001525417766243044,0.24967731311798097,0.4975894292068481,-9.679555975646974
2026-09-11T18:26:18.231,4.27772537600049,-160.204345703125,-14418.39111328125,-57673.564453125,-109.73997680664063,-0.06095764160156251,-0.026032961905002594,-0.017832578904926778,-0.03989034293335442,0.0,0.0,-0.024202346801757812,-198.265625,-8.712844848632812,0.0,0.0,0.0,1,1789165577.4382951,38.99141281833333,-76.93670249333333,-10.470000000000002,0,1,18.003049000000004,7.257636,70.76174400000001,1,1,1789165578.2295423,-0.8666477306526467,0.49796253843708244,0.0034821434009435935,-0.030706610774388923,176.7490885877522,-1.406517756264214,-59.722118416847785,0.0004284783313646079,0.00822119890859409,0.003752981490563407,0.2545806381988525,0.542994219455719,-9.678379177627564
2026-09-11T18:26:18.264,4.31113976800043,-160.20521545410156,-14418.46939086914,-57673.87756347656,-109.74057258605959,-0.061553421020507815,-0.026032961905002594,-0.017832578904926778,-0.03989034293335442,0.0,0.0,-0.024202346801757812,-198.265625,-8.712844848632812,0.0,0.0,0.0,1,1789165577.4382951,38.99141281833333,-76.93670249333333,-10.470000000000002,0,1,18.003049000000004,7.257636,70.76174400000001,1,1,1789165578.2565422,-0.8667138788645528,0.49783359761477314,0.0035462570158168003,-0.030922246533382353,176.72377689356236,-1.4119731501015214,-59.7050557184763,-0.00017592918860102842,0.006512172505041242,0.002680302132287692,0.2627201578330994,0.5511337390899658,-9.677790778617858
2026-09-11T18:26:18.298,4.344556592999652,-160.20608520507812,-14418.547668457031,-57674.190673828125,-109.74116836547853,-0.06214920043945313,-0.026032961905002594,-0.017832578904926778,-0.03989034293335442,0.0,0.0,-0.024202346801757812,-198.265625,-8.712844848632812,0.0,0.0,0.0,1,1789165577.4382951,38.99141281833333,-76.93670249333333,-10.470000000000002,0,1,18.003049000000004,7.257636,70.76174400000001,1,1,1789165578.2895422,-0.8667868099743666,0.49768759510834387,0.0035546613965375777,-0.031225760392505318,176.69286839540155,-1.4279059162513552,-59.68553501311743,-0.0011466813185602744,0.00395229809114116,0.0014873695885495677,0.28370638917922975,0.5544680001449585,-9.669553192481995
2026-09-11T18:26:18.331,4.3779690020001,-160.2069549560547,-14418.625946044922,-57674.50378417969,-109.74176414489747,-0.06274497985839844,-0.026032961905002594,-0.017832578904926778,-0.03989034293335442,0.0,0.0,-0.024202346801757812,-198.265625,-8.712844848632812,0.0,0.0,0.0,1,1789165577.4382951,38.99141281833333,-76.93670249333333,-10.470000000000002,0,1,18.003049000000004,7.257636,70.76174400000001,1,1,1789165578.3295424,-0.8668064635318343,0.4976247804409443,0.00359359604244097,-0.03167362843155632,176.64599210261935,-1.4493516264467292,-59.676954996299806,0.0007751007208106817,0.0068898617551728155,0.0018299777207160545,0.2582090987586975,0.6239971497917176,-9.664453734397888
2026-09-11T18:26:18.365,4.411382434000188,-160.20782470703125,-14418.704223632812,-57674.81689453125,-109.74235992431642,-0.06334075927734376,-0.026032961905002594,-0.017832578904926778,-0.03989034293335442,0.0,0.0,-0.024202346801757812,-198.265625,-8.712844848632812,0.0,0.0,0.0,1,1789165577.4382951,38.99141281833333,-76.93670249333333,-10.470000000000002,0,1,18.003049000000004,7.257636,70.76174400000001,1,1,1789165578.3575423,-0.8668307970937305,0.4975350166764675,0.003973008567011031,-0.032364974795625515,176.55544636340355,-1.4507445862290158,-59.66545238580925,-0.0008183848862601411,-4.118977034706618e-05,-0.00044994588116413817,0.27478233753204345,0.6662638119888306,-9.703582268543244
2026-09-11T18:26:18.398,4.444803067000066,-160.18724060058594,-14416.851654052734,-57667.40661621094,-109.72825981140137,-0.04924064636230469,0.4685932993888855,0.32098641008138656,0.7180261499673098,10.138018301076215,0.0,-0.024202346801757812,-198.265625,-8.712844848632812,0.0,0.0,0.0,1,1789165577.4382951,38.99141281833333,-76.93670249333333,-10.470000000000002,0,1,18.003049000000004,7.257636,70.76174400000001,1,1,1789165578.3895423,-0.866837181062082,0.497454831421556,0.004359185674439319,-0.03336150062497994,176.43416390292091,-1.4688964356734973,-59.6550122501008,-0.0005811946409141118,-0.0019650662048204155,-0.0001265363707695889,0.25644390172958376,0.7159835283088685,-9.66935705947876
2026-09-11T18:26:18.432,4.478231539999797,-160.1772003173828,-14415.948028564453,-57663.79211425781,-109.72138221740724,-0.04236305236816407,0.2366323620080948,0.16209316797554493,0.36259209013856647,-4.753230639853682,0.0,-0.024202346801757812,-198.265625,-8.712844848632812,0.0,0.0,0.0,1,1789165577.4382951,38.99141281833333,-76.93670249333333,-10.470000000000002,0,1,18.003049000000004,7.257636,70.76174400000001,1,1,1789165578.4295423,-0.8667902954018244,0.4974428083450158,0.004937832356261459,-0.03465334088747167,176.27264317033968,-1.4850425476769977,-59.653894257839255,0.000859051057831609,-0.00412752914804139,0.003692942164294802,0.2892961797714233,0.7628593160820007,-9.667984128456116
2026-09-11T18:26:18.465,4.511643341000308,-160.17724609375,-14415.9521484375,-57663.80859375,-109.72141357421876,-0.0423944091796875,0.056218210607767105,0.03850947426632047,0.08614324057426724,-3.6988037163076948,0.0,-0.024202346801757812,-198.265625,-8.712844848632812,0.0,0.0,0.0,1,1789165577.4382951,38.99141281833333,-76.93670249333333,-10.470000000000002,0,1,18.003049000000004,7.257636,70.76174400000001,1,1,1789165578.4575422,-0.8667282655565857,0.49747771536792046,0.005268964742994392,-0.035640909193290285,176.15557187454115,-1.5086343847520693,-59.65859534617171,-0.00015009831567151235,-0.009334718971366472,0.0028797932657906437,0.28527545320510866,0.7987516556739807,-9.671906788520813
2026-09-11T18:26:18.499,4.545062181000503,-160.17770385742188,-14415.993347167969,-57663.973388671875,-109.72172714233399,-0.04270797729492188,0.0,0.0,0.0,-1.1523282754905877,0.0,-0.024202346801757812,-198.265625,-8.712844848632812,0.0,0.0,0.0,1,1789165577.4382951,38.99141281833333,-76.93670249333333,-10.470000000000002,0,1,18.003049000000004,7.257636,70.76174400000001,1,1,1789165578.4895422,-0.8666360949816646,0.49755894942963336,0.005659992120884049,-0.03667335826730979,176.03070188292193,-1.5290625498238462,-59.66958170755786,0.00017313666179783748,-0.013798922132117569,0.001395565269894666,0.2997892954444885,0.8068911753082276,-9.662394337863923
2026-09-11T18:26:18.532,4.578470813999957,-160.17770385742188,-14415.993347167969,-57663.973388671875,-109.72172714233399,-0.04270797729492188,0.0,0.0,0.0,0.0,0.0,-0.024202346801757812,-198.265625,-8.712844848632812,0.0,0.0,0.0,1,1789165577.4382951,38.99141281833333,-76.93670249333333,-10.470000000000002,0,1,18.003049000000004,7.257636,70.76174400000001,1,1,1789165578.5295422,-0.8665086419127815,0.4976995106354273,0.0060217833708524505,-0.037705553022833675,175.90762773535678,-1.552688850833338,-59.68834907523615,0.00030229102644541785,-0.013242685699506975,-0.0012672835698730827,0.2906691107940674,0.8139519634246827,-9.671514522514343
2026-09-11T18:26:18.566,4.611989623000227,-160.17770385742188,-14415.993347167969,-57663.973388671875,-109.72172714233399,-0.04270797729492188,0.0,0.0,0.0,0.0,0.0,-0.024202346801757812,-198.265625,-8.712844848632812,0.0,0.0,0.0,1,1789165577.4382951,38.99141281833333,-76.93670249333333,-10.470000000000002,0,1,18.003049000000004,7.257636,70.76174400000001,1,1,1789165578.5575423,-0.8663832232708305,0.4978810217365762,0.006363835370186714,-0.03813266616393711,175.84596030182183,-1.5439655500203944,-59.71304197168524,-0.00107110856194892,-0.01595946521316135,-0.0031618384729129273,0.2538941726875305,0.8215030840492248,-9.66974932548523
2026-09-11T18:26:18.599,4.645407216000422,-160.17770385742188,-14415.993347167969,-57663.973388671875,-109.72172714233399,-0.04270797729492188,0.0,0.0,0.0,0.0,0.0,-0.024202346801757812,-198.265625,-8.712844848632812,0.0,0.0,0.0,1,1789165577.4382951,38.99141281833333,-76.93670249333333,-10.470000000000002,0,1,18.003049000000004,7.257636,70.76174400000001,1,1,1789165578.5885422,-0.8662339906669166,0.49810709766216266,0.006531313730519458,-0.03854003908662241,175.79628560732706,-1.5516930399080158,-59.74309397036818,-0.0010189232173142895,-0.010592403230353585,0.00028187067419708427,0.270369344959259,0.8202282195281984,-9.676515914096832
2026-09-11T18:26:18.633,4.678824585000257,-160.17770385742188,-14415.993347167969,-57663.973388671875,-109.72172714233399,-0.04270797729492188,0.0,0.0,0.0,0.0,0.0,-0.024202346801757812,-198.265625,-8.712844848632812,0.0,0.0,0.0,1,1789165577.4382951,38.99141281833333,-76.93670249333333,-10.470000000000002,0,1,18.003049000000004,7.257636,70.76174400000001,1,1,1789165578.6295424,-0.866080337267382,0.4983410736230688,0.00677826354040039,-0.038924014212334546,175.7444216994168,-1.550259341290854,-59.774488990646105,-0.0012140510276872555,-0.001518087383384668,-3.1590459461097363e-05,0.2398706629562378,0.7961038601303101,-9.669651258983611
2026-09-11T18:26:18.666,4.71224681700005,-160.17770385742188,-14415.993347167969,-57663.973388671875,-109.72172714233399,-0.04270797729492188,0.0,0.0,0.0,0.0,0.0,-0.024202346801757812,-198.265625,-8.712844848632812,0.0,0.0,0.0,1,1789165578.6463675,38.99141249666667,-76.93670264,-10.498000000000001,0,1,18.003049000000004,7.252249,70.76174400000001,1,1,1789165578.6575422,-0.865994766088582,0.4984975103003665,0.006741092867394181,-0.03883110864334843,175.7560627063041,-1.5494048151811055,-59.79512244192874,-0.0012587314565383105,-0.0026120597585347132,-0.001447227015753698,0.25291350767135623,0.7557985279655457,-9.68004630815506
2026-09-11T18:26:18.699,4.745663354000499,-160.17770385742188,-14415.993347167969,-57663.973388671875,-109.72172714233399,-0.04270797729492188,0.0,0.0,0.0,0.0,0.0,-0.024202346801757812,-198.265625,-8.712844848632812,0.0,0.0,0.0,1,1789165578.6463675,38.99141249666667,-76.93670264,-10.498000000000001,0,1,18.003049000000004,7.252249,70.76174400000001,1,1,1789165578.6895423,-0.8659126532751138,0.4986605162396124,0.006410911596651462,-0.038624689697079204,175.795730437392,-1.5711690541677552,-59.815759374086184,2.0245819323134223e-05,0.00015917402778188285,-0.0011494738453634655,0.2774301330757141,0.712257001247406,-9.678379177627564
2026-09-11T18:26:18.733,4.779078643000503,-160.17770385742188,-14415.993347167969,-57663.973388671875,-109.72172714233399,-0.04270797729492188,0.0,0.0,0.0,0.0,0.0,-0.024202346801757812,-198.265625,-8.712844848632812,0.0,0.0,0.0,1,1789165578.6463675,38.99141249666667,-76.93670264,-10.498000000000001,0,1,18.003049000000004,7.252249,70.76174400000001,1,1,1789165578.7295423,-0.8658527651825878,0.49880098587167093,0.006032149468782705,-0.038212284567952344,175.85862143936114,-1.5858484960806605,-59.833478780108834,-0.0010796606752836923,0.00627306239751802,-0.00134809231424042,0.25762069974899293,0.69568376247406,-9.672004855022431
2026-09-11T18:26:18.766,4.81249674799983,-160.17770385742188,-14415.993347167969,-57663.973388671875,-109.72172714233399,-0.04270797729492188,0.0,0.0,0.0,0.0,0.0,-0.024202346801757812,-198.265625,-8.712844848632812,0.0,0.0,0.0,1,1789165578.6463675,38.99141249666667,-76.93670264,-10.498000000000001,0,1,18.003049000000004,7.252249,70.76174400000001,1,1,1789165578.7575424,-0.8658006566260166,0.4989200941431739,0.005738774674716507,-0.037881778091292964,175.90845706290185,-1.5966212193606732,-59.84860277319176,0.00019041542139258135,0.007115881893306081,-0.001448797812080493,0.2641911553573608,0.691368836402893,-9.681125039672851
2026-09-11T18:26:18.800,4.8459152679997715,-160.17770385742188,-14415.993347167969,-57663.973388671875,-109.72172714233399,-0.04270797729492188,0.0,0.0,0.0,0.0,0.0,-0.024202346801757812,-198.265625,-8.712844848632812,0.0,0.0,0.0,1,1789165578.6463675,38.99141249666667,-76.93670264,-10.498000000000001,0,1,18.003049000000004,7.252249,70.76174400000001,1,1,1789165578.7895422,-0.8657705022659918,0.4989906814263229,0.005443658095319709,-0.0376842651822653,175.94508199465483,-1.614939359162201,-59.85720509547497,0.001077566280181299,0.007105235384868916,-0.00040020399748229974,0.2656621528816223,0.6881326418495178,-9.673377786045075
2026-09-11T18:26:18.833,4.87932998100041,-160.17770385742188,-14415.993347167969,-57663.973388671875,-109.72172714233399,-0.04270797729492188,0.0,0.0,0.0,0.0,0.0,-0.024202346801757812,-198.265625,-8.712844848632812,0.0,0.0,0.0,1,1789165578.6463675,38.99141249666667,-76.93670264,-10.498000000000001,0,1,18.003049000000004,7.252249,70.76174400000001,1,1,1789165578.8285422,-0.8657253562687127,0.4990937670141835,0.005137763407433719,-0.03739816343313705,175.9911937958248,-1.6294019865036216,-59.870176548342485,-0.0009056513488598576,0.008277573043433507,-0.00383815355806073,0.27772433258056645,0.681366053237915,-9.680928906669616
2026-09-11T18:26:18.866,4.912751926000055,-160.17770385742188,-14415.993347167969,-57663.973388671875,-109.72172714233399,-0.04270797729492188,0.0,0.0,0.0,0.0,0.0,-0.024202346801757812,-198.265625,-8.712844848632812,0.0,0.0,0.0,1,1789165578.6463675,38.99141249666667,-76.93670264,-10.498000000000001,0,1,18.003049000000004,7.252249,70.76174400000001,1,1,1789165578.8575423,-0.8656856207580221,0.4991793723543382,0.004913150055342162,-0.03720512310503491,176.02337968690802,-1.6410364423188124,-59.881011088786195,-0.00014503686084072878,0.006788283592706746,-0.0013430308594096366,0.2704674114608765,0.6753839966392517,-9.68043857416153
2026-09-11T18:26:18.900,4.946168974000102,-160.17770385742188,-14415.993347167969,-57663.973388671875,-109.72172714233399,-0.04270797729492188,0.0,0.0,0.0,0.0,0.0,-0.024202346801757812,-198.265625,-8.712844848632812,0.0,0.0,0.0,1,1789165578.6463675,38.99141249666667,-76.93670264,-10.498000000000001,0,1,18.003049000000004,7.252249,70.76174400000001,1,1,1789165578.8895423,-0.8656704474092786,0.49921782520346497,0.004935953977930809,-0.037038842310062145,176.03867884599197,-1.6294297984276624,-59.886320984575896,0.0007485717161803679,0.010004052739506298,0.00012147491593880533,0.25006957912445066,0.6761685286521911,-9.661511739349365
2026-09-11T18:26:18.933,4.979592999000488,-160.17770385742188,-14415.993347167969,-57663.973388671875,-109.72172714233399,-0.04270797729492188,0.0,0.0,0.0,0.0,0.0,-0.024202346801757812,-198.265625,-8.712844848632812,0.0,0.0,0.0,1,1789165578.6463675,38.99141249666667,-76.93670264,-10.498000000000001,0,1,18.003049000000004,7.252249,70.76174400000001,1,1,1789165578.9295423,-0.8656579011956136,0.4992412130552598,0.004659213384501276,-0.037052678922794034,176.05316264846172,-1.657791267271449,-59.88859176999692,-0.0019568631573360423,0.012562530890004784,-0.001676214213615354,0.2935130393409729,0.6684212750244141,-9.673573919048309
2026-09-11T18:26:18.966,5.013006432000111,-160.17770385742188,-14415.993347167969,-57663.973388671875,-109.72172714233399,-0.04270797729492188,0.0,0.0,0.0,0.0,0.0,-0.024202346801757812,-198.265625,-8.712844848632812,0.0,0.0,0.0,1,1789165578.6463675,38.99141249666667,-76.93670264,-10.498000000000001,0,1,18.003049000000004,7.252249,70.76174400000001,1,1,1789165578.9575422,-0.8656613589729788,0.4992406589158519,0.0045076713089171,-0.03699806705346158,176.06725061877492,-1.6697004039499297,-59.88813373382031,0.0011362093430483087,0.013668546036993592,0.0003677408733952052,0.270369344959259,0.6624392184257507,-9.676810113601684
2026-09-11T18:26:19.000,5.046426904999862,-160.17770385742188,-14415.993347167969,-57663.973388671875,-109.72172714233399,-0.04270797729492188,0.0,0.0,0.0,0.0,0.0,-0.024202346801757812,-198.265625,-8.712844848632812,0.0,0.0,0.0,1,1789165578.6463675,38.99141249666667,-76.93670264,-10.498000000000001,0,1,18.003049000000004,7.252249,70.76174400000001,1,1,1789165578.9895422,-0.8656498038583886,0.4992663038015147,0.004264185589512705,-0.03695120687561805,176.08587324637202,-1.6912962848140176,-59.890876730558,0.001091703447122453,0.013482144872880597,0.0009342747485925646,0.29733763290405274,0.6672444770050049,-9.678281111125946
2026-09-11T18:26:19.033,5.07987659399987,-160.17770385742188,-14415.993347167969,-57663.973388671875,-109.72172714233399,-0.04270797729492188,0.0,0.0,0.0,0.0,0.0,-0.024202346801757812,-198.265625,-8.712844848632812,0.0,0.0,0.0,1,1789165578.6463675,38.99141249666667,-76.93670264,-10.498000000000001,0,1,18.003049000000004,7.252249,70.76174400000001,1,1,1789165579.0295422,-0.8656419827478972,0.49926404350157433,0.004075107652026068,-0.037185562633528665,176.0733775965269,-1.7234682871563776,-59.88981254065086,-0.0015323990832510214,0.01269622311070755,-0.0009311331559389748,0.28566771921157835,0.6909765703964232,-9.666905396938324
2026-09-11T18:26:19.067,5.113305738000236,-160.17770385742188,-14415.993347167969,-57663.973388671875,-109.72172714233399,-0.04270797729492188,0.0,0.0,0.0,0.0,0.0,-0.024202346801757812,-198.265625,-8.712844848632812,0.0,0.0,0.0,1,1789165578.6463675,38.99141249666667,-76.93670264,-10.498000000000001,0,1,18.003049000000004,7.252249,70.76174400000001,1,1,1789165579.0575423,-0.865631432160586,0.49927062051374554,0.003986638021320126,-0.03735207979107824,176.0618932002429,-1.7418121007166871,-59.89026658356709,0.0011000810275320259,0.012697270308258748,0.0005515240436302082,0.30106415996551517,0.6972528264999389,-9.674848783569336
2026-09-11T18:26:19.100,5.146724866999648,-160.17770385742188,-14415.993347167969,-57663.973388671875,-109.72172714233399,-0.04270797729492188,0.0,0.0,0.0,0.0,0.0,-0.024202346801757812,-198.265625,-8.712844848632812,0.0,0.0,0.0,1,1789165578.6463675,38.99141249666667,-76.93670264,-10.498000000000001,0,1,18.003049000000004,7.252249,70.76174400000001,1,1,1789165579.0895424,-0.8656164533405176,0.4992763545275191,0.0038943051046294356,-0.03763126231800489,176.03942761722715,-1.7669868351516442,-59.89048179839998,0.0012318533860575978,0.00867358825071102,-0.0008168140899333463,0.3102824111175537,0.6980373585128784,-9.669062859973907
2026-09-11T18:26:19.134,5.180132124000011,-160.21072387695312,-14418.965148925781,-57675.860595703125,-109.7443458557129,-0.06532669067382812,-0.9111539721488953,-0.6241404709219933,-1.3961624707453306,-18.682781136901376,0.0,-0.024202346801757812,-198.265625,-8.712844848632812,0.0,0.0,0.0,1,1789165578.6463675,38.99141249666667,-76.93670264,-10.498000000000001,0,1,18.003049000000004,7.252249,70.76174400000001,1,1,1789165579.1295424,-0.8656172586109916,0.49926322933575623,0.003704786116006761,-0.037805607889018884,176.03289837476947,-1.7957171568378871,-59.888035792574485,5.3581608036225916e-05,-0.002952398962673608,-0.0029647908003627675,0.3258749848747254,0.6887210408592224,-9.659648475818635
2026-09-11T18:26:19.167,5.2135571400003755,-160.21841430664062,-14419.657287597656,-57678.629150390625,-109.74961380004883,-0.07059463500976564,-0.25357764959335327,-0.173700689971447,-0.3885573773520195,13.476127608903152,0.0,-0.024202346801757812,-198.265625,-8.712844848632812,0.0,0.0,0.0,1,1789165578.6463675,38.99141249666667,-76.93670264,-10.498000000000001,0,1,18.003049000000004,7.252249,70.76174400000001,1,1,1789165579.1575422,-0.8656414633689629,0.4992167540355814,0.003837193649185538,-0.03785188676297545,176.02063582089957,-1.7850135534400096,-59.88221186174495,0.0026502824691533896,-0.003498337952697434,-0.002736850800052308,0.3080268815803528,0.6917611024093628,-9.689852958316804
2026-09-11T18:26:19.200,5.246979821000423,-160.21844482421875,-14419.660034179688,-57678.64013671875,-109.74963470458985,-0.07061553955078126,-0.043153222650289536,-0.029559957515448335,-0.06612374175789258,4.3126621845744415,0.0,-0.024202346801757812,-198.265625,-8.712844848632812,0.0,0.0,0.0,1,1789165578.6463675,38.99141249666667,-76.93670264,-10.498000000000001,0,1,18.003049000000004,7.252249,70.76174400000001,1,1,1789165579.1895423,-0.8656265081032389,0.49924600920867895,0.003966330750896582,-0.037794695111556365,176.01900263317447,-1.7690578915311905,-59.886504001385546,0.0017402677971635459,-0.0054307665005055555,-0.0023017402175301216,0.29998542844772336,0.7041174816131592,-9.676515914096832
2026-09-11T18:26:19.234,5.2803868860000875,-160.21871948242188,-14419.684753417969,-57678.739013671875,-109.749822845459,-0.07080368041992188,-0.016850167885422707,-0.011542365001514555,-0.025819535168026445,0.5393347938262342,0.0,-0.024202346801757812,-198.265625,-8.712844848632812,0.0,0.0,0.0,1,1789165578.6463675,38.99141249666667,-76.93670264,-10.498000000000001,0,1,18.003049000000004,7.252249,70.76174400000001,1,1,1789165579.2295423,-0.8656302203073215,0.4992376276402583,0.004222587294011394,-0.03779262620365724,176.00454832210826,-1.74347043502033,-59.88612801411834,0.00023300145514124301,-0.009850638298255996,-0.0036501815976209408,0.29606276838302614,0.7001948215484619,-9.679555975646974
2026-09-11T18:26:19.267,5.3138058550002825,-160.2183074951172,-14419.647674560547,-57678.59069824219,-109.74954063415528,-0.07052146911621095,0.0,0.0,0.0,0.34538363530745764,0.0,-0.024202346801757812,-198.265625,-8.712844848632812,0.0,0.0,0.0,1,1789165578.6463675,38.99141249666667,-76.93670264,-10.498000000000001,0,1,18.003049000000004,7.252249,70.76174400000001,1,1,1789165579.2575424,-0.865642569981859,0.4992160006911602,0.004480923973783612,-0.03776568560832851,175.99242168064796,-1.716191412589758,-59.88404200273841,0.0018413223608540175,-0.009164723902222225,-0.0015868533559132445,0.288315514755249,0.6995083560371399,-9.667984128456116
2026-09-11T18:26:19.301,5.34723435900014,-160.2183074951172,-14419.647674560547,-57678.59069824219,-109.74954063415528,-0.07052146911621095,0.0,0.0,0.0,0.0,0.0,-0.024202346801757812,-198.265625,-8.712844848632812,0.0,0.0,0.0,1,1789165578.6463675,38.99141249666667,-76.93670264,-10.498000000000001,0,1,18.003049000000004,7.252249,70.76174400000001,1,1,1789165579.2895422,-0.8656424478983593,0.49921816620734527,0.0047177976773879185,-0.03771097068740989,175.98432988847068,-1.6895622920246796,-59.885076532832585,0.0011836822987025544,-0.004655665779694874,-0.001042485162216213,0.28772711574554444,0.7084324076843261,-9.678183044624328
2026-09-11T18:26:19.334,5.380644879999636,-160.2183074951172,-14419.647674560547,-57678.59069824219,-109.74954063415528,-0.07052146911621095,0.0,0.0,0.0,0.0,0.0,-0.024202346801757812,-198.265625,-8.712844848632812,0.0,0.0,0.0,1,1789165578.6463675,38.99141249666667,-76.93670264,-10.498000000000001,0,1,18.003049000000004,7.252249,70.76174400000001,1,1,1789165579.3295424,-0.8656508841825443,0.49918291946583,0.005002784748209824,-0.03794643293266185,175.94456887041625,-1.6745982570879197,-59.881034719172135,-9.093165402890458e-05,-0.0035299284121585316,-0.0037165041091967253,0.29204204181671145,0.7350084296226502,-9.677496579113006
2026-09-11T18:26:19.367,5.414064712999789,-160.2183074951172,-14419.647674560547,-57678.59069824219,-109.74954063415528,-0.07052146911621095,0.0,0.0,0.0,0.0,0.0,-0.024202346801757812,-198.265625,-8.712844848632812,0.0,0.0,0.0,1,1789165578.6463675,38.99141249666667,-76.93670264,-10.498000000000001,0,1,18.003049000000004,7.252249,70.76174400000001,1,1,1789165579.3575423,-0.8656230552674036,0.4992161814506222,0.005031195127656716,-0.038139447334386255,175.92382135119664,-1.6829859061939618,-59.885331120973454,0.0010196213490150873,0.0009169959889978208,-0.002344849850054382,0.2977298989105225,0.7379504246711731,-9.66592473192215
2026-09-11T18:26:19.402,5.447482178000428,-160.2183074951172,-14419.647674560547,-57678.59069824219,-109.74954063415528,-0.07052146911621095,0.0,0.0,0.0,0.0,0.0,-0.024202346801757812,-198.265625,-8.712844848632812,0.0,0.0,0.0,1,1789165578.6463675,38.99141249666667,-76.93670264,-10.498000000000001,0,1,18.003049000000004,7.252249,70.76174400000001,1,1,1789165579.3975422,-0.8655777613385367,0.49927112282544855,0.005166765239160728,-0.038429019318046154,175.88739353107624,-1.6863737542019177,-59.89272662452698,-0.0012709487613022706,0.0027345818720247157,-0.0025560346895456957,0.26487762086868283,0.7554062619590759,-9.679555975646974
2026-09-11T18:26:19.434,5.480926778000139,-160.2183074951172,-14419.647674560547,-57678.59069824219,-109.74954063415528,-0.07052146911621095,0.0,0.0,0.0,0.0,0.0,-0.024202346801757812,-198.265625,-8.712844848632812,0.0,0.0,0.0,1,1789165578.6463675,38.99141249666667,-76.93670264,-10.498000000000001,0,1,18.003049000000004,7.252249,70.76174400000001,1,1,1789165579.4295423,-0.8655325713932766,0.4993254739294921,0.005227642664398636,-0.038731262496907,175.8539739337051,-1.6979007867963107,-59.899805299935856,0.0,0.007386407927365201,-0.0005253441048502931,0.2881193817520142,0.7602115205383302,-9.669258992977143
2026-09-11T18:26:19.467,5.51434405100008,-160.2183074951172,-14419.647674560547,-57678.59069824219,-109.74954063415528,-0.07052146911621095,0.0,0.0,0.0,0.0,0.0,-0.024202346801757812,-198.265625,-8.712844848632812,0.0,0.0,0.0,1,1789165578.6463675,38.99141249666667,-76.93670264,-10.498000000000001,0,1,18.003049000000004,7.252249,70.76174400000001,1,1,1789165579.4575422,-0.8654739292036824,0.4993989165655181,0.005069883764881558,-0.03911388858879378,175.825099488033,-1.735821301378893,-59.908650481813126,0.0003977605365295077,0.010989989233957895,-0.0027970646592461127,0.3051829530334472,0.7764905598068237,-9.664159534893036
2026-09-11T18:26:19.501,5.547770156000297,-160.2183074951172,-14419.647674560547,-57678.59069824219,-109.74954063415528,-0.07052146911621095,0.0,0.0,0.0,0.0,0.0,-0.024202346801757812,-198.265625,-8.712844848632812,0.0,0.0,0.0,1,1789165578.6463675,38.99141249666667,-76.93670264,-10.498000000000001,0,1,18.003049000000004,7.252249,70.76174400000001,1,1,1789165579.4975424,-0.8653906481316624,0.4994940336453546,0.005065559957640062,-0.039737596571384426,175.7635373145023,-1.7724416220218,-59.920583546878966,-0.0008763298174263529,0.007026171969753572,-0.0028703684878298745,0.30694815006256104,0.8109119018745422,-9.677594645614624
2026-09-11T18:26:19.535,5.581179300000258,-160.2183074951172,-14419.647674560547,-57678.59069824219,-109.74954063415528,-0.07052146911621095,0.0,0.0,0.0,0.0,0.0,-0.024202346801757812,-198.265625,-8.712844848632812,0.0,0.0,0.0,1,1789165578.6463675,38.99141249666667,-76.93670264,-10.498000000000001,0,1,18.003049000000004,7.252249,70.76174400000001,1,1,1789165579.5295422,-0.8653257037104345,0.4995549537678609,0.005152363709725544,-0.04036988744391409,175.69584574027368,-1.8003582712831505,-59.928260116369,0.00025638886711796703,0.012250640552673399,-0.0041584214758016895,0.29125750980377196,0.8379782563209534,-9.664846000404358
2026-09-11T18:26:19.568,5.614591517000008,-160.2183074951172,-14419.647674560547,-57678.59069824219,-109.74954063415528,-0.07052146911621095,0.0,0.0,0.0,0.0,0.0,-0.024202346801757812,-198.265625,-8.712844848632812,0.0,0.0,0.0,1,1789165578.6463675,38.99141249666667,-76.93670264,-10.498000000000001,0,1,18.003049000000004,7.252249,70.76174400000001,1,1,1789165579.5575423,-0.8652700505455551,0.4995963020594125,0.005174914675244133,-0.04104259806051209,175.62776980568395,-1.8368771756904905,-59.933092742385355,-0.0017584192213842872,0.016219170205858103,-0.00427500946983491,0.35509880235672,0.844940977935791,-9.674554584064484
2026-09-11T18:26:19.604,5.648020694000479,-160.21954345703125,-14419.758911132812,-57679.03564453125,-109.75038726806642,-0.07136810302734375,-0.02630305476486683,-0.01801759251393378,-0.040304206589866144,-0.5389780464436761,0.0,-0.024202346801757812,-198.265625,-8.712844848632812,0.0,0.0,0.0,1,1789165578.6463675,38.99141249666667,-76.93670264,-10.498000000000001,0,1,18.003049000000004,7.252249,70.76174400000001,1,1,1789165579.5975423,-0.8651959019547153,0.4996563285875454,0.005242903974193689,-0.04185829070923565,175.54292223925637,-1.877187512272067,-59.94037602020644,-0.0008695230333435751,0.015456810388586982,-0.0052941072200744,0.2859619187164307,0.7842378134346009,-9.663767268886566
2026-09-11T18:26:19.636,5.681440559000293,-160.2204132080078,-14419.837188720703,-57679.34875488281,-109.75098304748536,-0.07196388244628907,-0.02630305476486683,-0.01801759251393378,-0.040304206589866144,0.0,0.0,-0.024202346801757812,-198.265625,-8.712844848632812,0.0,0.0,0.0,1,1789165578.6463675,38.99141249666667,-76.93670264,-10.498000000000001,0,1,18.003049000000004,7.252249,70.76174400000001,1,1,1789165579.6295424,-0.865195392210083,0.49967516493697245,0.005196742655833953,-0.04164921018961952,175.56638721028014,-1.8698792354304048,-59.94294406853466,0.0005267403682518887,0.01595004043520058,-0.005618563928020145,0.2157463035583496,0.7645264466094971,-9.621696739692688
2026-09-11T18:26:19.669,5.714855047000128,-160.22129821777344,-14419.91683959961,-57679.66735839844,-109.75158927917481,-0.07257011413574219,-0.02630305476486683,-0.01801759251393378,-0.040304206589866144,0.0,0.0,-0.024202346801757812,-198.265625,-8.712844848632812,0.0,0.0,0.0,1,1789165578.6463675,38.99141249666667,-76.93670264,-10.498000000000001,0,1,18.003049000000004,7.252249,70.76174400000001,1,1,1789165579.6575422,-0.86516947746078,0.49973154974457534,0.004784549070259281,-0.04156033626332038,175.59891533017944,-1.9059593244869948,-59.94917542126329,0.001487544121474767,0.01030774002935331,-0.003552792225359657,0.35549106836318967,0.7506990698814393,-9.733590618038178
2026-09-11T18:26:19.702,5.748277536000387,-160.22216796875,-14419.9951171875,-57679.98046875,-109.75218505859375,-0.0731658935546875,-0.02630305476486683,-0.01801759251393378,-0.040304206589866144,0.0,0.0,-0.024202346801757812,-198.265625,-8.712844848632812,0.0,0.0,0.0,1,1789165579.6884131,38.991412235,-76.93670277333334,-10.510000000000002,0,1,17.994564,7.252249,70.778569,1,1,1789165579.6975422,-0.8651494181664812,0.4997784565061744,0.004348514837370669,-0.041461657916853766,175.6337642779233,-1.9437916345232438,-59.95412255611697,0.0019710003242771963,0.005022184922613683,-0.005902179931469224,0.3682397135734558,0.7739408307647705,-9.646899830608367
2026-09-11T18:26:19.735,5.781693496999651,-160.22305297851562,-14420.074768066406,-57680.299072265625,-109.75279129028321,-0.07377212524414063,-0.02630305476486683,-0.01801759251393378,-0.040304206589866144,0.0,0.0,-0.024202346801757812,-198.265625,-8.712844848632812,0.0,0.0,0.0,1,1789165579.6884131,38.991412235,-76.93670277333334,-10.510000000000002,0,1,17.994564,7.252249,70.778569,1,1,1789165579.7295423,-0.8651540689139988,0.49977645646868823,0.0041088006072720635,-0.04141314234301559,175.65229136904605,-1.964778640642501,-59.95317499300158,0.0030812042614707896,0.004182681552404411,-0.006506936517285259,0.342154024143219,0.7553081954574585,-9.640819707508088
2026-09-11T18:26:19.769,5.8151136500000575,-160.2584686279297,-14423.262176513672,-57693.04870605469,-109.77705101013184,-0.09803184509277345,-0.8012437224388123,-0.5488519498705864,-1.2277468456303369,-15.883660297730977,0.0,-0.02447509765625,-200.5,-8.81103515625,-0.0457763709127903,-16.479493528604507,-493.1004812696108,1,1789165579.6884131,38.991412235,-76.93670277333334,-10.510000000000002,0,1,17.994564,7.252249,70.778569,1,1,1789165579.7575424,-0.865168953926311,0.49974759730541995,0.003913630519156228,-0.041469309684054406,175.65780310755164,-1.9872139156964326,-59.94869885223036,7.923794804054255e-05,0.004560894401311582,-0.00800565074597279,0.3834400213241577,0.7633496485900879,-9.673279719543457
2026-09-11T18:26:19.802,5.848549641999853,-160.25965881347656,-14423.36929321289,-57693.47717285156,-109.77786628723145,-0.09884712219238281,-0.1500316858291626,-0.10277170479297638,-0.22989375624771,13.341319290910942,0.0,-0.025911331176757812,-212.265625,-9.328079223632812,0.0,0.0,492.8668941153445,1,1789165579.6884131,38.991412235,-76.93670277333334,-10.510000000000002,0,1,17.994564,7.252249,70.778569,1,1,1789165579.7975423,-0.8652165442785393,0.4996319315385845,0.004117378728232866,-0.04184867603800559,175.6081742927742,-1.9881626620638462,-59.93358299557666,0.001657713723544214,0.0015653858061137143,-0.010085210549724034,0.3002796279525757,0.832682665233612,-9.665630532417298
2026-09-11T18:26:19.835,5.881960323000385,-160.2596893310547,-14423.372039794922,-57693.48815917969,-109.77788719177246,-0.09886802673339845,-0.019789276644587517,-0.01355565450154245,-0.030323135517050903,2.670285298584977,0.0,-0.027017593383789062,-221.328125,-9.726333618164062,-0.0457763709127903,-16.479493528604507,-493.24027631588626,1,1789165579.6884131,38.991412235,-76.93670277333334,-10.510000000000002,0,1,17.994564,7.252249,70.778569,1,1,1789165579.8295424,-0.8652401094702502,0.4995146015892171,0.004330767962666301,-0.042731255679289426,175.50795511064067,-2.0169681026036743,-59.91770575168308,0.002060710247829705,0.008260294283838763,-0.011789350031371297,0.3669648490524292,0.8870115071296693,-9.596493648777008
2026-09-11T18:26:19.868,5.915372827999818,-160.26034545898438,-14423.431091308594,-57693.724365234375,-109.7783366394043,-0.09931747436523439,-0.026048483327031136,-0.01784321107901633,-0.03991412642943878,-0.12832191353347122,0.0,-0.027376174926757812,-224.265625,-9.855422973632812,0.0,0.0,493.2133501778541,1,1789165579.6884131,38.991412235,-76.93670277333334,-10.510000000000002,0,1,17.994564,7.252249,70.778569,1,1,1789165579.8575423,-0.8652735595655681,0.49937813263582076,0.004962375813809768,-0.043572039063767457,175.38793951141514,-2.001761494529845,-59.90072767870985,-0.0028153906163920534,0.01579889492197787,-0.012442277704542376,0.2026053923416138,0.9418306815338134,-9.742318536682129
2026-09-11T18:26:19.904,5.948795764999886,-160.26121520996094,-14423.509368896484,-57694.03747558594,-109.77893241882325,-0.0999132537841797,-0.026048483327031136,-0.01784321107901633,-0.03991412642943878,0.0,0.0,-0.027719497680664062,-227.078125,-9.979019165039062,-0.015258789993822575,-5.493164397776127,-164.35313263358248,1,1789165579.6884131,38.991412235,-76.93670277333334,-10.510000000000002,0,1,17.994564,7.252249,70.778569,1,1,1789165579.8975422,-0.8652615292883354,0.49939264908551795,0.004667307861119526,-0.04367704443170669,175.39439018893674,-2.037128317845996,-59.90154978741461,0.0037472219040318258,0.012073489633595974,-0.007670023930814281,0.5258325816726684,0.8202282195281984,-9.776249546241761
2026-09-11T18:26:19.935,5.982227020999744,-160.2620849609375,-14423.587646484375,-57694.3505859375,-109.77952819824219,-0.10050903320312501,-0.026048483327031136,-0.01784321107901633,-0.03991412642943878,0.0,0.0,-0.027788162231445312,-227.640625,-10.003738403320312,-0.015258789993822575,-5.493164397776127,0.0,1,1789165579.6884131,38.991412235,-76.93670277333334,-10.510000000000002,0,1,17.994564,7.252249,70.778569,1,1,1789165579.9295423,-0.8652511167430451,0.49937988855980525,0.004969608434974713,-0.04399471410195114,175.34549672017076,-2.025267880524931,-59.90049058627188,0.0033602824088646826,0.014638425502326842,-0.009166294698549021,0.2681138154220581,0.9235903122329712,-9.679065643138886
2026-09-11T18:26:19.969,6.015623750000486,-160.28819274902344,-14425.93734741211,-57703.74938964844,-109.79741203308106,-0.1183928680419922,-0.8926512598991394,-0.6114661130309106,-1.3678107396002817,-17.77488154419859,0.0,-0.027864456176757812,-228.265625,-10.031204223632812,0.0,0.0,164.48210834222863,1,1789165579.6884131,38.991412235,-76.93670277333334,-10.510000000000002,0,1,17.994564,7.252249,70.778569,1,1,1789165579.9575422,-0.8652087984529993,0.49937119717676576,0.0054782952051601694,-0.04485678088545817,175.2306796716607,-2.0241440650838114,-59.90006752792098,0.0008768534162019512,0.020515298159642148,-0.012035441455902497,0.2695848129463196,0.9839012107276917,-9.575899683437347
2026-09-11T18:26:20.003,6.049044254999899,-160.3017578125,-14427.158203125,-57708.6328125,-109.8067041015625,-0.12768493652343751,-0.3514086604118347,-0.2407149323821068,-0.5384639682849556,11.093524189874481,0.0,-0.027864456176757812,-228.265625,-10.031204223632812,0.0,0.0,0.0,1,1789165579.6884131,38.991412235,-76.93670277333334,-10.510000000000002,0,1,17.994564,7.252249,70.778569,1,1,1789165579.9975424,-0.8651787389865816,0.4994058562630363,0.005057927008130833,-0.045099420286216815,175.23064708545363,-2.0799387862756067,-59.90290967179993,0.0045308747381772796,0.02325651228282444,-0.008482125631767241,0.5226944536209106,0.7816880843925477,-9.648959227142335
2026-09-11T18:26:20.036,6.082467510999777,-160.30191040039062,-14427.171936035156,-57708.687744140625,-109.80680862426759,-0.12778945922851564,-0.0936741977930069,-0.06416682548820973,-0.14353710068049763,5.28219353897001,0.0,-0.027864456176757812,-228.265625,-10.031204223632812,0.0,0.0,0.0,1,1789165579.6884131,38.991412235,-76.93670277333334,-10.510000000000002,0,1,17.994564,7.252249,70.778569,1,1,1789165580.0295422,-0.8651785605464736,0.49950638752737975,0.004266355160558517,-0.04405933957429315,175.3795547810055,-2.0994161281244863,-59.91482847440805,0.003258006114697815,0.010103536506869975,-0.006732956655418525,0.361473124961853,0.6977431590080262,-9.59639558227539
2026-09-11T18:26:20.069,6.115878544000225,-160.3055419921875,-14427.498779296875,-57709.9951171875,-109.80929626464845,-0.130277099609375,-0.0936741977930069,-0.06416682548820973,-0.14353710068049763,0.0,0.0,-0.027864456176757812,-228.265625,-10.031204223632812,0.0,0.0,0.0,1,1789165579.6884131,38.991412235,-76.93670277333334,-10.510000000000002,0,1,17.994564,7.252249,70.778569,1,1,1789165580.0575423,-0.8651579172509499,0.49958178806570874,0.003737612451931363,-0.043655990473552744,175.45006528497856,-2.1291557233234975,-59.92361445125153,0.00021572269554649912,0.0025085617338914496,-0.010047511437880956,0.35696206588745116,0.7840416804313659,-9.61738181362152
2026-09-11T18:26:20.103,6.149298153000018,-160.30868530273438,-14427.781677246094,-57711.126708984375,-109.81144943237305,-0.13243026733398439,-0.0936741977930069,-0.06416682548820973,-0.14353710068049763,0.0,0.0,-0.027864456176757812,-228.265625,-10.031204223632812,0.0,0.0,0.0,1,1789165579.6884131,38.991412235,-76.93670277333334,-10.510000000000002,0,1,17.994564,7.252249,70.778569,1,1,1789165580.0975423,-0.8652270987272065,0.4995051743549913,0.00354901397664819,-0.04317467915901935,175.50851712540734,-2.119885746598555,-59.91348804260007,0.0013941690064930706,0.016672083146750633,-0.011651294487538546,0.1255251220703125,0.6260565463256835,-9.698090544452667
2026-09-11T18:26:20.136,6.182708833999641,-160.3418426513672,-14430.765838623047,-57723.06335449219,-109.83416221618653,-0.15514305114746094,-0.7184654474258423,-0.492148831486702,-1.1009055822447689,-12.809736084197848,0.0,-0.027864456176757812,-228.265625,-10.031204223632812,0.0,0.0,0.0,1,1789165579.6884131,38.991412235,-76.93670277333334,-10.510000000000002,0,1,17.994564,7.252249,70.778569,1,1,1789165580.1295424,-0.8653494502386936,0.4994174825157239,0.0026101902434788465,-0.04178150351699279,175.70048500085554,-2.132776322014031,-59.90083466343759,-0.00025638886711796703,0.013652663540800445,-0.010244559110431116,0.34342888866424565,0.5340701678085328,-9.632484054870606
2026-09-11T18:26:20.169,6.216120570000385,-160.34332275390625,-14430.899047851562,-57723.59619140625,-109.83517608642579,-0.15615692138671877,-0.13979828357696533,-0.09576182425022126,-0.21421310005865504,11.863705831617201,0.0,-0.027864456176757812,-228.265625,-10.031204223632812,0.0,0.0,0.0,1,1789165579.6884131,38.991412235,-76.93670277333334,-10.510000000000002,0,1,17.994564,7.252249,70.778569,1,1,1789165580.1565423,-0.865447289849657,0.49936443428717975,0.0023703948260205263,-0.04037984013462313,175.85343297744882,-2.076028706232645,-59.89486251183574,-0.0007642796794483169,0.005753477879199307,-0.0031286772171250352,0.13317430919647216,0.4828794539642334,-9.66935705947876
