timestamp,time_s,drive_pos_turns,drive_encoder_count,drive_wheel_angle_deg,drive_distance_m,drive_distance_since_start_m,drive_velocity_turns_s,drive_velocity_mps,drive_velocity_mph,drive_acceleration_mps2,drive_iq_A,steer_pos_turns,steer_encoder_count,steer_angle_deg,steer_velocity_turns_s,steer_velocity_deg_s,steer_acceleration_deg_s2,gps_received,gps_ros_stamp_s,gps_latitude_deg,gps_longitude_deg,gps_altitude_m,gps_status,gps_service,gps_cov_x_m2,gps_cov_y_m2,gps_cov_z_m2,gps_covariance_type,imu_received,imu_ros_stamp_s,imu_qx,imu_qy,imu_qz,imu_qw,imu_roll_deg,imu_pitch_deg,imu_yaw_deg,imu_gyro_x_rad_s,imu_gyro_y_rad_s,imu_gyro_z_rad_s,imu_accel_x_mps2,imu_accel_y_mps2,imu_accel_z_mps2
2026-09-11T17:39:30.851,7.040000014058023e-06,-281.0438232421875,-25293.944091796875,-101175.7763671875,-192.51501892089846,-0.00267578125,-0.8939785957336426,-0.6123753380775452,-1.3698446181047435,0.0,0.0,-0.006557464599609375,-53.71875,-2.360687255859375,0.030517585575580597,10.986330807209015,-3708.550314398958,0,nan,nan,nan,nan,-999,-999,nan,nan,nan,-999,1,1789162770.843231,-0.9932113552551328,0.1104796285876126,-0.007892487696490248,-0.035541019925803,176.0506470749639,-1.3483476662790435,-12.647889016158693,0.010613347181377518,-0.054391789875001685,0.008723504667318058,0.5928120022773742,1.0623544120216368,-9.945806527538299
2026-09-11T17:39:30.886,0.033424192000040875,-281.0749206542969,-25296.74285888672,-101186.97143554688,-192.53632064819337,-0.023977508544921877,-0.9460755586624146,-0.6480617576837541,-1.4496728652553539,-1.0679072712773443,0.0,-0.0054149627685546875,-44.359375,-1.9493865966796875,0.015258789993822575,5.493164397776127,-164.38164477417106,0,nan,nan,nan,nan,-999,-999,nan,nan,nan,-999,1,1789162770.8832312,-0.9930695389066587,0.1112030601745797,-0.00624509780716497,-0.03752024862529292,175.80522602264753,-1.188879099600493,-12.735086918773897,-0.009779952463550226,-0.06033620677436917,0.00851039996564955,0.6835235162734985,1.270451528453827,-9.08939176891327
2026-09-11T17:39:30.918,0.06682918400002791,-281.1126708984375,-25300.140380859375,-101200.5615234375,-192.56217956542972,-0.049836425781250006,-1.103639841079712,-0.7559932911396027,-1.691108829499825,-3.2310001288397405,0.0,-0.0052852630615234375,-43.296875,-1.9026947021484375,-0.015258791856467724,-5.493165068328381,-328.8828647559255,0,nan,nan,nan,nan,-999,-999,nan,nan,nan,-999,1,1789162770.911231,-0.9929518371567047,0.11238278092685225,-0.005951136920208172,-0.03716643119306765,175.8432073549653,-1.1558556499886716,-12.87262375743395,0.015280706667060754,-0.044975913093417474,0.008929802584903787,-0.3770656987190246,1.267999865913391,-9.536967282295228
2026-09-11T17:39:30.952,0.10023651200003769,-281.146728515625,-25303.20556640625,-101212.822265625,-192.58550903320315,-0.0731658935546875,-1.0520930290222168,-0.7206837248802186,-1.6121235792775093,1.056940748430217,0.0,-0.00478363037109375,-39.1875,-1.72210693359375,0.015258789993822575,5.493164397776127,328.8598676943361,0,nan,nan,nan,nan,-999,-999,nan,nan,nan,-999,1,1789162770.943231,-0.9928959957430517,0.11339343929140387,-0.003590957475009473,-0.03586885260910035,175.96177965552366,-0.8746815341648388,-12.999608003144921,0.006114586501436934,-0.025964390617293644,-0.00834441915378489,-1.225929336719513,0.7027445505905151,-9.304451606960297
2026-09-11T17:39:30.987,0.13365440000001172,-281.1866455078125,-25306.798095703125,-101227.1923828125,-192.61285217285158,-0.10050903320312501,-1.1319456100463867,-0.775382742881775,-1.7344817977849278,-1.6368185207155797,0.0,-0.0047931671142578125,-39.265625,-1.7255401611328125,0.0,0.0,-164.3779642142674,0,nan,nan,nan,nan,-999,-999,nan,nan,nan,-999,1,1789162770.983231,-0.9927408631823538,0.11497966763090196,-0.0016052311515016254,-0.03525163588250843,176.00744893485484,-0.6470893642362522,-13.190615713923355,-0.0007108726043372905,0.026870565564929103,-0.0060329050924435995,-0.7985555226707459,0.8988775538253785,-9.158528652553558
2026-09-11T17:39:31.019,0.16706870400003027,-281.2286071777344,-25310.574645996094,-101242.29858398438,-192.64159591674806,-0.1292527770996094,-1.263037085533142,-0.8651804035902024,-1.9353534439651965,-2.6874017997914184,0.0,-0.0047931671142578125,-39.265625,-1.7255401611328125,0.0,0.0,0.0,0,nan,nan,nan,nan,-999,-999,nan,nan,nan,-999,1,1789162771.011231,-0.992726182843788,0.1155230825543967,-0.0020945994346335058,-0.03383424222205073,176.1756980899311,-0.6861906197713546,-13.252347939867548,0.019647869521400966,0.03116355192605955,-0.00798715025590165,-1.0008667155075073,0.9450668760871886,-8.897965957756043
2026-09-11T17:39:31.053,0.20047792000002573,-281.268310546875,-25314.14794921875,-101256.591796875,-192.6687927246094,-0.1564495849609375,-1.211749792098999,-0.8300486075878144,-1.856765854482403,1.0515600247067394,0.0,-0.0047931671142578125,-39.265625,-1.7255401611328125,0.0,0.0,0.0,1,1789162771.042221,38.99141385833333,-76.93667046333333,-11.828000000000003,0,1,15.374240999999998,6.734025000000001,62.378403999999996,1,1,1789162771.043231,-0.9926600005822815,0.11656955664612267,-0.0032472148490183396,-0.03204867084662578,176.3950980808934,-0.7975004551703284,-13.370212419202895,0.019142771235873806,0.06514249446851116,-0.019165984114925334,-0.9917465308570862,0.8348401282691955,-10.734849599552154
2026-09-11T17:39:31.087,0.23388163200002055,-281.3119201660156,-25318.072814941406,-101272.29125976562,-192.6986653137207,-0.18632217407226564,-1.2657710313796997,-0.8670531564950944,-1.9395426729041998,-1.107797507872351,0.0,-0.00482177734375,-39.5,-1.73583984375,0.0762939527630806,27.465822994709015,822.2386480494528,1,1789162771.042221,38.99141385833333,-76.93667046333333,-11.828000000000003,0,1,15.374240999999998,6.734025000000001,62.378403999999996,1,1,1789162771.083231,-0.9925778232622304,0.11736059921696536,-0.006306675681894357,-0.031240684392164174,176.52866056469347,-1.1375439904331879,-13.452010752603266,0.006013357404821263,0.03885382167619697,-0.0035199800354221637,0.3702991101074219,0.5432884189605712,-10.612168406028749
2026-09-11T17:39:31.120,0.2673052800000164,-281.3572692871094,-25322.154235839844,-101288.61694335938,-192.72972946166993,-0.2173863220214844,-1.3710261583328247,-0.939152918457985,-2.100825247087473,-2.157148195280764,0.0,-0.00467681884765625,-38.3125,-1.68365478515625,0.015258789993822575,5.493164397776127,-657.3985759105531,1,1789162771.042221,38.99141385833333,-76.93667046333333,-11.828000000000003,0,1,15.374240999999998,6.734025000000001,62.378403999999996,1,1,1789162771.111231,-0.9924964063176275,0.11805393661284047,-0.007816566273818132,-0.03087155306254365,176.5917724035152,-1.3067346288924526,-13.527640748864119,-0.024551022989028636,0.035149360338839,0.009232093611349206,1.2789833140945435,-0.009218251152038575,-10.429274380512238
2026-09-11T17:39:31.153,0.3007279360000439,-281.39837646484375,-25325.853881835938,-101303.41552734375,-192.757887878418,-0.24554473876953126,-1.2676730155944824,-0.8683560156822205,-1.9424570859033186,2.1182309022869474,0.0,-0.0020160675048828125,-16.515625,-0.7257843017578125,0.0915527492761612,32.95898973941803,821.7726724536592,1,1789162771.042221,38.99141385833333,-76.93667046333333,-11.828000000000003,0,1,15.374240999999998,6.734025000000001,62.378403999999996,1,1,1789162771.1432312,-0.9924307312784152,0.11907469562330684,-0.0060737689974063105,-0.029420567747291557,176.73468595377014,-1.0922429043349027,-13.652479574426687,-0.012423951747396435,0.007046417789076706,0.0032199579370043386,-0.5414251554298402,0.7533468654251099,-9.884318831024169
2026-09-11T17:39:31.187,0.3341451840000218,-281.4455871582031,-25330.10284423828,-101320.41137695312,-192.79022720336914,-0.2778840637207031,-1.3475255966186523,-0.923055033683777,-2.064815304410737,-1.6368498687142805,0.0,0.003049850696697831,24.984376907348633,1.0979462508112192,0.1678466945886612,60.42481005191803,821.9055115645116,1,1789162771.042221,38.99141385833333,-76.93667046333333,-11.828000000000003,0,1,15.374240999999998,6.734025000000001,62.378403999999996,1,1,1789162771.183231,-0.9923499271245333,0.12046558879981853,-0.004759030075637432,-0.026589766523714815,177.04035423247365,-0.9082649566510104,-13.819559392694382,0.010402162341886203,-0.04109639523208448,0.005228482840199413,-0.745207345790863,0.4434567203140259,-9.737807477607726
2026-09-11T17:39:31.220,0.3675646400000119,-281.4911804199219,-25334.20623779297,-101336.82495117188,-192.8214585876465,-0.3091154479980469,-1.349411964416504,-0.9243471956253052,-2.0677057883529533,-0.03866496036107356,0.0,0.010698319412767887,87.64063262939453,3.8513949885964394,0.1831054985523224,65.91797947883606,164.37040228660996,1,1789162771.042221,38.99141385833333,-76.93667046333333,-11.828000000000003,0,1,15.374240999999998,6.734025000000001,62.378403999999996,1,1,1789162771.211231,-0.9922660221144664,0.12143423822811358,-0.004875430045731354,-0.025260588373195846,177.19410823155198,-0.9059096737226303,-13.932222213748542,0.03737273527295458,-0.015695222364409407,0.014097722500058998,-0.2996912289428711,0.251050244140625,-10.47389463874817
2026-09-11T17:39:31.254,0.40098576000002595,-281.5386657714844,-25338.479919433594,-101353.91967773438,-192.8539860534668,-0.34164291381835943,-1.4548943042755127,-0.9966025984287262,-2.229336521180935,-2.1619683243227814,0.0,0.0192794818431139,157.93751525878906,6.940613463521004,0.3356933891773224,120.84962010383606,1643.6205795908957,1,1789162771.042221,38.99141385833333,-76.93667046333333,-11.828000000000003,0,1,15.374240999999998,6.734025000000001,62.378403999999996,1,1,1789162771.243231,-0.9920891114812825,0.12284443409434438,-0.004109540788061549,-0.025525508160095266,177.15451587089905,-0.8265428932544647,-14.096797283763246,-0.022786495115262366,-0.08714690754595486,0.044043907272852505,-2.0828344278526307,0.36971071109771725,-10.568823012313842
2026-09-11T17:39:31.287,0.4344083519999913,-281.58331298828125,-25342.498168945312,-101369.99267578125,-192.88456939697267,-0.37222625732421877,-1.3511345386505127,-0.9255271589756012,-2.0703452911945246,2.1265687428790296,0.0,0.02861023135483265,234.37501525878906,10.299683287739754,0.06103518605232239,21.97266697883606,-2958.3867440652884,1,1789162771.042221,38.99141385833333,-76.93667046333333,-11.828000000000003,0,1,15.374240999999998,6.734025000000001,62.378403999999996,1,1,1789162771.283231,-0.9919692520048113,0.1240122473122834,-0.0025904995950459427,-0.02472356983568791,177.22519180454555,-0.6458197769855427,-14.23622129613515,-0.017455561447970887,-0.05473125641451458,0.035589183310341575,0.4965106976890564,0.7758040942955017,-9.432918724079132
2026-09-11T17:39:31.321,0.4678244799999902,-281.6329040527344,-25346.961364746094,-101387.84545898438,-192.91853927612306,-0.4061961364746094,-1.4308913946151733,-0.9801606053113938,-2.1925568300630656,-1.634942454607378,0.0,0.030750276520848274,251.90626525878906,11.070099547505379,0.2136230617761612,76.90430223941803,1643.8659577968974,1,1789162771.042221,38.99141385833333,-76.93667046333333,-11.828000000000003,0,1,15.374240999999998,6.734025000000001,62.378403999999996,1,1,1789162771.3112311,-0.991776499954665,0.12565829362391176,-0.000930817499434338,-0.024259038727527882,177.25524622805807,-0.4551065756021589,-14.430921957872641,0.002436479635784084,-0.0640841268101018,0.04993020470812858,-0.30704621656417846,0.5238712516403199,-9.64611529859543
2026-09-11T17:39:31.355,0.5012408320000077,-281.6828918457031,-25351.46026611328,-101405.84106445312,-192.95278091430666,-0.44043777465820316,-1.4842393398284912,-1.0167039477825166,-2.274301959069693,-1.093576655857099,0.0,0.03504181280732155,287.0625305175781,12.615052610635757,0.1373291164636612,49.43848192691803,-821.9275494968942,1,1789162771.042221,38.99141385833333,-76.93667046333333,-11.828000000000003,0,1,15.374240999999998,6.734025000000001,62.378403999999996,1,1,1789162771.351231,-0.9916207100211492,0.12727622361378071,0.0007828201098207794,-0.022102433179226746,177.47621614319604,-0.2334068744853069,-14.62290386100129,0.00980299080967655,-0.026082025808878063,0.06384990362448416,0.3481360807418823,0.2839025221824646,-10.363373691425323
2026-09-11T17:39:31.388,0.5346615040000415,-281.7336120605469,-25356.02508544922,-101424.10034179688,-192.98752426147462,-0.4751811218261719,-1.5371851921081543,-1.0529718565940858,-2.3554309605272112,-1.0851938827421672,0.0,0.03990364447236061,326.8906555175781,14.36531201004982,0.061035171151161194,21.97266161441803,-821.8213060608771,1,1789162771.042221,38.99141385833333,-76.93667046333333,-11.828000000000003,0,1,15.374240999999998,6.734025000000001,62.378403999999996,1,1,1789162771.3832312,-0.9913642196682716,0.1291155562341785,0.001203915300335416,-0.022906498811628706,177.379033683634,-0.20214758229166926,-14.83627581677669,-0.018339221648255615,-0.03166149436165353,0.061622688966014194,-1.0865768379211425,0.9590903858184814,-8.322805925769806
2026-09-11T17:39:31.421,0.5680839359999936,-281.78326416015625,-25360.493774414062,-101441.97509765625,-193.02153594970704,-0.5091928100585937,-1.5116819143295288,-1.0355021113157272,-2.316352253301105,0.5226952149497552,0.0,0.04385757818818092,359.2812805175781,15.788728147745132,0.1678466945886612,60.42481005191803,1150.4892414039502,1,1789162771.042221,38.99141385833333,-76.93667046333333,-11.828000000000003,0,1,15.374240999999998,6.734025000000001,62.378403999999996,1,1,1789162771.411231,-0.9911825808918564,0.13084228033692677,0.0020973707076301943,-0.020808412935782308,177.60440971606872,-0.0737675214857761,-15.038300481380713,0.09325067300602943,-0.023018100307002017,0.070609389284533,-1.485413299999237,0.8588664211654664,-12.229285017700194
2026-09-11T17:39:31.455,0.60150326400003,-281.8331298828125,-25364.981689453125,-101459.9267578125,-193.05569396972658,-0.543350830078125,-1.4854161739349365,-1.0175100791454317,-2.2761052235715606,0.5383720513553112,0.0,0.05513382330536842,451.6562805175781,19.848176389932632,0.4272461235523224,153.80860447883606,2794.304973062789,1,1789162771.042221,38.99141385833333,-76.93667046333333,-11.828000000000003,0,1,15.374240999999998,6.734025000000001,62.378403999999996,1,1,1789162771.451231,-0.9909542567773416,0.13250586595817132,0.003777840632177981,-0.020918517674530925,177.5664987616229,0.11136484049278941,-15.234669187451198,-0.01058507284749521,-0.0847083335150684,0.09093235216060537,1.687626426334381,0.8666136747932435,-7.466783433151245
2026-09-11T17:39:31.488,0.6349259200000006,-281.8874816894531,-25369.87335205078,-101479.49340820312,-193.09292495727541,-0.5805818176269532,-1.5636793375015259,-1.0711203461885452,-2.3960279755470295,-1.6040097783719125,0.0,0.06269646435976028,513.6094360351562,22.570727169513702,-0.015258791856467724,-5.493165068328381,-4766.280978606381,1,1789162771.042221,38.99141385833333,-76.93667046333333,-11.828000000000003,0,1,15.374240999999998,6.734025000000001,62.378403999999996,1,1,1789162771.483231,-0.9907340222498866,0.13400007706809408,0.005605930389740873,-0.021416116519375798,177.48170587870592,0.30759097056587836,-15.412165433704352,0.03910165842998016,-0.00832277707106016,0.07142794870371834,-3.793408415565491,1.4171590148735047,-10.484681953926087
2026-09-11T17:39:31.521,0.6683504320000111,-281.94500732421875,-25375.050659179688,-101500.20263671875,-193.13233001708986,-0.6199868774414063,-1.7196108102798462,-1.1779334050416947,-2.634961983360982,-3.195650511011677,0.0,0.0628967359662056,515.2500610351562,22.642824947834015,0.0,0.0,164.34540819404194,1,1789162771.042221,38.99141385833333,-76.93667046333333,-11.828000000000003,0,1,15.374240999999998,6.734025000000001,62.378403999999996,1,1,1789162771.511231,-0.9904032021647842,0.13615281491318193,0.005936200531994117,-0.0229928174916104,177.29684276498728,0.3149788537854803,-15.66244759696741,-0.013957572561123854,-0.03640058687959374,0.10632842509122295,2.4860838825035096,0.9788017526435852,-9.063109946479797
2026-09-11T17:39:31.554,0.7017701440000224,-282.00115966796875,-25380.104370117188,-101520.41748046875,-193.17079437255862,-0.6584512329101563,-1.694049596786499,-1.1604239737987518,-2.595794501160412,0.5239252583306825,0.0,0.0625305250287056,512.2500610351562,22.510989010334015,0.0,0.0,0.0,1,1789162771.042221,38.99141385833333,-76.93667046333333,-11.828000000000003,0,1,15.374240999999998,6.734025000000001,62.378403999999996,1,1,1789162771.543231,-0.9902164549352365,0.13768061159009454,0.008427605358124852,-0.021080726638284853,177.47403009922292,0.6237050863896388,-15.845168211942596,0.021473309386061835,-0.11498735257621721,0.06298369671671937,-3.6029632694244387,-0.4209014249420166,-10.554407236576079
2026-09-11T17:39:31.589,0.7351948799999946,-282.05670166015625,-25385.103149414062,-101540.41259765625,-193.20884063720703,-0.6964974975585938,-1.6423869132995605,-1.125035035610199,-2.5166317009891683,1.058764927525,0.0,0.06244850903749466,511.57818603515625,22.481463253498077,0.0915527418255806,32.958987057209015,986.0657405711873,1,1789162771.042221,38.99141385833333,-76.93667046333333,-11.828000000000003,0,1,15.374240999999998,6.734025000000001,62.378403999999996,1,1,1789162771.583231,-0.9900215842043428,0.1392505712343318,0.008779529206715039,-0.019734768489744578,177.62018092247686,0.6811305803927198,-16.026872775424494,0.06217072235114041,0.03846810391150622,0.04233959325828004,-4.452611439437867,1.4984561447143554,-10.07329297964096
2026-09-11T17:39:31.622,0.7686139840000124,-282.11468505859375,-25390.321655273438,-101561.28662109375,-193.24855926513672,-0.7362161254882813,-1.6947591304779053,-1.1609100043773652,-2.5968817206007606,-1.0734868525244459,0.0,0.059400565922260284,486.60943603515625,21.384203732013702,-0.2136230617761612,-76.90430223941803,-3287.439702050915,1,1789162771.042221,38.99141385833333,-76.93667046333333,-11.828000000000003,0,1,15.374240999999998,6.734025000000001,62.378403999999996,1,1,1789162771.611231,-0.9898406035742855,0.14054781653368836,0.009269432385392476,-0.01938990475890876,177.65051039296344,0.7391419895784431,-16.178009716344107,0.03362952762620234,0.019634954084936207,0.05542799185191072,-1.6234909342765809,-0.5675108448600769,-7.529447927684783
2026-09-11T17:39:31.655,0.8020308480000153,-282.1731872558594,-25395.586853027344,-101582.34741210938,-193.2886332702637,-0.7762901306152344,-1.7468249797821045,-1.1965751111507417,-2.6766622923021215,-1.0672786881908856,0.0,0.05197335034608841,425.76568603515625,18.710406124591827,-0.2746582329273224,-98.87696385383606,-657.5321255284776,1,1789162771.042221,38.99141385833333,-76.93667046333333,-11.828000000000003,0,1,15.374240999999998,6.734025000000001,62.378403999999996,1,1,1789162771.651231,-0.9895644408120351,0.14274741898889362,0.007328067551010823,-0.018212393536861805,177.81429768571422,0.5330673285011917,-16.427072324438296,0.03462035104255952,0.09000418606439478,0.053541290930504845,2.889235270652771,-1.051469030342102,-10.041715566120148
2026-09-11T17:39:31.689,0.8354490880000185,-282.23016357421875,-25400.714721679688,-101602.85888671875,-193.32766204833985,-0.8153189086914063,-1.7479009628295898,-1.1973121595382692,-2.678311022589182,-0.022055272435875094,0.0,0.04078293591737747,334.09381103515625,14.68185693025589,-0.4882813096046448,-175.78127145767212,-2301.2674396924795,1,1789162771.042221,38.99141385833333,-76.93667046333333,-11.828000000000003,0,1,15.374240999999998,6.734025000000001,62.378403999999996,1,1,1789162771.683231,-0.9894563069484406,0.1436308052203203,0.003513691748372598,-0.018277374045879813,177.86932470803146,0.09756908848242854,-16.520696117682945,-0.0004900884539600078,0.09525553271779533,0.05029480398887019,1.685567029800415,0.49503970016479487,-9.57119249135971
2026-09-11T17:39:31.722,0.868871200000001,-282.2882080078125,-25405.938720703125,-101623.7548828125,-193.36742248535157,-0.855079345703125,-1.7750037908554077,-1.2158775967359543,-2.7198407228345403,-0.5554836629622584,0.0,0.028280265629291534,231.67193603515625,10.180895626544952,-0.045776426792144775,-16.47951364517212,4766.358206584419,1,1789162771.042221,38.99141385833333,-76.93667046333333,-11.828000000000003,0,1,15.374240999999998,6.734025000000001,62.378403999999996,1,1,1789162771.711231,-0.9893456651122989,0.14437593117373954,0.002923389532023583,-0.01849862737779373,177.85393105961785,0.025380450688902857,-16.60569313627818,-0.037688814400490746,0.04028778418963551,0.020076347852765575,-1.3208577102851868,0.8939742287445069,-9.214818824481965
2026-09-11T17:39:31.756,0.9022922240000071,-282.3497619628906,-25411.478576660156,-101645.91430664062,-193.4095869445801,-0.8972438049316407,-1.8535737991333008,-1.269698052406311,-2.8402336533784664,-1.6103772185540124,0.0,0.028152473270893097,230.62506103515625,10.134890377521515,-0.0915527418255806,-32.958987057209015,-493.087028453523,1,1789162771.042221,38.99141385833333,-76.93667046333333,-11.828000000000003,0,1,15.374240999999998,6.734025000000001,62.378403999999996,1,1,1789162771.751231,-0.989205211014051,0.14533568869608554,0.0036570253933812602,-0.018363394543313476,177.85701690228385,0.10871215861827152,-16.718422082570456,0.0305638567950743,0.01589523709668796,0.007933568647865425,-0.15406247404098508,-0.22829881576538086,-10.252950810604094
2026-09-11T17:39:31.789,0.9357106240000235,-282.4104309082031,-25416.93878173828,-101667.75512695312,-193.45114517211917,-0.9388020324707032,-1.854903221130371,-1.2706087064743044,-2.8422707285126676,-0.02725007983604367,0.0,0.028676994144916534,234.92193603515625,10.323717892169952,0.0610351599752903,21.972657591104507,1643.7544780206886,1,1789162771.042221,38.99141385833333,-76.93667046333333,-11.828000000000003,0,1,15.374240999999998,6.734025000000001,62.378403999999996,1,1,1789162771.783231,-0.9889495697416578,0.14706676065046104,0.004141763667393245,-0.018247252212143125,177.86182085149002,0.16185289968851974,-16.919961990936915,0.018786200469691365,-0.01362630906909533,0.036073686710695205,-0.4119773732948303,1.019205151309967,-9.812338018836975
2026-09-11T17:39:31.822,0.9691242560000433,-282.47479248046875,-25422.731323242188,-101690.92529296875,-193.4952328491211,-0.9828897094726563,-1.9597289562225342,-1.342414335012436,-3.0028953449633913,-2.148992020325391,0.0,0.029447562992572784,241.23443603515625,10.601122677326202,0.0457763709127903,16.479493528604507,-164.39889152118354,1,1789162771.042221,38.99141385833333,-76.93667046333333,-11.828000000000003,0,1,15.374240999999998,6.734025000000001,62.378403999999996,1,1,1789162771.8112311,-0.9887960047561242,0.14792918794480314,0.005053647226814583,-0.01933589879020929,177.72280741209224,0.2448465104148686,-17.022168307531995,-0.0045614180000871805,-0.06721559655403002,0.03488808454981545,-2.23483750535965,2.2849494876861574,-8.221699362602234
2026-09-11T17:39:31.856,1.0025371840000048,-282.542724609375,-25428.84521484375,-101715.380859375,-193.5417663574219,-1.0294232177734375,-2.0381085872650146,-1.396104382276535,-3.122996560210571,-1.6068644826386032,0.0,0.030059821903705597,246.25006103515625,10.821535885334015,0.0,0.0,-493.20710620223036,1,1789162771.042221,38.99141385833333,-76.93667046333333,-11.828000000000003,0,1,15.374240999999998,6.734025000000001,62.378403999999996,1,1,1789162771.851231,-0.9885598208601671,0.1492701472654671,0.005408694365441135,-0.020943966709327824,177.53415295701802,0.25445241744967034,-17.178790659867257,0.02535823776807601,-0.11600435593135432,0.041359590883285224,0.7776673578262329,1.251818893146515,-8.612200172042847
2026-09-11T17:39:31.889,1.0360056320000126,-282.6159362792969,-25435.43426513672,-101741.73706054688,-193.59191635131836,-1.079573211669922,-2.1684954166412354,-1.4854193603992463,-3.3227884761973083,-2.66863220316312,0.0,0.0328674390912056,269.25006103515625,11.832278072834015,0.0,0.0,0.0,1,1789162771.042221,38.99141385833333,-76.93667046333333,-11.828000000000003,0,1,15.374240999999998,6.734025000000001,62.378403999999996,1,1,1789162771.8832312,-0.988312934170917,0.15073149453839083,0.004487488472167998,-0.022302985268969903,177.39572213371395,0.12298899130150667,-17.3459590432453,-0.04066844049949547,-0.009773843811168246,0.057263031027457556,0.08482752389907837,1.5404286074066162,-9.954436379680633
2026-09-11T17:39:31.922,1.0694219200000248,-282.6902770996094,-25442.124938964844,-101768.49975585938,-193.64283981323243,-1.1304966735839845,-2.2469329833984375,-1.5391490936279297,-3.4429784664189516,-1.6078905361560174,0.0,0.03252030164003372,266.40631103515625,11.70730859041214,0.0,0.0,0.0,1,1789162771.042221,38.99141385833333,-76.93667046333333,-11.828000000000003,0,1,15.374240999999998,6.734025000000001,62.378403999999996,1,1,1789162771.911231,-0.9880896400104359,0.15189275480299827,0.004497644218990096,-0.024232736925142707,177.17677645764766,0.08746759786056839,-17.480767340019106,0.005952445413926661,0.022126237059232914,0.05085871987018956,-1.2081792999267578,1.6490862911987305,-9.454101088428496
2026-09-11T17:39:31.956,1.102837472000033,-282.7688293457031,-25449.19464111328,-101796.77856445312,-193.69664810180666,-1.1843049621582031,-2.351048469543457,-1.6104682016372682,-3.6025147674419884,-2.1343088394685554,0.0,0.029264457523822784,239.73443603515625,10.535204708576202,-0.2136230617761612,-76.90430223941803,-2301.452396758232,1,1789162771.042221,38.99141385833333,-76.93667046333333,-11.828000000000003,0,1,15.374240999999998,6.734025000000001,62.378403999999996,1,1,1789162771.951231,-0.9878177837710981,0.15339084303122544,0.004501096650671338,-0.025826642613155246,176.99604367527203,0.055541716299715764,-17.654536745938763,-0.03840876271693841,0.006016324464549654,0.024556433509709815,-2.108527851276398,0.9276110387992859,-10.5140038379097
2026-09-11T17:39:31.989,1.1362563840000348,-282.8506774902344,-25456.560974121094,-101826.24389648438,-193.75271408081056,-1.2403709411621096,-2.430556535720825,-1.6649312269687655,-3.7243450853810924,-1.6297067161101522,0.0,0.022146232426166534,181.42193603515625,7.972643673419952,-0.2288818508386612,-82.39746630191803,-164.37291742171877,1,1789162771.042221,38.99141385833333,-76.93667046333333,-11.828000000000003,0,1,15.374240999999998,6.734025000000001,62.378403999999996,1,1,1789162771.983231,-0.9876921272208052,0.15407235614481993,0.004545955212502264,-0.026557582518567647,176.91242571162493,0.045632066681243554,-17.733719324780296,0.02091515309127405,-0.03163793241675161,0.035232438011233935,0.7679587741661072,1.2919280923080443,-8.885609578552247
2026-09-11T17:39:32.023,1.169671648000019,-282.9356689453125,-25464.210205078125,-101856.8408203125,-193.81093322753907,-1.2985900878906251,-2.560800552368164,-1.7541483783721925,-3.9239181692291307,-2.6699520136506765,0.0,0.003223426640033722,26.40631103515625,1.16043359041214,-0.8087158799171448,-291.1377167701721,-6246.853248513979,1,1789162771.042221,38.99141385833333,-76.93667046333333,-11.828000000000003,0,1,15.374240999999998,6.734025000000001,62.378403999999996,1,1,1789162772.011231,-0.9876083977657993,0.15433695067718126,0.003651669294940466,-0.028220978535486524,176.73984214056426,-0.08584291934057446,-17.761496144656448,0.027610585167774697,0.002051809068644534,-0.01914765815777939,-2.3560477013587953,3.4650817681503296,-9.97973753709793
2026-09-11T17:39:32.055,1.2030883200000062,-283.0264892578125,-25472.384033203125,-101889.5361328125,-193.87314514160158,-1.360802001953125,-2.69187593460083,-1.8439350152015688,-4.124765155694271,-2.6868814713030345,0.0,-0.0070476531982421875,-57.734375,-2.5371551513671875,0.1220703274011612,43.94531786441803,10027.420882448123,1,1789162772.0426521,38.99141222,-76.936663485,-11.818000000000001,0,1,20.403289000000004,21.613201,173.554276,1,1,1789162772.043231,-0.9875408393449545,0.15435438794246956,0.004433920670213166,-0.030301054375363175,176.49039536755794,-0.03419675448011272,-17.766062374495807,-0.0035760051044111817,-0.03386968493127676,-0.027188564554642466,-3.462335906105041,2.400569893093109,-11.214885124969483
2026-09-11T17:39:32.090,1.236521888000027,-283.1240539550781,-25481.16485595703,-101924.65942382812,-193.93997695922852,-1.4276338195800782,-2.8497838973999023,-1.9521019697189332,-4.36672774185516,-3.2352800190903057,0.0,-0.011816024780273438,-96.796875,-4.2537689208984375,-0.2899170219898224,-104.37012791633606,-4436.123771793116,1,1789162772.0426521,38.99141222,-76.936663485,-11.818000000000001,0,1,20.403289000000004,21.613201,173.554276,1,1,1789162772.083231,-0.9876299228717835,0.1534670512674066,0.006554153516633247,-0.03149670927640977,176.3175738182105,0.18785841929059474,-17.67105817706107,-0.03498303046112394,-0.07800382572645737,-0.09791454183320868,-3.5520667550849914,2.069987716140747,-9.118125253887177
2026-09-11T17:39:32.123,1.269947392000006,-283.22088623046875,-25489.879760742188,-101959.51904296875,-194.00630706787112,-1.4939639282226564,-2.9291281700134277,-2.006452796459198,-4.4883070786936194,-1.6260286379017388,0.0,-0.02214813232421875,-181.4375,-7.97332763671875,-0.3051758110523224,-109.86329197883606,-164.3405006698917,1,1789162772.0426521,38.99141222,-76.936663485,-11.818000000000001,0,1,20.403289000000004,21.613201,173.554276,1,1,1789162772.111231,-0.9877655902357776,0.15252031486599718,0.007393184994290668,-0.03165490664941578,176.28513143949118,0.2835828840304298,-17.56456921167607,0.03263277009038838,-0.05320461691779514,-0.08776073984388127,4.5592097266960145,0.19672140224456788,-10.245497756481171
2026-09-11T17:39:32.156,1.3033670720000146,-283.31878662109375,-25498.690795898438,-101994.76318359375,-194.07336883544923,-1.5610256958007813,-2.9559714794158936,-2.024840463399887,-4.529439118199456,-0.5502047578158832,0.0,-0.03508949279785156,-287.453125,-12.632217407226562,-0.4882813096046448,-175.78127145767212,-1972.4300016881991,1,1789162772.0426521,38.99141222,-76.936663485,-11.818000000000001,0,1,20.403289000000004,21.613201,173.554276,1,1,1789162772.151231,-0.9880553060789072,0.15082554264778647,0.009048862080316798,-0.03027351828527504,176.41347410709713,0.5013165491405006,-17.37397155808682,0.04350791665956505,-0.022558729647877106,-0.12439746977126984,3.0489856017875674,-0.36902424558639524,-10.35778390083313
2026-09-11T17:39:32.189,1.3367840960000308,-283.4164123535156,-25507.477111816406,-102029.90844726562,-194.14024246215823,-1.6278993225097658,-2.957418441772461,-2.025831632614136,-4.531656300586376,-0.029660606948372123,0.0,-0.04512596130371094,-369.671875,-16.245346069335938,-0.24414068460464478,-87.89064645767212,2630.1152669955686,1,1789162772.0426521,38.99141222,-76.936663485,-11.818000000000001,0,1,20.403289000000004,21.613201,173.554276,1,1,1789162772.183131,-0.9883540157578867,0.14912891348034701,0.007236745967678159,-0.029402996568879777,176.54408782443642,0.31714865682491616,-17.170394633030263,-0.013313197001287545,-0.04995202132377851,-0.15010512245559512,1.0220490798568724,-0.9377118884658813,-9.459494746017457
2026-09-11T17:39:32.223,1.370198816000027,-283.5140075683594,-25516.260681152344,-102065.04272460938,-194.2070951843262,-1.6947520446777344,-2.9320220947265625,-2.0084351348876957,-4.492741443467461,0.5206237767798824,0.0,-0.06018638610839844,-493.046875,-21.667098999023438,-0.5645752549171448,-203.24709177017212,-3452.264310834069,1,1789162772.0426521,38.99141222,-76.936663485,-11.818000000000001,0,1,20.403289000000004,21.613201,173.554276,1,1,1789162772.2111309,-0.9886247479578691,0.14728525142994167,0.006780876249082499,-0.02970155136946683,176.51854421258778,0.26690093371973284,-16.95530690693403,-0.011946778729901186,0.04981256951654416,-0.14767387880756702,0.5622152537727356,0.4217840234565735,-8.566893448295593
2026-09-11T17:39:32.257,1.403621792000024,-283.6151123046875,-25525.360107421875,-102101.4404296875,-194.27635192871097,-1.7640087890625,-3.0113131999969482,-2.06274954199791,-4.614239311913716,-1.6250619666608648,0.0,-0.07829856872558594,-641.421875,-28.187484741210938,-0.13732916116714478,-49.43849802017212,4601.882063105731,1,1789162772.0426521,38.99141222,-76.936663485,-11.818000000000001,0,1,20.403289000000004,21.613201,173.554276,1,1,1789162772.2511308,-0.9891509274092829,0.14369071923147736,0.005969628745880501,-0.02996303630696679,176.50325684081537,0.1832841911088943,-16.536303396054073,-0.0049720939730814465,0.08725232543277532,-0.19145406683044316,1.8730701808929444,1.9180827051353455,-7.526603999137878
2026-09-11T17:39:32.290,1.43703958399999,-283.71844482421875,-25534.660034179688,-102138.64013671875,-194.34713470458985,-1.8347915649414064,-3.1160221099853516,-2.134475145339966,-4.7746849170990595,-2.1463298156302164,0.0,-0.0778961181640625,-638.125,-28.0426025390625,-0.1068115308880806,-38.452151119709015,328.75741462734146,1,1789162772.0426521,38.99141222,-76.936663485,-11.818000000000001,0,1,20.403289000000004,21.613201,173.554276,1,1,1789162772.283131,-0.9895843144414517,0.14053248969787133,0.0025042562212681074,-0.03110036417049856,176.43061859710153,-0.21685804528179417,-16.158486508170622,-0.024398306679479134,0.18298974355704628,-0.2319313937768453,0.2218264266586304,0.6473369771766663,-9.679457909145356
2026-09-11T17:39:32.323,1.4704591040000423,-283.8280944824219,-25544.52850341797,-102178.11401367188,-194.422244720459,-1.909901580810547,-3.2718429565429688,-2.2412124252319336,-5.0134494122045705,-3.1938603514293717,0.0,-0.07795333862304688,-638.59375,-28.063201904296875,0.0305175818502903,10.986329466104507,1479.3294633117494,1,1789162772.0426521,38.99141222,-76.936663485,-11.818000000000001,0,1,20.403289000000004,21.613201,173.554276,1,1,1789162772.311131,-0.9898785958706539,0.13790210122559893,-0.0008894903055740068,-0.03350499547386872,176.21053514979562,-0.630369045016254,-15.84105160308627,-0.06255940717555955,0.12723799312889061,-0.20667613043463692,-0.595459797821045,1.9375979389572144,-10.595202901248932
2026-09-11T17:39:32.357,1.5038729920000264,-283.94012451171875,-25554.611206054688,-102218.44482421875,-194.49898529052737,-1.9866421508789065,-3.349952459335327,-2.2947174346446992,-5.133136709566698,-1.6012805637222167,0.0,-0.07579612731933594,-620.921875,-27.286605834960938,0.0762939602136612,27.46582567691803,493.1930163535998,1,1789162772.0426521,38.99141222,-76.936663485,-11.818000000000001,0,1,20.403289000000004,21.613201,173.554276,1,1,1789162772.351131,-0.9904108476150141,0.13369408293228435,-0.0022860752387825565,-0.03474217862205815,176.08862825049323,-0.7917356908836674,-15.348566888167586,0.04891407401761748,0.08642050151127482,-0.2146915550244209,-0.3935408709907532,1.6388873750305175,-8.851972768497467
2026-09-11T17:39:32.390,1.5372878080000305,-284.060546875,-25565.44921875,-102261.796875,-194.58147460937502,-2.0691314697265626,-3.558712959289551,-2.4377183771133426,-5.45302070757279,-4.279566958220747,0.0,-0.06606101989746094,-541.171875,-23.781967163085938,0.3967285752296448,142.82228708267212,3452.2548741773726,1,1789162772.0426521,38.99141222,-76.936663485,-11.818000000000001,0,1,20.403289000000004,21.613201,173.554276,1,1,1789162772.383131,-0.9906694195706576,0.13096837487186994,-0.004938820855383422,-0.03737638237599117,175.82657780181637,-1.1216781106596099,-15.021008472347335,-0.023499811180552454,0.04102012434377233,-0.17048777559208572,1.9656449584198,2.2706317784500123,-8.936506092891694
2026-09-11T17:39:32.424,1.5707078400000114,-284.1860656738281,-25576.74591064453,-102306.98364257812,-194.66745498657227,-2.155111846923828,-3.7161965370178223,-2.5455946278572084,-5.694333007912504,-3.2278919045896615,0.0,-0.0505828857421875,-414.375,-18.2098388671875,0.4730225205421448,170.28810739517212,821.8370440972559,1,1789162772.0426521,38.99141222,-76.936663485,-11.818000000000001,0,1,20.403289000000004,21.613201,173.554276,1,1,1789162772.411131,-0.9908493497311442,0.129168775399949,-0.0041539540262504815,-0.038932483416727365,175.63602810068087,-1.04797576227255,-14.81464755980695,0.03846810391150622,0.040788344619107485,-0.15910962513248428,-3.0249593088912965,1.2819253091430665,-7.823451299533843
2026-09-11T17:39:32.456,1.6041157120000094,-284.3125305175781,-25588.12774658203,-102352.51098632812,-194.75408340454103,-2.241740264892578,-3.7952330112457275,-2.5997346127033234,-5.815440704866053,-1.620575678873481,0.0,-0.03658103942871094,-299.671875,-13.169174194335938,0.2593994736671448,93.38381052017212,-2301.98130772905,1,1789162772.0426521,38.99141222,-76.936663485,-11.818000000000001,0,1,20.403289000000004,21.613201,173.554276,1,1,1789162772.4511309,-0.9911193664253335,0.12707583612618917,-0.005108919658089054,-0.03883339168038692,175.65891555710738,-1.1458011574900027,-14.569142587670655,0.11355740432005826,0.04719405203977707,-0.09678252128036516,-1.562199370765686,1.7522522509002687,-10.140566599750517
2026-09-11T17:39:32.489,1.6375246080000352,-284.4437561035156,-25599.938049316406,-102399.75219726562,-194.84397293090822,-2.3316297912597657,-3.9001009464263916,-2.6715691483020785,-5.976129984569782,-2.1501619089328643,0.0,-0.0254364013671875,-208.375,-9.1571044921875,0.4119873642921448,148.31545114517212,1644.2219648610214,1,1789162772.0426521,38.99141222,-76.936663485,-11.818000000000001,0,1,20.403289000000004,21.613201,173.554276,1,1,1789162772.483131,-0.9911394310549663,0.12632242966009022,-0.006868928670782266,-0.040473321975404646,175.4967106095059,-1.366147278637157,-14.472855491090964,-0.0014400711658205214,0.12038356155753328,-0.06286379259710737,-0.9109397335243226,1.008515902633667,-6.406390351161957
2026-09-11T17:39:32.524,1.6709462720000374,-284.5777893066406,-25612.001037597656,-102448.00415039062,-194.93578567504883,-2.423442535400391,-3.978289842605591,-2.72512854218483,-6.095938936526546,-1.6025352263354713,0.0,-0.00865936279296875,-70.9375,-3.11737060546875,0.3356934189796448,120.84963083267212,-821.796913298457,1,1789162772.0426521,38.99141222,-76.936663485,-11.818000000000001,0,1,20.403289000000004,21.613201,173.554276,1,1,1789162772.5111308,-0.9911854079138082,0.12561572072267524,-0.00604734095370771,-0.0416606230564313,175.34889520210118,-1.2866579733235814,-14.393247896916183,-0.0021425661897482387,0.12318516407283459,-0.07175380167506568,-2.93356132938385,1.3877390643882752,-6.271450844936371
2026-09-11T17:39:32.558,1.7043666879999932,-284.7142639160156,-25624.283752441406,-102497.13500976562,-195.02927078247072,-2.516927642822266,-4.056886672973633,-2.7789673709869387,-6.216372966595686,-1.610956273021249,0.0,-0.00753021240234375,-61.6875,-2.71087646484375,0.015258795581758022,5.493166409432888,-3451.676496887164,1,1789162772.0426521,38.99141222,-76.936663485,-11.818000000000001,0,1,20.403289000000004,21.613201,173.554276,1,1,1789162772.551131,-0.9913204474443952,0.1250467684443987,-0.007379030832099053,-0.03990771960706398,175.56657670089453,-1.4102276725979328,-14.324231919881106,0.013259091794475722,0.1550370738558807,-0.035829689681266395,-1.1942538566970826,-0.9720351640319824,-10.327775551338195
2026-09-11T17:39:32.591,1.7377814080000462,-284.8493957519531,-25636.44561767578,-102545.78247070312,-195.1218360900879,-2.6094929504394533,-4.084594249725342,-2.7979470610618593,-6.2588293241362205,-0.5680038640123435,0.0,-0.0058193206787109375,-47.671875,-2.0949554443359375,0.2288818508386612,82.39746630191803,2301.509630856199,1,1789162772.0426521,38.99141222,-76.936663485,-11.818000000000001,0,1,20.403289000000004,21.613201,173.554276,1,1,1789162772.5831308,-0.9912613811149754,0.1252645555164152,-0.011146090949200388,-0.03981745971126918,175.63064169622942,-1.8379519514635099,-14.334330626191848,-0.08476680204501019,0.10920298236925761,0.016936151462577376,0.4703269417572022,1.514440984477997,-7.397254283504487
2026-09-11T17:39:32.624,1.7712072639999974,-284.98602294921875,-25648.742065429688,-102594.96826171875,-195.21542572021485,-2.7030825805664063,-4.085719108581543,-2.798717589378357,-6.26055294689145,-0.023051864894617684,0.0,0.005901337135583162,48.343753814697266,2.1244813688099384,0.6256104111671448,225.21974802017212,4272.8085024498005,1,1789162772.0426521,38.99141222,-76.936663485,-11.818000000000001,0,1,20.403289000000004,21.613201,173.554276,1,1,1789162772.611131,-0.9912862399898535,0.12540107273308923,-0.010111739296143023,-0.0390373422837133,175.7050026235115,-1.7098398163396917,-14.35550577904904,0.01630696026723342,0.056171153047409904,0.02983081850923668,-1.2115135609817504,0.27291907400131227,-9.047125106716155
2026-09-11T17:39:32.658,1.8046353920000229,-285.12115478515625,-25660.903930664062,-102643.61572265625,-195.30799102783206,-2.795647888183594,-4.03533411026001,-2.7642038655281067,-6.183347945436882,1.032475520323008,0.0,0.0249862689524889,204.68751525878906,8.995056822896004,0.7934570908546448,285.6445527076721,1807.603605187043,1,1789162772.0426521,38.99141222,-76.936663485,-11.818000000000001,0,1,20.403289000000004,21.613201,173.554276,1,1,1789162772.651131,-0.9911920911808201,0.12681038418442858,-0.01048828488872521,-0.03670641256896892,175.97808949115685,-1.7249390732973078,-14.520746158601288,0.02609197418561443,0.027382470634539035,0.09665266878401678,-0.7050981466293336,-1.1112895963287355,-9.074877926673889
2026-09-11T17:39:32.691,1.8380522880000285,-285.2548828125,-25672.939453125,-102691.7578125,-195.39959472656253,-2.8872515869140627,-4.010997772216797,-2.747533473968506,-6.146057341554454,0.4988611617188471,0.0,0.038999561220407486,319.4844055175781,14.039842039346695,0.0152588477358222,5.493185184895992,-8383.524535693827,1,1789162772.0426521,38.99141222,-76.936663485,-11.818000000000001,0,1,20.403289000000004,21.613201,173.554276,1,1,1789162772.683131,-0.991026924185315,0.12869758471506004,-0.008325795354922652,-0.035117636025386506,176.13050842927802,-1.463566968350367,-14.74892664362229,0.04599326551440497,0.006676407987653909,0.13235320410063559,-3.319943345756531,-0.43227713912963867,-7.876897542915344
2026-09-11T17:39:32.724,1.8714714559999948,-285.3870544433594,-25684.834899902344,-102739.33959960938,-195.49013229370118,-2.9777891540527346,-3.934652805328369,-2.695237171649933,-6.029073844957789,1.5648594937679412,0.0,0.05084610357880592,416.5312805175781,18.304597288370132,0.4272461533546448,153.80861520767212,4438.0347835986195,1,1789162772.0426521,38.99141222,-76.936663485,-11.818000000000001,0,1,20.403289000000004,21.613201,173.554276,1,1,1789162772.7111309,-0.9907865202726779,0.13095873739438324,-0.00875396975480662,-0.03339533439807349,176.33606034830117,-1.4952143860961584,-15.011197255899807,0.02543258879421097,0.018182665614351726,0.1547028433041238,-0.5315204387664795,-0.6007553889083862,-11.021497983779907
2026-09-11T17:39:32.758,1.9048872000000188,-285.5195617675781,-25696.76055908203,-102787.04223632812,-195.58089981079104,-3.0685566711425785,-3.9363486766815186,-2.6963988435268402,-6.031672430938702,-0.03476420806031894,0.0,0.05927276983857155,485.5625305175781,21.338197141885757,-0.0762939527630806,-27.465822994709015,-5424.821251989808,1,1789162772.0426521,38.99141222,-76.936663485,-11.818000000000001,0,1,20.403289000000004,21.613201,173.554276,1,1,1789162772.7511308,-0.990423335759172,0.1343252155318465,-0.006199157873625561,-0.031303720188747414,176.539788350717,-1.1854964002453063,-15.411310200947804,0.06278821984049601,-0.08198509628318164,0.1266864690852604,-2.446857281856537,0.9350640929222107,-9.603750569896699
2026-09-11T17:39:32.791,1.9383047360000205,-285.65106201171875,-25708.595581054688,-102834.38232421875,-195.67097747802737,-3.1586343383789064,-3.9105231761932373,-2.6787083756923677,-5.99209998141635,0.5293767869202431,0.0,0.051931384950876236,425.4219055175781,18.695298582315445,-0.3967285454273224,-142.82227635383606,-3451.9736392031123,1,1789162772.0426521,38.99141222,-76.936663485,-11.818000000000001,0,1,20.403289000000004,21.613201,173.554276,1,1,1789162772.783131,-0.9900361550314992,0.1371723662012734,-0.008270679942319985,-0.030720506741926362,176.64181514303306,-1.421342006535952,-15.734881745962388,0.013190151289021946,-0.06172688512235826,0.1549730202723325,2.6734889670944213,-0.20064406230926513,-10.39446077243805
2026-09-11T17:39:32.824,1.9717235200000118,-285.7821350097656,-25720.392150878906,-102881.56860351562,-195.76076248168945,-3.2484193420410157,-3.91104793548584,-2.6790678358078006,-5.992904070794107,-0.01075622965314827,0.0,0.030277255922555923,248.03128051757812,10.899812132120132,-0.7629395127296448,-274.6582245826721,-3944.965449038191,1,1789162772.0426521,38.99141222,-76.936663485,-11.818000000000001,0,1,20.403289000000004,21.613201,173.554276,1,1,1789162772.811131,-0.9898781040376694,0.13870669125264215,-0.008426296639801375,-0.028823436184316042,176.8619182089904,-1.4140899493775556,-15.91453522711421,0.029322055032280334,-0.0171445437752655,0.07592426592270612,-0.2566400347328186,-1.480215775413513,-8.940134553451538
2026-09-11T17:39:32.858,2.0051422720000005,-285.910888671875,-25731.97998046875,-102927.919921875,-195.8489587402344,-3.336615600585938,-3.8589606285095215,-2.6433880305290223,-5.913090619472574,1.0676582201151747,0.0,0.015028003603219986,123.10940551757812,5.410081297159195,-0.7781983017921448,-280.1513886451721,-164.3737043951211,1,1789162772.0426521,38.99141222,-76.936663485,-11.818000000000001,0,1,20.403289000000004,21.613201,173.554276,1,1,1789162772.851131,-0.9897914861054015,0.13968253130228453,-0.011726127660216166,-0.02577018456168188,177.26248694660484,-1.7427555176668652,-16.02379075274893,-0.00532779207463789,0.0917514351785663,-0.01478957101554955,2.030270782985687,-1.8423753658866884,-11.24557993997574
2026-09-11T17:39:32.891,2.0385598720000075,-286.0370178222656,-25743.331604003906,-102973.32641601562,-195.93535720825196,-3.423014068603516,-3.8076257705688477,-2.6082236528396607,-5.834430146831733,1.0522711891145422,0.0,-0.012796401977539062,-104.828125,-4.6067047119140625,-0.13732922077178955,-49.43851947784424,6903.932932564854,1,1789162772.0426521,38.99141222,-76.936663485,-11.818000000000001,0,1,20.403289000000004,21.613201,173.554276,1,1,1789162772.883131,-0.9898088018527127,0.13944698167715033,-0.014430087553578962,-0.024996952798808016,177.39279112833015,-2.0365807175846453,-15.992069866280326,0.03261112800766365,0.04066652063731828,-0.03382046664637052,1.7239110319328308,0.7916908675575256,-6.917414891090393
2026-09-11T17:39:32.925,2.0719856320000076,-286.1620178222656,-25754.581604003906,-103018.32641601562,-196.02098220825198,-3.508639068603516,-3.7567732334136963,-2.5733896648883823,-5.756508734986532,1.0421300204177368,0.0,-0.012201309204101562,-99.953125,-4.3924713134765625,-0.3814697563648224,-137.32911229133606,-2629.4269094701694,1,1789162772.0426521,38.99141222,-76.936663485,-11.818000000000001,0,1,20.403289000000004,21.613201,173.554276,1,1,1789162772.923131,-0.9900985268706941,0.13781754076321517,-0.013282397621155021,-0.023125969382805502,177.58395795898193,-1.8725355521723412,-15.809336211864588,-0.02769802616329961,0.018112154312571155,-0.1122232746398338,-1.5294451592254636,-0.3616692579650879,-6.342156792602538
2026-09-11T17:39:32.959,2.105402816000037,-286.2850646972656,-25765.655822753906,-103062.62329101562,-196.10526931762698,-3.5929261779785158,-3.706339120864868,-2.538842297792435,-5.679228475734682,1.0338204169422784,0.0,-0.020946502685546875,-171.59375,-7.540740966796875,-0.2288818657398224,-82.39747166633606,1643.8141713242971,1,1789162772.0426521,38.99141222,-76.936663485,-11.818000000000001,0,1,20.403289000000004,21.613201,173.554276,1,1,1789162772.9511309,-0.9903017918042958,0.13645263610863761,-0.012693711889290159,-0.02284532614511207,177.60411273730386,-1.7979972203302117,-15.653046486972636,-0.03231442203482461,0.031183623212457486,-0.07749802930922942,2.292402541809082,0.029027684478759766,-10.268151118354798
2026-09-11T17:39:32.992,2.138824896000017,-286.4049377441406,-25776.444396972656,-103105.77758789062,-196.18738235473634,-3.675039215087891,-3.62965989112854,-2.48631702542305,-5.561732787721563,1.5715740124318027,0.0,-0.02730560302734375,-223.6875,-9.83001708984375,-0.1831054985523224,-65.91797947883606,493.07201070400026,1,1789162772.0426521,38.99141222,-76.936663485,-11.818000000000001,0,1,20.403289000000004,21.613201,173.554276,1,1,1789162772.983131,-0.9905606956518018,0.13471567691685735,-0.013974865299343176,-0.021116291400640884,177.81708200005923,-1.912618768989657,-15.452913153344612,-0.02439010363199476,-0.019543324299206504,-0.11867540781860643,3.2179541840744017,-1.360672709941864,-5.7705271546745305
2026-09-11T17:39:33.026,2.172253151999996,-286.52471923828125,-25787.224731445312,-103148.89892578125,-196.26943267822267,-3.757089538574219,-3.577880382537842,-2.4508480620384216,-5.482390976284939,1.0610473781417251,0.0,-0.0322265625,-264.0,-11.6015625,-0.1831054985523224,-65.91797947883606,0.0,1,1789162772.0426521,38.99141222,-76.936663485,-11.818000000000001,0,1,20.403289000000004,21.613201,173.554276,1,1,1789162773.023131,-0.9908596421187756,0.1321529439052906,-0.01537462065080272,-0.022279813223209568,177.70094834436475,-2.08355428195799,-15.1518289376609,-0.01845546057643844,-0.06724875780981791,-0.17121016736948616,1.3264475008773804,1.7942247135925293,-10.629918442821502
2026-09-11T17:39:33.058,2.205667808000044,-286.6438903808594,-25797.950134277344,-103191.80053710938,-196.35106491088868,-3.838721771240235,-3.552785873413086,-2.4336583232879643,-5.443938625823106,0.5144371006073757,0.0,-0.03328514099121094,-272.671875,-11.982650756835938,-0.1373291164636612,-49.43848192691803,493.1817209758053,1,1789162773.0463514,38.99140893,-76.936648325,-11.718000000000004,0,1,15.366399999999999,6.734025000000001,62.410000000000004,1,1,1789162773.051131,-0.9911011554321499,0.13061417974142453,-0.013994869813082038,-0.021507658413856715,177.7649907259192,-1.9116888014392157,-14.977848209097571,0.015189949545957048,-0.053988095219015396,-0.1481412779812511,-2.6673107774925233,1.2209279451370239,-6.141904996299743
2026-09-11T17:39:33.092,2.2390867200000457,-286.7657165527344,-25808.914489746094,-103235.65795898438,-196.43451583862307,-3.9221726989746095,-3.6058318614959717,-2.469994825124741,-5.525221065508093,-1.08730355544712,0.0,-0.033782958984375,-276.75,-12.161865234375,0.0,0.0,1479.356417315896,1,1789162773.0463514,38.99140893,-76.936648325,-11.718000000000004,0,1,15.366399999999999,6.734025000000001,62.410000000000004,1,1,1789162773.0831308,-0.9912762967657699,0.12900621471738186,-0.014995446454831281,-0.022446305269562962,177.66984732160114,-2.035613666612277,-14.788369592483004,-0.06812159696874028,0.042796694989377354,-0.08039370507121321,6.3580435658645635,0.5419154879379272,-9.390848194885255
2026-09-11T17:39:33.126,2.2725078080000003,-286.88763427734375,-25819.887084960938,-103279.54833984375,-196.51802947998047,-4.005686340332032,-3.607013463973999,-2.4708042228221894,-5.527031636592222,-0.024218173192018414,0.0,-0.033355712890625,-273.25,-12.008056640625,0.0457763709127903,16.479493528604507,493.0866861254458,1,1789162773.0463514,38.99140893,-76.936648325,-11.718000000000004,0,1,15.366399999999999,6.734025000000001,62.410000000000004,1,1,1789162773.123131,-0.9914584313369845,0.1269515517957085,-0.018032161666435217,-0.02383953802201721,177.55096192722695,-2.3961897252811375,-14.54226894151628,-0.022068292128066703,0.019469496871847146,-0.09100862304891752,2.0185028027915957,2.0111478151702884,-11.126625273513794
2026-09-11T17:39:33.159,2.3059283520000236,-287.0137634277344,-25831.238708496094,-103324.95483398438,-196.60442794799806,-4.092084808349609,-3.712660789489746,-2.5431726408004764,-5.688915177166414,-2.1653871935249387,0.0,-0.029321670532226562,-240.203125,-10.555801391601562,0.1831054985523224,65.91797947883606,1479.284297412907,1,1789162773.0463514,38.99140893,-76.936648325,-11.718000000000004,0,1,15.366399999999999,6.734025000000001,62.410000000000004,1,1,1789162773.151131,-0.991591441170485,0.12585275282298033,-0.01653191378379979,-0.025183213277169162,177.3739700646856,-2.242244563848555,-14.415208650900983,0.06252834031487405,0.029651224129206465,-0.10363328766029331,-3.663470300922394,1.0097907671546937,-11.39483715543747
2026-09-11T17:39:33.192,2.3393460480000385,-287.14227294921875,-25842.804565429688,-103371.21826171875,-196.69245697021486,-4.180113830566406,-3.817995548248291,-2.6153269505500796,-5.850319771273436,-2.159164705716719,0.0,-0.01807403564453125,-148.0625,-6.50665283203125,0.7781983017921448,280.1513886451721,6410.777366765201,1,1789162773.0463514,38.99140893,-76.936648325,-11.718000000000004,0,1,15.366399999999999,6.734025000000001,62.410000000000004,1,1,1789162773.1821308,-0.9917079343902673,0.1247568760962269,-0.016041946032639864,-0.026339147700448966,177.23300615568508,-2.2001158694103995,-14.287146604212996,0.00923680600032959,0.03822271061867582,-0.056850958791061695,-1.504732400817871,1.0277369369506837,-8.382038092746734
2026-09-11T17:39:33.226,2.372765856000001,-287.2738952636719,-25854.65057373047,-103418.60229492188,-196.78261825561526,-4.270275115966797,-3.9226465225219727,-2.6870128679275513,-6.010676601484316,-2.1450128432082107,0.0,-0.007419586181640625,-60.78125,-2.671051025390625,-0.0762939527630806,-27.465822994709015,-9204.637310909375,1,1789162773.0463514,38.99140893,-76.936648325,-11.718000000000004,0,1,15.366399999999999,6.734025000000001,62.410000000000004,1,1,1789162773.223131,-0.9917669032885593,0.12363133149685175,-0.015485994782394664,-0.029561586211448925,176.85592263254534,-2.1792817081280784,-14.15158848058562,0.06988769563883333,-0.004527035013822892,-0.08365136212006062,-2.82284424905777,2.8146066629219053,-9.508135730819703
2026-09-11T17:39:33.259,2.406177344000014,-287.412841796875,-25867.15576171875,-103468.623046875,-196.8777966308594,-4.365453491210938,-4.106138706207275,-2.812705013751984,-6.291841924105182,-3.761943970420708,0.0,-0.0072765350341796875,-59.609375,-2.6195526123046875,0.030517593026161194,10.98633348941803,1150.8663272977299,1,1789162773.0463514,38.99140893,-76.936648325,-11.718000000000004,0,1,15.366399999999999,6.734025000000001,62.410000000000004,1,1,1789162773.2511308,-0.9917351548356114,0.12367713417512834,-0.015196418331132312,-0.03056825175436402,176.7373746285086,-2.1607252756370263,-14.155522211784316,-0.003583160954344359,-0.07052107562438209,-0.01287162870053298,-0.5325991702842712,0.6607720878982544,-9.289349365711212
2026-09-11T17:39:33.292,2.439594272000022,-287.5525817871094,-25879.732360839844,-103518.92944335938,-196.97351852416995,-4.461175384521485,-4.2358479499816895,-2.9015558457374575,-6.490595574752716,-2.658856971695654,0.0,-0.007293701171875,-59.75,-2.625732421875,0.0,0.0,-328.76551337739085,1,1789162773.0463514,38.99140893,-76.936648325,-11.718000000000004,0,1,15.366399999999999,6.734025000000001,62.410000000000004,1,1,1789162773.283131,-0.9918341446226288,0.12327888982135461,-0.0122629273183796,-0.030281438187388866,176.7281423187746,-1.8218374554892833,-14.118316226592256,-0.04265113452976103,-0.13323634070214474,-0.01462987338899207,-5.643432968578339,1.220437612628937,-9.886378227558136
2026-09-11T17:39:33.326,2.473008256000014,-287.6966857910156,-25892.701721191406,-103570.80688476562,-197.0722297668457,-4.559886627197266,-4.31423282623291,-2.9552494859695435,-6.610704827240382,-1.6069212289111872,0.0,-0.00531768798828125,-43.5625,-1.91436767578125,0.1983642727136612,71.41113817691803,2137.1632361150046,1,1789162773.0463514,38.99140893,-76.936648325,-11.718000000000004,0,1,15.366399999999999,6.734025000000001,62.410000000000004,1,1,1789162773.3231308,-0.991821654032715,0.12318258232898774,-0.01154353790759533,-0.03134652668394732,176.59667864488074,-1.754725715385576,-14.107437234443335,0.0202224319111575,-0.0904611132625669,-0.015754912624827613,1.033522860546112,1.0931472935295106,-8.465296552619934
2026-09-11T17:39:33.359,2.506429216000015,-287.8450012207031,-25906.05010986328,-103624.20043945312,-197.17382583618166,-4.661482696533204,-4.418778419494629,-3.0268632173538212,-6.770900181983308,-2.142779004082347,0.0,-0.003986358642578125,-32.65625,-1.435089111328125,0.0762939527630806,27.465822994709015,-1314.902838883381,1,1789162773.0463514,38.99140893,-76.936648325,-11.718000000000004,0,1,15.366399999999999,6.734025000000001,62.410000000000004,1,1,1789162773.351131,-0.9918564657889962,0.12309121915070884,-0.006928608867975662,-0.03195774428379961,176.4623911410824,-1.2383617085636078,-14.110440468115996,-0.06743550803978131,-0.1369343443212703,-0.037805751460374376,-0.342154024143219,0.5604500567436218,-3.875195877914429
2026-09-11T17:39:33.392,2.5398457599999915,-287.99420166015625,-25919.478149414062,-103677.91259765625,-197.27602813720705,-4.763684997558594,-4.497915744781494,-3.0810722851753236,-6.892162413151665,-1.6222224483040637,0.0,-0.0045490264892578125,-37.265625,-1.6376495361328125,0.0,0.0,-821.9229072500233,1,1789162773.0463514,38.99140893,-76.936648325,-11.718000000000004,0,1,15.366399999999999,6.734025000000001,62.410000000000004,1,1,1789162773.383131,-0.9918050787701802,0.12377463409291495,-0.0065026851698930695,-0.030987751877522157,176.5676174216412,-1.178645145339859,-14.191850119864876,-0.03874089887359293,-0.16152481175139402,-0.006510427175789249,-0.2184921656036377,1.0286195354652405,-14.208757352848053
2026-09-11T17:39:33.426,2.5732588160000205,-288.1450500488281,-25933.05450439453,-103732.21801757812,-197.3793592834473,-4.867016143798828,-4.525162696838379,-3.0997364473342897,-6.9339129548458445,-0.5585888988708445,0.0,-0.0051593780517578125,-42.265625,-1.8573760986328125,0.0,0.0,0.0,1,1789162773.0463514,38.99140893,-76.936648325,-11.718000000000004,0,1,15.366399999999999,6.734025000000001,62.410000000000004,1,1,1789162773.423131,-0.991835557317628,0.12361045511994356,-0.005880102774563301,-0.030791346460188836,176.58100561831665,-1.1045279106131343,-14.175089605880762,0.07433706350094248,0.035342917352885174,-0.041641636090407504,-1.3624379069709778,1.602406636428833,-9.475675718784332
2026-09-11T17:39:33.459,2.6066788159999987,-288.3006286621094,-25947.056579589844,-103788.22631835938,-197.48593063354494,-4.973587493896485,-4.6561598777771,-3.1894695162773137,-7.134640113361915,-2.6850110395895403,0.0,-0.006195068359375,-50.75,-2.230224609375,-0.0457763709127903,-16.479493528604507,-493.10273873773895,1,1789162773.0463514,38.99140893,-76.936648325,-11.718000000000004,0,1,15.366399999999999,6.734025000000001,62.410000000000004,1,1,1789162773.4511309,-0.9918090010473039,0.12359887458147854,-0.006228691383524073,-0.03161371612749639,176.49232375851136,-1.1557447808307177,-14.17172461949378,0.038712624539710624,0.05634219531410535,-0.02501807309686232,0.08816178495407104,0.9877258042907715,-8.00301106399536
2026-09-11T17:39:33.493,2.640097504000039,-288.45794677734375,-25961.215209960938,-103844.86083984375,-197.59369354248048,-5.081350402832031,-4.683147430419922,-3.2079559898376466,-7.175993176981127,-0.5531777178179677,0.0,-0.007871627807617188,-64.484375,-2.8337860107421875,-0.015258795581758022,-5.493166409432888,328.748008274843,1,1789162773.0463514,38.99140893,-76.936648325,-11.718000000000004,0,1,15.366399999999999,6.734025000000001,62.410000000000004,1,1,1789162773.483131,-0.9918567305003299,0.12315082630851956,-0.006825052811431118,-0.03174143655926922,176.48562994755963,-1.2237542726937694,-14.117918350036687,0.06842982211464248,0.05364461442222291,-0.06315648431266681,-1.5066937308502197,0.8092447713470459,-9.524807036094666
2026-09-11T17:39:33.527,2.6735160960000144,-288.6172790527344,-25975.555114746094,-103902.22045898438,-197.70283615112305,-5.19049301147461,-4.762682914733887,-3.2624377965927125,-7.297865507768228,-1.6302843266139373,0.0,-0.009685516357421875,-79.34375,-3.486785888671875,-0.0915527418255806,-32.958987057209015,-821.8724669129183,1,1789162773.0463514,38.99140893,-76.936648325,-11.718000000000004,0,1,15.366399999999999,6.734025000000001,62.410000000000004,1,1,1789162773.523131,-0.9919090739250979,0.1224268360088946,-0.010718336695772327,-0.03183042802700283,176.52879381708186,-1.665079435187207,-14.021887954968697,-0.015293622103525513,0.15141691192139406,-0.05809921827208804,0.42600088302612305,1.2705495949554444,-11.05582125934601
2026-09-11T17:39:33.559,2.7069350720000216,-288.7765197753906,-25989.886779785156,-103959.54711914062,-197.81191604614258,-5.2995729064941415,-4.842557907104492,-3.3171521663665775,-7.420258067212272,-1.6372246047830195,0.0,-0.010568618774414062,-86.578125,-3.8047027587890625,0.015258791856467724,5.493165068328381,1150.6083287988567,1,1789162773.0463514,38.99140893,-76.936648325,-11.718000000000004,0,1,15.366399999999999,6.734025000000001,62.410000000000004,1,1,1789162773.551131,-0.9919388420169832,0.12160821992425593,-0.011765804891681619,-0.03362053509554604,176.3380761367793,-1.806203938102976,-13.921024163292882,-0.023289499005687133,0.15727179343013425,-0.10558369309939697,-0.34176175813674925,0.762467050075531,-6.984296245193482
2026-09-11T17:39:33.593,2.7403584639999963,-288.94000244140625,-26004.600219726562,-104018.40087890625,-197.9239016723633,-5.411558532714844,-4.844010353088379,-3.31814709186554,-7.422483652168791,-0.02976734075832427,0.0,-0.009275436401367188,-75.984375,-3.3391571044921875,0.0762939527630806,27.465822994709015,657.4035910657207,1,1789162773.0463514,38.99140893,-76.936648325,-11.718000000000004,0,1,15.366399999999999,6.734025000000001,62.410000000000004,1,1,1789162773.5831308,-0.9920149977866033,0.12081688341538914,-0.01368341153762005,-0.03350058353118629,176.3765463635106,-2.0197032150564107,-13.823747856359143,0.009471552784722828,0.10918570360966287,-0.07735351604716428,-0.49837396121978755,0.9389867529869079,-11.4737806892395
2026-09-11T17:39:33.627,2.7737850560000084,-289.1023254394531,-26019.20928955078,-104076.83715820312,-198.0350929260254,-5.522749786376954,-4.845341682434082,-3.3190590524673467,-7.424523649935896,-0.0272824882000098,0.0,-0.008205413818359375,-67.21875,-2.953948974609375,0.1373291164636612,49.43848192691803,657.3406864870063,1,1789162773.0463514,38.99140893,-76.936648325,-11.718000000000004,0,1,15.366399999999999,6.734025000000001,62.410000000000004,1,1,1789162773.623131,-0.9921441653015035,0.12038520028201735,-0.013278240294638213,-0.031321672144365285,176.61826746937163,-1.9420793502714422,-13.779381462405592,0.06200159994662217,-0.011823558484710386,-0.024487493004256043,0.07521700674057007,0.04785645278930664,-4.923526780204773
2026-09-11T17:39:33.660,2.8072081920000187,-289.26507568359375,-26033.856811523438,-104135.42724609375,-198.14657684326173,-5.6342337036132815,-4.872614860534668,-3.337741179466248,-7.466314377832508,-0.5589579325798596,0.0,-0.0038509368896484375,-31.546875,-1.3863372802734375,0.1525879055261612,54.93164598941803,164.35214405070488,1,1789162773.0463514,38.99140893,-76.936648325,-11.718000000000004,0,1,15.366399999999999,6.734025000000001,62.410000000000004,1,1,1789162773.651131,-0.992140869212354,0.12043704955823815,-0.012622284558933015,-0.031497470767891354,176.5893938083021,-1.8700705506243414,-13.786983223555824,-0.07091691629873441,-0.10813204834023388,-0.02519260602206175,-0.10169496217727662,-0.2797837291145325,-6.279296165065766
2026-09-11T17:39:33.693,2.84062835200001,-289.4296569824219,-26048.66912841797,-104194.67651367188,-198.259315032959,-5.746971893310548,-4.925174236297607,-3.3737443518638615,-7.5468511807978205,-1.0772890494127707,0.0,-0.002780914306640625,-22.78125,-1.001129150390625,-0.0457763709127903,-16.479493528604507,-2136.768331391613,1,1789162773.0463514,38.99140893,-76.936648325,-11.718000000000004,0,1,15.366399999999999,6.734025000000001,62.410000000000004,1,1,1789162773.683131,-0.9921202985334122,0.12087938120715176,-0.012457283114008512,-0.030500893992907216,176.70143102607116,-1.8390579550087114,-13.84033616997477,-0.054237328236200186,-0.09231866718546446,0.025502052898440347,1.5959342473220826,-0.6874461763381957,-11.515655085430145
2026-09-11T17:39:33.727,2.8740482560000373,-289.5942077636719,-26063.47869873047,-104253.91479492188,-198.37203231811526,-5.859689178466797,-4.950719833374023,-3.3912430858612064,-7.5859947339414875,-0.5236021622722407,0.0,-0.00481414794921875,-39.4375,-1.73309326171875,0.0,0.0,493.1041551941957,1,1789162773.0463514,38.99140893,-76.936648325,-11.718000000000004,0,1,15.366399999999999,6.734025000000001,62.410000000000004,1,1,1789162773.723131,-0.9921683870937555,0.12048239387085277,-0.008822048821701274,-0.03174989564568769,176.508758777086,-1.4415146528800378,-13.8035103243961,-0.06991998422999524,-0.14036531256484075,-0.02375253485624123,-2.287106950721741,0.948303070640564,-5.739145874156952
2026-09-11T17:39:33.760,2.9074650880000377,-289.75946044921875,-26078.351440429688,-104313.40576171875,-198.48523040771485,-5.9728872680664065,-4.925318241119385,-3.373842995166779,-7.547071839582085,0.5206983921883201,0.0,-0.010297775268554688,-84.359375,-3.7071990966796875,-0.2441406548023224,-87.89063572883606,-2630.1306996676153,1,1789162773.0463514,38.99140893,-76.936648325,-11.718000000000004,0,1,15.366399999999999,6.734025000000001,62.410000000000004,1,1,1789162773.7511308,-0.9922872798634144,0.11962764106187704,-0.009311773026813764,-0.031120292388307776,176.58586345040501,-1.4855940389479199,-13.704239545988262,-0.027885474524963802,-0.17419572758794763,-0.12020990129695985,0.27821466508865356,0.30282935699462893,-10.848312541923523
2026-09-11T17:39:33.794,2.940886304000003,-289.9252624511719,-26093.27362060547,-104373.09448242188,-198.59880477905276,-6.086461639404297,-4.95237922668457,-3.392379770278931,-7.588537424568108,-0.5546409535838319,0.0,-0.025850296020507812,-211.765625,-9.306106567382812,-0.5493164658546448,-197.75392770767212,-3287.232037845378,1,1789162773.0463514,38.99140893,-76.936648325,-11.718000000000004,0,1,15.366399999999999,6.734025000000001,62.410000000000004,1,1,1789162773.783131,-0.9925930204353073,0.11770292014688116,-0.005433811517068587,-0.029590404938212824,176.70526054059707,-1.0172185871126274,-13.49599509081412,0.03399814116422355,-0.15592370111589382,-0.17745582809774785,-1.4744298518180847,0.6375303270149231,-12.643419854030608
2026-09-11T17:39:33.827,2.974305664000042,-290.0885925292969,-26107.97332763672,-104431.89331054688,-198.71068588256838,-6.198342742919922,-4.900505065917969,-3.3568459701538087,-7.509050577473615,1.063269916751271,0.0,-0.050510406494140625,-413.78125,-18.183746337890625,-0.6408692002296448,-230.71291208267212,-986.2242836176863,1,1789162773.0463514,38.99140893,-76.936648325,-11.718000000000004,0,1,15.366399999999999,6.734025000000001,62.410000000000004,1,1,1789162773.8231308,-0.9930488870960338,0.11397980677214822,-0.004308756513569235,-0.029050750469120083,176.7483267640281,-0.8697838880221619,-13.070555804554491,-0.015005817309871649,-0.13206190864847772,-0.26879676183624507,-0.7373620256614686,1.9003326683425905,-12.143771028289796
2026-09-11T17:39:33.860,3.0077252480000425,-290.2500915527344,-26122.508239746094,-104490.03295898438,-198.82131271362306,-6.3089695739746094,-4.8238372802734375,-3.3043285369873048,-7.391572425257921,1.5714568190466667,0.0,-0.07221603393554688,-591.59375,-25.997772216796875,-0.9918213486671448,-357.0556855201721,-3780.5010809678984,1,1789162773.0463514,38.99140893,-76.936648325,-11.718000000000004,0,1,15.366399999999999,6.734025000000001,62.410000000000004,1,1,1789162773.851131,-0.9935628496443765,0.11010690516282343,-0.0027143868984972875,-0.026494628621216907,177.01619454513852,-0.6433483551051464,-12.630705297646905,0.07130944084750791,-0.012792041686642039,-0.29131709424057833,-3.169607398777008,0.6574378268432618,-13.026075343341827
2026-09-11T17:39:33.894,3.0411451840000154,-290.4099426269531,-26136.89483642578,-104547.57934570312,-198.9308106994629,-6.418467559814454,-4.7987961769104,-3.2871753811836246,-7.353201908517406,0.51326118050298,0.0,-0.08875274658203125,-727.0625,-31.95098876953125,-0.24414074420928955,-87.89066791534424,8054.025525514045,1,1789162773.0463514,38.99140893,-76.936648325,-11.718000000000004,0,1,15.366399999999999,6.734025000000001,62.410000000000004,1,1,1789162773.883131,-0.9942118617393968,0.10438713950202753,-0.006090732910715513,-0.0246779670126465,177.25988557836223,-0.9891509077029269,-11.963946124797717,-0.0020476202784397474,0.08669905605989311,-0.39507814000211766,0.9019176153755187,-1.7102797882080079,-9.37417688961029
2026-09-11T17:39:33.928,3.0745598400000063,-290.56640625,-26150.9765625,-104603.90625,-199.03798828125002,-6.525645141601563,-4.72260046005249,-3.234981315135956,-7.236447107945491,1.5620111740094846,0.0,-0.11574935913085938,-948.21875,-41.669769287109375,-0.5187989473342896,-186.76762104034424,-2959.0893626146308,1,1789162773.0463514,38.99140893,-76.936648325,-11.718000000000004,0,1,15.366399999999999,6.734025000000001,62.410000000000004,1,1,1789162773.923131,-0.9950572367926983,0.09570738534344722,-0.009644422570897414,-0.02466124511201046,177.29198819403803,-1.3703037071540816,-10.955545509832039,-0.012122358852651815,0.1647966059671826,-0.461620213997803,4.319437130241394,0.19858466577529907,-9.388886864852905
2026-09-11T17:39:33.961,3.1079814080000006,-290.7233581542969,-26165.10223388672,-104660.40893554688,-199.14550033569338,-6.633157196044922,-4.698672771453857,-3.2185908484458925,-7.199782678162779,0.4904158503295293,0.0,-0.11947250366210938,-978.71875,-43.010101318359375,0.13732899725437164,49.43843901157379,7067.473915405715,1,1789162773.0463514,38.99140893,-76.936648325,-11.718000000000004,0,1,15.366399999999999,6.734025000000001,62.410000000000004,1,1,1789162773.9511309,-0.9956171340142563,0.08895538631164746,-0.014914106561018957,-0.024719043850240437,177.32932941590647,-1.9538934303744324,-10.16574562764594,-0.015861726775049666,0.19804512821767456,-0.4984969266973408,2.991028299331665,0.5285784437179566,-9.831166787147522
2026-09-11T17:39:33.994,3.1414057920000005,-290.881103515625,-26179.29931640625,-104717.197265625,-199.25355590820314,-6.741212768554688,-4.725883483886719,-3.2372301864624027,-7.241477689831781,-0.5576568895483678,0.0,-0.11928176879882812,-977.15625,-42.941436767578125,0.1373291164636612,49.43848192691803,0.001283953183349059,1,1789162773.0463514,38.99140893,-76.936648325,-11.718000000000004,0,1,15.366399999999999,6.734025000000001,62.410000000000004,1,1,1789162773.983131,-0.9962081474225497,0.0810932809250483,-0.01633089979680285,-0.02695382179895051,177.07151851147833,-2.1152389453300597,-9.253379496313267,-0.10066552980020214,0.049971918077251244,-0.5254643580357556,-0.8096370373535156,1.590148323726654,-9.448805497341155
2026-09-11T17:39:34.030,3.1748266239999907,-291.0390319824219,-26193.51287841797,-104774.05151367188,-199.361736907959,-6.849393768310548,-4.753967761993408,-3.2564679169654847,-7.2845112673708865,-0.5756209331678993,0.0,-0.11158943176269531,-914.140625,-40.17219543457031,0.3509521782398224,126.34278416633606,2301.0888011238167,1,1789162773.0463514,38.99140893,-76.936648325,-11.718000000000004,0,1,15.366399999999999,6.734025000000001,62.410000000000004,1,1,1789162774.023131,-0.9968282246820027,0.0721576912180273,-0.019349691575403716,-0.027428953887222482,177.02280597322732,-2.437814741009849,-8.217168697856446,-0.09658041215298421,-0.08436799431092949,-0.46821302071428644,1.976138074092865,0.38549941785812375,-8.496579766635895
2026-09-11T17:39:34.062,3.208246688000031,-291.2001953125,-26208.017578125,-104832.0703125,-199.47213378906253,-6.959790649414063,-4.754387378692627,-3.25675535440445,-7.285154246609803,-0.008600744719245651,0.0,-0.1035919189453125,-848.625,-37.2930908203125,0.2288818657398224,82.39747166633606,-1314.9380114875573,1,1789162774.0432856,38.99140681,-76.93662928333333,-11.673000000000002,0,1,20.412323999999998,21.641104000000002,173.7124,1,1,1789162774.051131,-0.9972032803178228,0.06638954053022017,-0.018521783856610734,-0.028896196191343357,176.8346671027796,-2.336985200143734,-7.553196313169831,0.03746576132208588,-0.12020588703968026,-0.40783457697201897,-3.5741317179489136,2.709283240184784,-3.692988317909241
2026-09-11T17:39:34.095,3.2416745280000328,-291.3604736328125,-26222.442626953125,-104889.7705078125,-199.5819244384766,-7.069581298828125,-4.832528114318848,-3.310281758308411,-7.404889402085736,-1.6012522467487724,0.0,-0.08221817016601562,-673.53125,-29.598541259765625,0.7781983017921448,280.1513886451721,5915.844905887616,1,1789162774.0432856,38.99140681,-76.93662928333333,-11.673000000000002,0,1,20.412323999999998,21.641104000000002,173.7124,1,1,1789162774.091131,-0.9976631635492285,0.058956515102880254,-0.01789093903744725,-0.029533975760597214,176.74017393699717,-2.2454636397268826,-6.699974316351309,0.02960671823328061,-0.09759235405329053,-0.3603220023437529,1.182780076007843,2.1480486514282227,-8.287796184692382
2026-09-11T17:39:34.128,3.2750930240000002,-291.5268249511719,-26237.41424560547,-104949.65698242188,-199.69587509155275,-7.183531951904297,-4.989080429077148,-3.417520093917847,-7.644774726909993,-3.208951582068214,0.0,-0.07889747619628906,-646.328125,-28.403091430664062,-0.1831054985523224,-65.91797947883606,-10355.623667933614,1,1789162774.0432856,38.99140681,-76.93662928333333,-11.673000000000002,0,1,20.412323999999998,21.641104000000002,173.7124,1,1,1789162774.123131,-0.9979383753980233,0.05348906097342821,-0.018010391056875505,-0.030553969923940872,176.61180486608978,-2.247437555348997,-6.069706577991083,-0.06437472413055885,0.00506930881241753,-0.32578280911141116,7.431871758575439,0.712943466758728,-10.634331435394287
2026-09-11T17:39:34.161,3.3085148800000184,-291.6932067871094,-26252.388610839844,-105009.55444335938,-199.80984664916994,-7.297503509521485,-5.042334079742432,-3.453998844623566,-7.7263753682524206,-1.0914639422089358,0.0,-0.07756805419921875,-635.4375,-27.92449951171875,0.0,0.0,1972.3015824974027,1,1789162774.0432856,38.99140681,-76.93662928333333,-11.673000000000002,0,1,20.412323999999998,21.641104000000002,173.7124,1,1,1789162774.151131,-0.9981969753102938,0.04864501685326087,-0.016291928790814265,-0.031161416415200885,176.52208596164735,-2.0376842873713894,-5.5180923098508465,-0.06575946835909115,-0.02361954076723926,-0.34643843174291367,-1.2219086101531982,1.1262937710762024,-10.86978910577774
2026-09-11T17:39:34.195,3.3419397119999985,-291.8617248535156,-26267.555236816406,-105070.22094726562,-199.92528152465823,-7.412938385009766,-5.069607257843018,-3.4726809716224674,-7.768166096149033,-0.5589295706531108,0.0,-0.07928276062011719,-649.484375,-28.541793823242188,-0.061035171151161194,-21.97266161441803,-657.375379311737,1,1789162774.0432856,38.99140681,-76.93662928333333,-11.673000000000002,0,1,20.412323999999998,21.641104000000002,173.7124,1,1,1789162774.1911309,-0.9984499031902286,0.04173623774316902,-0.019369958753027456,-0.03131584225874501,176.50452299435608,-2.3666378328417856,-4.71503449679513,-0.02327571090459638,-0.026286927463062194,-0.37700874625622033,-4.957850055770874,0.5887912757110596,-13.471395327186583
2026-09-11T17:39:34.228,3.375361343999998,-292.0330505371094,-26282.974548339844,-105131.89819335938,-200.04263961791995,-7.5302964782714845,-5.1224260330200195,-3.5088618326187135,-7.849100377189311,-1.0825581765799654,0.0,-0.08281326293945312,-678.40625,-29.812774658203125,-0.07629397511482239,-27.46583104133606,-164.35970053521316,1,1789162774.0432856,38.99140681,-76.93662928333333,-11.673000000000002,0,1,20.412323999999998,21.641104000000002,173.7124,1,1,1789162774.223131,-0.9986196625181407,0.03550717768798985,-0.0210620947170399,-0.032471497207839234,176.3638554303489,-2.5431625358117644,-3.991992912707373,0.01633401287063933,0.18904237087003742,-0.3912249766124897,4.692187902889252,-0.1995653307914734,-3.9775773056030275
2026-09-11T17:39:34.261,3.4087814720000438,-292.20458984375,-26298.4130859375,-105193.65234375,-200.16014404296877,-7.647800903320313,-5.149211883544922,-3.527210140228272,-7.89014437237891,-0.5490196689112987,0.0,-0.08463287353515625,-693.3125,-30.46783447265625,-0.015258795581758022,-5.493166409432888,657.4679974856213,1,1789162774.0432856,38.99140681,-76.93662928333333,-11.673000000000002,0,1,20.412323999999998,21.641104000000002,173.7124,1,1,1789162774.2511308,-0.9987610551653501,0.030310332218809258,-0.021012080182801877,-0.033408545795549374,176.24306013410347,-2.5216760725045786,-3.3938324172691146,-0.03184231047216015,0.010451206093867243,-0.4044165241649133,-0.9319259648704529,0.5213215225982666,-12.881133053951263
2026-09-11T17:39:34.295,3.442203328000005,-292.37774658203125,-26313.997192382812,-105255.98876953125,-200.27875640869144,-7.766413269042969,-5.1771321296691895,-3.546335508823395,-7.932926603488259,-0.5722413678984586,0.0,-0.08768081665039062,-718.28125,-31.565093994140625,-0.0762939602136612,-27.46582567691803,-657.4338441141807,1,1789162774.0432856,38.99140681,-76.93662928333333,-11.673000000000002,0,1,20.412323999999998,21.641104000000002,173.7124,1,1,1789162774.291131,-0.9989117843659069,0.022394106170118316,-0.025697047243456228,-0.03183414561015947,176.4146579760967,-3.024556802507587,-2.4738556569804153,-0.0511250571140439,0.061775754341414094,-0.44000675467280603,1.2339707898521424,-1.1980784502601625,-7.690963455848693
2026-09-11T17:39:34.329,3.4756219200000373,-292.5533142089844,-26329.798278808594,-105319.19311523438,-200.39902023315432,-7.88667709350586,-5.2054338455200195,-3.5657221841812134,-7.976293361178439,-0.580116462052014,0.0,-0.08926582336425781,-731.265625,-32.13569641113281,-0.0457763746380806,-16.479494869709015,328.74906301254117,1,1789162774.0432856,38.99140681,-76.93662928333333,-11.673000000000002,0,1,20.412323999999998,21.641104000000002,173.7124,1,1,1789162774.3231308,-0.9990976812749034,0.015448986342211656,-0.024181604515645546,-0.03131137325571291,176.45144961102994,-2.8250832622299202,-1.6842511782240663,0.02390961448892072,0.05476459220322767,-0.4196221816741383,-1.7143005147743224,-0.2296717467880249,-9.507253132305145
2026-09-11T17:39:34.362,3.5090462080000293,-292.72216796875,-26344.9951171875,-105379.98046875,-200.51468505859376,-8.002341918945314,-5.102850914001465,-3.4954528760910035,-7.819105395693897,2.1023427063046727,0.0,-0.08950996398925781,-733.265625,-32.22358703613281,0.0,0.0,493.0395187389772,1,1789162774.0432856,38.99140681,-76.93662928333333,-11.673000000000002,0,1,20.412323999999998,21.641104000000002,173.7124,1,1,1789162774.351131,-0.9991952451574714,0.009293486384951241,-0.024670759943064276,-0.030229898599650626,176.5586225800438,-2.858164490943992,-0.9799029805077325,0.011563504426163232,0.06925414112035941,-0.4419850853799416,4.40357818862915,-3.1144940248680113,-9.012997964153291
2026-09-11T17:39:34.396,3.5424745600000165,-292.8916931152344,-26360.252380371094,-105441.00952148438,-200.63080978393558,-8.11846664428711,-5.051490783691406,-3.4602711868286136,-7.740406198167076,1.0524506042775743,0.0,-0.08975410461425781,-735.265625,-32.31147766113281,0.0,0.0,0.0,1,1789162774.0432856,38.99140681,-76.93662928333333,-11.673000000000002,0,1,20.412323999999998,21.641104000000002,173.7124,1,1,1789162774.391131,-0.9992138226870028,0.00108192416398593,-0.02676373057524351,-0.029227875684456322,176.64997126498207,-3.0695783137289254,-0.034292207809603674,0.03423463327786878,-0.008297469796906242,-0.43926149908220447,1.881405833530426,-0.13425304071426392,-11.565472868251799
2026-09-11T17:39:34.429,3.5758977280000295,-293.06341552734375,-26375.707397460938,-105502.82958984375,-200.74843963623047,-8.236096496582032,-5.053203105926514,-3.461444127559662,-7.743029991856788,-0.03509364315938304,0.0,-0.0909881591796875,-745.375,-32.7557373046875,-0.0762939602136612,-27.46582567691803,-821.7600939835312,1,1789162774.0432856,38.99140681,-76.93662928333333,-11.673000000000002,0,1,20.412323999999998,21.641104000000002,173.7124,1,1,1789162774.423131,-0.999184185177595,-0.005603883931358416,-0.026535791797877347,-0.029923441137822065,176.54990880409878,-3.0204803195988577,0.733663701972594,-0.03109583315108217,-0.09808506050112853,-0.4740979218861609,-2.2077711509132385,0.19966339729309082,-6.75295736787796
2026-09-11T17:39:34.462,3.6093212800000174,-293.2274169921875,-26390.467529296875,-105561.8701171875,-200.86078063964845,-8.348437500000001,-5.000644683837891,-3.4254416084289554,-7.662494650207927,1.077160175277593,0.0,-0.09190177917480469,-752.859375,-33.08464050292969,-0.0915527492761612,-32.95898973941803,-164.35009847253772,1,1789162774.0432856,38.99140681,-76.93662928333333,-11.673000000000002,0,1,20.412323999999998,21.641104000000002,173.7124,1,1,1789162774.4511309,-0.9990683801443282,-0.011332727744183492,-0.028770699965504864,-0.0301029550237047,176.50851163575697,-3.2564681432507343,1.3990688492573609,-0.08100614110573802,0.05617534183761469,-0.41064839679208426,1.7620589010620118,-1.2046489058685304,-9.643173303546906
2026-09-11T17:39:34.496,3.642747008000015,-293.393798828125,-26405.44189453125,-105621.767578125,-200.97475219726564,-8.462409057617188,-5.001158714294434,-3.425793719291687,-7.663282299775598,-0.010534126967461067,0.0,-0.09416007995605469,-771.359375,-33.89762878417969,-0.015258789993822575,-5.493164397776127,821.6971472287458,1,1789162774.0432856,38.99140681,-76.93662928333333,-11.673000000000002,0,1,20.412323999999998,21.641104000000002,173.7124,1,1,1789162774.4911308,-0.9989355024021178,-0.019985055617644083,-0.030697153827371915,-0.028038265629076742,176.7124068144074,-3.4517668535504944,2.391340461412992,-0.017555917879960563,0.09776130192488358,-0.4526966945982064,-0.7873759414863587,-1.068042269115448,-6.6350814329338075
2026-09-11T17:39:34.530,3.676157568000008,-293.55938720703125,-26420.344848632812,-105681.37939453125,-201.0881802368164,-8.57583709716797,-4.89860725402832,-3.3555459690093996,-7.506142557733974,2.10256129446206,0.0,-0.09508895874023438,-778.96875,-34.232025146484375,0.0305175818502903,10.986329466104507,493.24207268253195,1,1789162774.0432856,38.99140681,-76.93662928333333,-11.673000000000002,0,1,20.412323999999998,21.641104000000002,173.7124,1,1,1789162774.523131,-0.9987536132173082,-0.026783597274114918,-0.032526780797482426,-0.02675570095105338,176.82999429143825,-3.642985040028198,3.1731054311672304,0.01235501124194266,0.10412459784472972,-0.4321215316452209,1.497475479698181,-1.8183490729904175,-9.398595448513031
2026-09-11T17:39:34.562,3.7095745280000187,-293.72125244140625,-26434.912719726562,-105739.65087890625,-201.1990579223633,-8.686714782714844,-4.925562858581543,-3.374010558128357,-7.547446667252043,-0.5525514325345989,0.0,-0.09442520141601562,-773.53125,-33.993072509765625,0.015258795581758022,5.493166409432888,-164.38248891191247,1,1789162774.0432856,38.99140681,-76.93662928333333,-11.673000000000002,0,1,20.412323999999998,21.641104000000002,173.7124,1,1,1789162774.551131,-0.9985841964763816,-0.032579195859436735,-0.032042433567182095,-0.027230148656672053,176.75643519335227,-3.5672397227255295,3.8383002197933744,-0.013139362207788911,0.10308822133489548,-0.450247648591808,0.11581653841018676,-0.26458342136383056,-9.006329442043304
2026-09-11T17:39:34.596,3.7429969920000303,-293.8833312988281,-26449.49981689453,-105797.99926757812,-201.31008193969728,-8.79773880004883,-4.875048637390137,-3.339408316612244,-7.470043657418219,1.0352989389442058,0.0,-0.09077644348144531,-743.640625,-32.67951965332031,0.1831054836511612,65.91797411441803,1807.910024376545,1,1789162774.0432856,38.99140681,-76.93662928333333,-11.673000000000002,0,1,20.412323999999998,21.641104000000002,173.7124,1,1,1789162774.591131,-0.998292974559287,-0.040626947735889894,-0.033074097465721986,-0.02582038226021889,176.8843693165787,-3.6658363585365077,4.760622963277959,-0.05170276109645402,0.09235008311200035,-0.43567048414622617,2.0069309556007386,-0.38020382677078246,-10.189697917060853
2026-09-11T17:39:34.629,3.7764099519999945,-294.0462646484375,-26464.163818359375,-105856.6552734375,-201.4216912841797,-8.90934814453125,-4.8242387771606445,-3.304603562355042,-7.392187639484248,1.0416543238683318,0.0,-0.08645439147949219,-708.234375,-31.123580932617188,0.07629397511482239,27.46583104133606,-1150.8152247847297,1,1789162774.0432856,38.99140681,-76.93662928333333,-11.673000000000002,0,1,20.412323999999998,21.641104000000002,173.7124,1,1,1789162774.623131,-0.9980287548478451,-0.046725133462874456,-0.03441814255257461,-0.023890539193728955,177.07572371605465,-3.8111465049787934,5.4582809235965675,0.0073131040987814405,0.027570791660829225,-0.36082081744397293,-3.700147172527313,-0.7761963603019714,-7.13708385471344
2026-09-11T17:39:34.662,3.8098323840000035,-294.20330810546875,-26478.297729492188,-105913.19091796875,-201.5292660522461,-9.016922912597657,-4.746989727020264,-3.251687963008881,-7.273818814891011,1.583236053742187,0.0,-0.08079147338867188,-661.84375,-29.084930419921875,0.07629397511482239,27.46583104133606,0.0,1,1789162774.0432856,38.99140681,-76.93662928333333,-11.673000000000002,0,1,20.412323999999998,21.641104000000002,173.7124,1,1,1789162774.651131,-0.9978386266565433,-0.05187711624307736,-0.03314680001405039,-0.022981070717311373,177.16829486138653,-3.655999215464078,6.042590748092793,-0.04085135100510447,-0.051596994143783166,-0.36217170228501655,0.32067746028900146,3.20618620388031,-13.36842550048828
2026-09-11T17:39:34.696,3.843256512000039,-294.36395263671875,-26492.755737304688,-105971.02294921875,-201.63930755615235,-9.126964416503906,-4.800408363342285,-3.2882797288894654,-7.355672263979648,-1.0947709953882827,0.0,-0.07985305786132812,-654.15625,-28.747100830078125,0.1220703274011612,43.94531786441803,493.0416381562573,1,1789162774.0432856,38.99140681,-76.93662928333333,-11.673000000000002,0,1,20.412323999999998,21.641104000000002,173.7124,1,1,1789162774.6911309,-0.9974515122824404,-0.05841452849186772,-0.033273186148672355,-0.023898087581667015,177.03842666666634,-3.645599392501908,6.797529982833812,0.027572013391305623,-0.008778482538755879,-0.32544404070359906,1.83276484872818,-0.1224850605201721,-11.491628792533875
2026-09-11T17:39:34.730,3.876670719999993,-294.5251770019531,-26507.26593017578,-106029.06372070312,-201.7497462463379,-9.237403106689454,-4.775668621063232,-3.2713330054283145,-7.31776352323799,0.5071711848197732,0.0,-0.07941055297851562,-650.53125,-28.587799072265625,0.015258791856467724,5.493165068328381,-1150.7725335325279,1,1789162774.0432856,38.99140681,-76.93662928333333,-11.673000000000002,0,1,20.412323999999998,21.641104000000002,173.7124,1,1,1789162774.723131,-0.9972183113558054,-0.06322899038189464,-0.03302752001611556,-0.02160826678722019,177.28503076015,-3.6199922465207908,7.341817850878851,0.023526340185182765,-0.042985016015667545,-0.32984192135277435,-1.057353020439148,-0.8364091922950745,-10.165573557662963
2026-09-11T17:39:34.763,3.9100923200000466,-294.6850280761719,-26521.65252685547,-106086.61010742188,-201.85924423217776,-9.346901092529297,-4.829240322113037,-3.3080296206474307,-7.399851513617186,-1.097990976466031,0.0,-0.07889366149902344,-646.296875,-28.401718139648438,0.0,0.0,-164.35972749118955,1,1789162774.0432856,38.99140681,-76.93662928333333,-11.673000000000002,0,1,20.412323999999998,21.641104000000002,173.7124,1,1,1789162774.7511308,-0.9969035092149735,-0.06779995869752686,-0.03355399383995757,-0.021463653297444117,177.28077987900983,-3.6688475257008957,7.868559139580963,0.11588532447636829,0.04709037948220861,-0.34780537361307556,-3.333574589481354,0.9092726029968261,-9.465280669612884
2026-09-11T17:39:34.796,3.943516767999995,-294.84539794921875,-26536.085815429688,-106144.34326171875,-201.96909759521486,-9.456754455566408,-4.804093837738037,-3.2908042788505556,-7.361319521408715,0.5153515713079743,0.0,-0.07883453369140625,-645.8125,-28.38043212890625,-0.0610351599752903,-21.972657591104507,-657.3828112625359,1,1789162774.0432856,38.99140681,-76.93662928333333,-11.673000000000002,0,1,20.412323999999998,21.641104000000002,173.7124,1,1,1789162774.791131,-0.9963836909624566,-0.07456589347309452,-0.033463669598694686,-0.023230383801827976,177.05449937124186,-3.6247092586974325,8.652900777417292,0.032212843872358544,0.03683779185721832,-0.3558663512963366,1.492964420623779,1.0717687961769105,-9.733688684539795
2026-09-11T17:39:34.830,3.9769339520000244,-295.0074462890625,-26550.670166015625,-106202.6806640625,-202.08010070800782,-9.567757568359376,-4.778210639953613,-3.2730742883682256,-7.321658662241012,0.5305650674310081,0.0,-0.07914543151855469,-648.359375,-28.492355346679688,-0.0457763746380806,-16.479494869709015,164.3813770002478,1,1789162774.0432856,38.99140681,-76.93662928333333,-11.673000000000002,0,1,20.412323999999998,21.641104000000002,173.7124,1,1,1789162774.8231308,-0.9959807904374708,-0.07976017988817458,-0.03294042355417215,-0.02398973280027158,176.95370462262045,-3.5425174115032982,9.25141076295158,0.007862359214384055,0.06036500470702708,-0.3740535547667435,-0.49307837013244626,1.8047178292655945,-9.93315594882965
2026-09-11T17:39:34.863,4.010353887999997,-295.165771484375,-26564.91943359375,-106259.677734375,-202.1885534667969,-9.676210327148437,-4.804826259613037,-3.2913059878349307,-7.3624418124439135,-0.5455336439519174,0.0,-0.07876968383789062,-645.28125,-28.357086181640625,-0.030517585575580597,-10.986330807209015,164.3678809709404,1,1789162774.0432856,38.99140681,-76.93662928333333,-11.673000000000002,0,1,20.412323999999998,21.641104000000002,173.7124,1,1,1789162774.851131,-0.9956472922767569,-0.0842261412746937,-0.032759736739544854,-0.022786534547700923,177.07725820947513,-3.519936397673964,9.760600559671891,0.025581465379406088,0.05117549712942653,-0.3271165897257852,6.759331690483093,-0.38393035383224483,-9.372313626079558
2026-09-11T17:39:34.897,4.043781824000007,-295.3241882324219,-26579.17694091797,-106316.70776367188,-202.297068939209,-9.784725799560547,-4.753163814544678,-3.2559172129631047,-7.283279377601783,1.0586586881049387,0.0,-0.078948974609375,-646.75,-28.421630859375,0.0,0.0,328.65716887832565,1,1789162774.0432856,38.99140681,-76.93662928333333,-11.673000000000002,0,1,20.412323999999998,21.641104000000002,173.7124,1,1,1789162774.891131,-0.9951029808819903,-0.09061010486345696,-0.03309534012492014,-0.021553765295793077,177.1920646196445,-3.5523543492935823,10.492646742061197,-0.0006913249167149539,0.027693662840169626,-0.35476155787982416,3.245020538520813,0.5359334313392639,-10.026809457874299
2026-09-11T17:39:34.931,4.0771961280000255,-295.4847717285156,-26593.629455566406,-106374.51782226562,-202.4070686340332,-9.894725494384767,-4.754176139831543,-3.2566106557846073,-7.284830565015667,-0.020752873425172864,0.0,-0.07893562316894531,-646.640625,-28.416824340820312,0.015258791856467724,5.493165068328381,164.3956153725462,1,1789162774.0432856,38.99140681,-76.93662928333333,-11.673000000000002,0,1,20.412323999999998,21.641104000000002,173.7124,1,1,1789162774.923131,-0.9946695496317499,-0.0958001396372399,-0.0324104468789514,-0.020109281786379718,177.34630338307443,-3.475540142142988,11.083305284495706,0.017597456716158026,-0.05308401466648233,-0.35391105893532737,-3.427522298030853,-0.06658715459823608,-10.83772135974884
2026-09-11T17:39:34.963,4.1106102080000255,-295.6396484375,-26607.568359375,-106430.2734375,-202.5131591796875,-10.000816040039064,-4.702645778656006,-3.221312358379364,-7.205870522502149,1.0563899232073166,0.0,-0.07881355285644531,-645.640625,-28.372879028320312,0.015258795581758022,5.493166409432888,4.0135909995016726e-05,1,1789162774.0432856,38.99140681,-76.93662928333333,-11.673000000000002,0,1,20.412323999999998,21.641104000000002,173.7124,1,1,1789162774.9511309,-0.9941971897718997,-0.10013450601547685,-0.03466594593602231,-0.018528376805710935,177.4851883781941,-3.7394225665709295,11.584858578086818,0.02710670861272393,0.09906349207979655,-0.3308433912775687,-0.5803575565719605,-0.009904716663360597,-9.729079558963775
2026-09-11T17:39:34.997,4.144027327999993,-295.7972106933594,-26621.748962402344,-106486.99584960938,-202.62108932495119,-10.108746185302735,-4.703382968902588,-3.221817333698273,-7.207000120119608,-0.015111275864273242,0.0,-0.0793914794921875,-650.375,-28.5809326171875,-0.015258795581758022,-5.493166409432888,-328.7636043703502,1,1789162774.0432856,38.99140681,-76.93662928333333,-11.673000000000002,0,1,20.412323999999998,21.641104000000002,173.7124,1,1,1789162774.9911308,-0.9935504337099926,-0.10643032796918399,-0.035725934998689785,-0.01593042785134311,177.74482732535031,-3.8761550191884124,12.304877123388719,0.021067869400823554,0.013326286970677503,-0.355375739243601,-0.16504592222213746,-0.2670350839042664,-6.848670273456574
2026-09-11T17:39:35.030,4.177442432000021,-295.9549865722656,-26635.948791503906,-106543.79516601562,-202.72916580200197,-10.216822662353517,-4.678606033325195,-3.204845132827759,-7.169034388036318,0.5079200373130611,0.0,-0.07941627502441406,-650.578125,-28.589859008789062,-0.0457763709127903,-16.479493528604507,-328.7832687626065,1,1789162774.0432856,38.99140681,-76.93662928333333,-11.673000000000002,0,1,20.412323999999998,21.641104000000002,173.7124,1,1,1789162775.023131,-0.9929261286203657,-0.11176067933453393,-0.037368400365461296,-0.014520892251625141,177.86334780828892,-4.069265728986974,12.91992676242793,-0.06107099038945878,0.017198648982077323,-0.364429111139546,0.16435945671081545,-1.7304814875411987,-10.241477029914856
2026-09-11T17:39:35.064,4.210865024000043,-296.1097717285156,-26649.879455566406,-106599.51782226562,-202.83519363403323,-10.322850494384767,-4.679932117462158,-3.2057535004615785,-7.1710663485629365,-0.027178252178008608,0.0,-0.08197402954101562,-671.53125,-29.510650634765625,-0.1525879055261612,-54.93164598941803,-1150.4838541782758,1,1789162775.040893,38.99141049,-76.93660919666667,-11.677000000000003,0,1,8.538084000000001,6.9484960000000004,72.352036,1,1,1789162775.051131,-0.9923621124290722,-0.11672578568239937,-0.037252613366363777,-0.014309841701162332,177.8686463476745,-4.04819200072411,13.492422999991366,0.06001663698832901,0.05924310706384512,-0.36319202176573245,-2.992008964347839,1.4030374386405946,-10.951478501625061
2026-09-11T17:39:35.097,4.244289535999997,-296.2649230957031,-26663.84307861328,-106655.37231445312,-202.94147232055667,-10.429129180908204,-4.628831386566162,-3.170749499797821,-7.092764629111081,1.0472553993849134,0.0,-0.08471488952636719,-693.984375,-30.497360229492188,-0.06103515625,-21.97265625,986.072429104237,1,1789162775.040893,38.99141049,-76.93660919666667,-11.677000000000003,0,1,8.538084000000001,6.9484960000000004,72.352036,1,1,1789162775.091131,-0.9913650153062287,-0.12427129454925426,-0.03907156933751908,-0.015015466940356723,177.73104760041514,-4.228621786249106,14.373718053098807,0.05048958273339276,0.062420653500026,-0.34233638440195135,2.778518190326691,-1.4128440888023377,-10.769761274127958
2026-09-11T17:39:35.131,4.277705440000034,-296.4248352050781,-26678.23516845703,-106712.94067382812,-203.05101211547853,-10.53866897583008,-4.70892333984375,-3.225612487792969,-7.2154896380479725,-1.641822648134455,0.0,-0.08737754821777344,-715.796875,-31.455917358398438,-0.0762939527630806,-27.465822994709015,-164.38779404869288,1,1789162775.040893,38.99141049,-76.93660919666667,-11.677000000000003,0,1,8.538084000000001,6.9484960000000004,72.352036,1,1,1789162775.123131,-0.9905831618630482,-0.13043186073500146,-0.03916490650768259,-0.014093943268506942,177.80825919355513,-4.2389175443402145,15.083296115244169,-0.02988317838679651,-0.046848302314957,-0.4090765532677381,2.23483750535965,0.07453054122924804,-7.939267837944031
2026-09-11T17:39:35.164,4.311127008000028,-296.5780334472656,-26692.023010253906,-106768.09204101562,-203.15595291137697,-10.643609771728517,-4.658003330230713,-3.1907322812080388,-7.137464838063787,1.043643631110792,0.0,-0.08939361572265625,-732.3125,-32.18170166015625,-0.01525880303233862,-5.493169091641903,657.4393488381772,1,1789162775.040893,38.99141049,-76.93660919666667,-11.677000000000003,0,1,8.538084000000001,6.9484960000000004,72.352036,1,1,1789162775.151131,-0.989888913291212,-0.13520291624413072,-0.04039489082905708,-0.014434804367733403,177.72960461859276,-4.362684547986862,15.641604736064295,0.0229304847785519,-0.04028394446528112,-0.3900137181116056,2.0062444900894167,1.8499264865112306,-8.903948014354706
2026-09-11T17:39:35.197,4.344544767999992,-296.735107421875,-26706.15966796875,-106824.638671875,-203.2635485839844,-10.751205444335938,-4.68571662902832,-3.2097158908843997,-7.179929963503033,-0.5680694839026222,0.0,-0.09208297729492188,-754.34375,-33.149871826171875,-0.1373291313648224,-49.43848729133606,-1315.0288409439245,1,1789162775.040893,38.99141049,-76.93660919666667,-11.677000000000003,0,1,8.538084000000001,6.9484960000000004,72.352036,1,1,1789162775.1911309,-0.9888744673804267,-0.1431096312024982,-0.03814123477031069,-0.013862446766653514,177.7974969391879,-4.098198757958604,16.54812888477897,0.04335694567926754,-0.04840339067848394,-0.4245733316961958,-5.3651202369880675,3.693282517414093,-9.090568566932678
2026-09-11T17:39:35.231,4.377959648000001,-296.89459228515625,-26720.513305664062,-106882.05322265625,-203.37279571533205,-10.860452575683595,-4.711501121520996,-3.227378268241883,-7.2194395764179475,-0.528578206998743,0.0,-0.09465408325195312,-775.40625,-34.075469970703125,-0.2746582329273224,-98.87696385383606,-1479.5347630303072,1,1789162775.040893,38.99141049,-76.93660919666667,-11.677000000000003,0,1,8.538084000000001,6.9484960000000004,72.352036,1,1,1789162775.223131,-0.9879798866685197,-0.14966236248406034,-0.035727869306056335,-0.014847226980082761,177.7006968778711,-3.79303990477312,17.30386415901272,0.040690780713921,-0.015499047356485244,-0.4265479972119022,-1.5911289887428284,1.546312597503662,-7.07942075176239
2026-09-11T17:39:35.264,4.411381247999998,-297.0531311035156,-26734.781799316406,-106939.12719726562,-203.48139480590822,-10.969051666259766,-4.7901716232299805,-3.2812675619125367,-7.3399864931830106,-1.6124091506887401,0.0,-0.10098075866699219,-827.234375,-36.35307312011719,-0.1983642876148224,-71.41114354133606,821.7984869815482,1,1789162775.040893,38.99141049,-76.93660919666667,-11.677000000000003,0,1,8.538084000000001,6.9484960000000004,72.352036,1,1,1789162775.2511308,-0.9870436344774242,-0.15529446112858672,-0.0374155354528957,-0.015118587472123106,177.6177685090858,-3.966078760421913,17.964929955127033,-0.0035978217200611107,-0.05785731563776162,-0.43609337742398435,1.1829762090110778,0.9592865188217163,-10.463695722579956
2026-09-11T17:39:35.298,4.444801568000003,-297.2150573730469,-26749.35516357422,-106997.42065429688,-203.5923143005371,-11.079971160888674,-4.843414306640625,-3.3177388000488284,-7.42157032938624,-1.0912893154908918,0.0,-0.10867500305175781,-890.265625,-39.12300109863281,-0.06103518605232239,-21.97266697883606,1479.2939314313273,1,1789162775.040893,38.99141049,-76.93660919666667,-11.677000000000003,0,1,8.538084000000001,6.9484960000000004,72.352036,1,1,1789162775.291131,-0.9856300194942091,-0.16407648568725375,-0.03661874072116208,-0.016475416363831267,177.44413772623935,-3.8289815572493384,18.988012425485355,-0.058156465071553455,-0.05853328165705903,-0.4760396006790046,-2.4420520232772827,-1.2578990162467956,-9.935901810874938
2026-09-11T17:39:35.332,4.478251040000032,-297.3804016113281,-26764.23614501953,-107056.94458007812,-203.70557510375977,-11.193231964111328,-4.818605899810791,-3.300745041370392,-7.383556373860031,0.5080426584437991,0.0,-0.11112785339355469,-910.359375,-40.00602722167969,-0.3051758110523224,-109.86329197883606,-2627.563896970418,1,1789162775.040893,38.99141049,-76.93660919666667,-11.677000000000003,0,1,8.538084000000001,6.9484960000000004,72.352036,1,1,1789162775.3231308,-0.9843405784927083,-0.1715225784469669,-0.0378094149035009,-0.01496926050944372,177.56176911386675,-3.9737567093567834,19.85382840164807,0.05811003931345041,0.04085606339408486,-0.5042786789104224,2.280144229106903,-1.8230562650680544,-5.226650336704255
2026-09-11T17:39:35.365,4.511668127999997,-297.54107666015625,-26778.696899414062,-107114.78759765625,-203.81563751220705,-11.303294372558595,-4.897643566131592,-3.3548858428001407,-7.504665897459147,-1.6201531812049532,0.0,-0.11575508117675781,-948.265625,-41.67182922363281,0.0,0.0,3287.638108351996,1,1789162775.040893,38.99141049,-76.93660919666667,-11.677000000000003,0,1,8.538084000000001,6.9484960000000004,72.352036,1,1,1789162775.3631308,-0.9825099778972669,-0.18143396096906556,-0.039668851659409185,-0.013499753605567981,177.64840989320888,-4.189271875881514,21.011196435763008,-0.07137384349690651,0.01876944530887222,-0.5470069569931216,-2.278673231582642,-1.0188128853034972,-7.420986376895905
2026-09-11T17:39:35.398,4.545082080000043,-297.70245361328125,-26793.220825195312,-107172.88330078125,-203.92618072509768,-11.413837585449219,-4.872766971588135,-3.3378453755378725,-7.466547457806614,0.5099805991893614,0.0,-0.11808013916015625,-967.3125,-42.50885009765625,-0.030517593026161194,-10.98633348941803,-328.79479474331015,1,1789162775.040893,38.99141049,-76.93660919666667,-11.677000000000003,0,1,8.538084000000001,6.9484960000000004,72.352036,1,1,1789162775.391131,-0.9811120204821061,-0.18808303413807176,-0.04276740942492679,-0.014660294199542788,177.42122415085709,-4.496864166920129,21.805595213254563,-0.12878993989976398,0.024723286986200473,-0.5109104064692253,0.2439894560241699,0.6456698466491699,-4.320613928260803
2026-09-11T17:39:35.432,4.578502848000028,-297.86663818359375,-26807.997436523438,-107231.98974609375,-204.03864715576174,-11.526304016113283,-4.874266624450684,-3.3388726377487186,-7.4688453779275115,-0.030737241311944084,0.0,-0.11767768859863281,-964.015625,-42.36396789550781,-0.030517585575580597,-10.986330807209015,8.025575638757872e-05,1,1789162775.040893,38.99141049,-76.93660919666667,-11.677000000000003,0,1,8.538084000000001,6.9484960000000004,72.352036,1,1,1789162775.423131,-0.9796188892624403,-0.19587488973159506,-0.04220183493369876,-0.01410193253022094,177.46133040958372,-4.42528349796658,22.71246896456551,-0.11142932436310157,-0.05088804140162307,-0.518194887168274,-0.5957539973258972,0.6466505116653443,-11.264408708286284
2026-09-11T17:39:35.465,4.61192096000002,-298.0274353027344,-26822.469177246094,-107289.87670898438,-204.14879318237305,-11.63645004272461,-4.875391483306885,-3.3396431660652164,-7.470569000682741,-0.023057206717662326,0.0,-0.11831855773925781,-969.265625,-42.59468078613281,0.0,0.0,328.75378498975226,1,1789162775.040893,38.99141049,-76.93660919666667,-11.677000000000003,0,1,8.538084000000001,6.9484960000000004,72.352036,1,1,1789162775.4511309,-0.9782587997256714,-0.20278997375744395,-0.041857366845055775,-0.011571868627932795,177.7227146404358,-4.427717616506288,23.51077109600081,0.10541195270100072,0.031058657638014693,-0.5336653111250266,0.5721199704360962,-0.6114446375846863,-15.725355800361633
2026-09-11T17:39:35.498,4.6453356800000165,-298.1889953613281,-26837.00958251953,-107348.03833007812,-204.2594618225098,-11.747118682861329,-4.850525379180908,-3.3226098847389225,-7.432466635511182,0.509753824850122,0.0,-0.117523193359375,-962.75,-42.308349609375,0.0,0.0,0.0,1,1789162775.040893,38.99141049,-76.93660919666667,-11.677000000000003,0,1,8.538084000000001,6.9484960000000004,72.352036,1,1,1789162775.4911308,-0.9760472282480218,-0.21254548051208083,-0.04516304384089087,-0.010794740120462923,177.68392468037075,-4.794016713378238,24.667012537561966,-0.08693066125163278,-0.05251486279740698,-0.5015913954611267,3.7086789581680297,-0.2395764634513855,-12.85573383003235
2026-09-11T17:39:35.533,4.678753599999993,-298.35369873046875,-26851.832885742188,-107407.33154296875,-204.3722836303711,-11.859940490722657,-4.878726005554199,-3.341927313804627,-7.475678493657442,-0.578055997073361,0.0,-0.117523193359375,-962.75,-42.308349609375,-0.03051757998764515,-10.986328795552254,-328.75561362167133,1,1789162775.040893,38.99141049,-76.93660919666667,-11.677000000000003,0,1,8.538084000000001,6.9484960000000004,72.352036,1,1,1789162775.523131,-0.9742312334591942,-0.2203205245317626,-0.04704663194904059,-0.010908008291044586,177.58462214460346,-4.983110329351266,25.591073832611393,-0.14382280981304152,-0.05132018492441687,-0.4959613123600434,0.03059674850463867,1.2126903590011597,-8.935525427875518
2026-09-11T17:39:35.565,4.712169184000004,-298.5123596191406,-26866.112365722656,-107464.44946289062,-204.48096633911135,-11.968623199462892,-4.827423572540283,-3.3067851471900944,-7.397067705775973,1.0516699817223327,0.0,-0.11857795715332031,-971.390625,-42.68806457519531,-0.01525880303233862,-5.493169091641903,164.3891575831379,1,1789162775.040893,38.99141049,-76.93660919666667,-11.677000000000003,0,1,8.538084000000001,6.9484960000000004,72.352036,1,1,1789162775.5631309,-0.971937866963285,-0.23039030647482414,-0.04579787473475515,-0.01263503522258367,177.3736389338441,-4.772721161513413,26.780244625120414,-0.09649471648671129,-0.02389704811830636,-0.5372715104254973,-4.0186671697807315,-0.1956426707267761,-4.702092619552612
2026-09-11T17:39:35.598,4.745583616000033,-298.6773681640625,-26880.963134765625,-107523.8525390625,-204.59399719238283,-12.081654052734375,-4.932657718658447,-3.3788705372810366,-7.5583181309973,-2.157313046377066,0.0,-0.12087059020996094,-990.171875,-43.51341247558594,-0.213623046875,-76.904296875,-2137.1342713021677,1,1789162775.040893,38.99141049,-76.93660919666667,-11.677000000000003,0,1,8.538084000000001,6.9484960000000004,72.352036,1,1,1789162775.591131,-0.9702202904306034,-0.23726897348731715,-0.04661142207436288,-0.014261752670538072,177.13583901767467,-4.800063750848411,27.604199043822128,-0.06704315802393299,-0.007205766349783789,-0.5415925965875849,-2.0712625806617737,0.5239693181419373,-6.995966158885955
2026-09-11T17:39:35.633,4.778999552000016,-298.8445739746094,-26896.011657714844,-107584.04663085938,-204.70853317260745,-12.196190032958985,-4.932419776916504,-3.3787075471878056,-7.5579535325425065,0.0048776156750789555,0.0,-0.12402725219726562,-1016.03125,-44.649810791015625,-0.09155276417732239,-32.95899510383606,1315.1001298059175,1,1789162775.040893,38.99141049,-76.93660919666667,-11.677000000000003,0,1,8.538084000000001,6.9484960000000004,72.352036,1,1,1789162775.623131,-0.9680822321458304,-0.24547927901789446,-0.04830034118009134,-0.014959693121450754,176.96909664720104,-4.943469685978542,28.588351178814307,-0.105138285074288,0.048139322362657194,-0.5682242265779158,5.649022759170532,-1.7700022876930237,-3.173235859336853
2026-09-11T17:39:35.665,4.812419712000008,-299.0092468261719,-26910.83221435547,-107643.32885742188,-204.82133407592775,-12.308990936279297,-5.010746479034424,-3.4323613381385805,-7.6779736447265945,-1.6054318995118066,0.0,-0.12793540954589844,-1048.046875,-46.05674743652344,-0.10681155323982239,-38.45215916633606,-164.3667792883517,1,1789162775.040893,38.99141049,-76.93660919666667,-11.677000000000003,0,1,8.538084000000001,6.9484960000000004,72.352036,1,1,1789162775.663131,-0.9652914607959,-0.2559759940907837,-0.04900788072352265,-0.016938529769179176,176.67466135287918,-4.9301993806358135,29.8469249786884,-0.04032862489413217,0.008643743120501918,-0.5685064463179633,-0.5469168795204162,0.5159278650093079,-6.169461683254242
2026-09-11T17:39:35.698,4.845833408000033,-299.1766052246094,-26925.894470214844,-107703.57788085938,-204.93597457885744,-12.423631439208986,-5.037537097930908,-3.4507129120826723,-7.719024946498453,-0.5492231073173718,0.0,-0.13370895385742188,-1095.34375,-48.135223388671875,-0.2136230766773224,-76.90430760383606,-1150.7900364410789,1,1789162775.040893,38.99141049,-76.93660919666667,-11.677000000000003,0,1,8.538084000000001,6.9484960000000004,72.352036,1,1,1789162775.6911309,-0.9632312913303688,-0.26317607289820333,-0.051462017859709074,-0.016598035236634626,176.6000513544946,-5.186805630728131,30.717051435126052,-0.0146511664058664,-0.05640607436472834,-0.5522895450401328,1.165520371723175,0.2526193081665039,-8.000265201950073
2026-09-11T17:39:35.732,4.879253568000024,-299.34832763671875,-26941.349487304688,-107765.39794921875,-205.05360443115237,-12.541261291503908,-5.0905256271362305,-3.487010054588318,-7.800219341867202,-1.0860852403356238,0.0,-0.1352214813232422,-1107.734375,-48.67973327636719,0.0610351637005806,21.972658932209015,2958.6024284764126,1,1789162775.040893,38.99141049,-76.93660919666667,-11.677000000000003,0,1,8.538084000000001,6.9484960000000004,72.352036,1,1,1789162775.723131,-0.9607451335161235,-0.2721591464035172,-0.05114183617956342,-0.016813686275692123,176.5380865005399,-5.112784531143613,31.787260591927563,0.011270638177678583,0.024000720675874825,-0.5954796372429098,-2.4445036858177183,-0.033048411045074465,-6.572809204406738
2026-09-11T17:39:35.765,4.912670976000015,-299.5145263671875,-26956.307373046875,-107825.2294921875,-205.16745056152345,-12.655107421875002,-5.039403438568115,-3.451991355419159,-7.721884742795176,1.0479178746947782,0.0,-0.13517189025878906,-1107.328125,-48.66188049316406,0.03051757998764515,10.986328795552254,-328.76069073519017,1,1789162775.040893,38.99141049,-76.93660919666667,-11.677000000000003,0,1,8.538084000000001,6.9484960000000004,72.352036,1,1,1789162775.763131,-0.9577198813447123,-0.2824065646463093,-0.052849516662217155,-0.015036279802857381,176.6230353230563,-5.321106111162618,33.01579021873275,0.016117766576317236,-0.016118464708018032,-0.5590930129973319,5.131918096141816,0.7045097476196289,-7.967314857406617
2026-09-11T17:39:35.799,4.94608636800001,-299.6868591308594,-26971.817321777344,-107887.26928710938,-205.2854985046387,-12.773155364990235,-5.117898941040039,-3.505760774612427,-7.842163507991283,-1.6091213053336706,0.0,-0.1331462860107422,-1090.734375,-47.93266296386719,0.1373291164636612,49.43848192691803,1150.7317685027208,1,1789162775.040893,38.99141049,-76.93660919666667,-11.677000000000003,0,1,8.538084000000001,6.9484960000000004,72.352036,1,1,1789162775.791131,-0.9555364614251931,-0.28971761196101903,-0.05243514368219883,-0.0162582875374933,176.4621227408397,-5.20887035327468,33.89547203159437,-0.039869079702082075,0.039038302978132766,-0.5737173013327177,-2.771163202705383,0.8901496351814271,-9.076937323207856
2026-09-11T17:39:35.833,4.979502880000041,-299.85931396484375,-26987.338256835938,-107949.35302734375,-205.40363006591798,-12.891286926269533,-5.145544052124023,-3.524697675704956,-7.884524149304206,-0.5666929299057814,0.0,-0.13189125061035156,-1080.453125,-47.48085021972656,-0.1678466945886612,-60.42481005191803,-3287.694777322514,1,1789162775.040893,38.99141049,-76.93660919666667,-11.677000000000003,0,1,8.538084000000001,6.9484960000000004,72.352036,1,1,1789162775.8231308,-0.9529069036833152,-0.29784027150852915,-0.05462349727007403,-0.01660960945925916,176.30301764608643,-5.405748286738273,34.88887053711378,-0.09223070259116396,-0.10094268808541886,-0.5520987805528899,1.4712917237663268,0.40295525514602665,-8.288580716705322
2026-09-11T17:39:35.866,5.012917152,-300.02642822265625,-27002.378540039062,-108009.51416015625,-205.51810333251956,-13.005760192871096,-5.121748447418213,-3.508397686481476,-7.8480621118501075,0.48781518338930313,0.0,-0.13182449340820312,-1079.90625,-47.456817626953125,-0.0457763709127903,-16.479493528604507,1315.1660620757314,1,1789162775.040893,38.99141049,-76.93660919666667,-11.677000000000003,0,1,8.538084000000001,6.9484960000000004,72.352036,1,1,1789162775.8631308,-0.9496464462038289,-0.3078082795815632,-0.056055103031470106,-0.01683792319759066,176.16991871545704,-5.514597702336991,36.10259132270559,-0.06690789500690342,-0.014433698381067906,-0.5309890232500184,1.0964815545845032,0.5811420885848999,-7.13325926115036
2026-09-11T17:39:35.899,5.046332992000032,-300.1973571777344,-27017.762145996094,-108071.04858398438,-205.63518966674806,-13.122846527099611,-5.070875644683838,-3.473549816608429,-7.7701096470303,1.0428548219351566,0.0,-0.1360912322998047,-1114.859375,-48.99284362792969,-0.1831054836511612,-65.91797411441803,-1479.4923780388658,1,1789162775.040893,38.99141049,-76.93660919666667,-11.677000000000003,0,1,8.538084000000001,6.9484960000000004,72.352036,1,1,1789162775.891131,-0.9471973297981148,-0.31529086987743615,-0.05610666686428699,-0.016153257523828478,176.19923073176594,-5.51476269948276,37.00493350861494,0.01470963493580821,-0.037115822807061015,-0.5916154782789943,2.018895068798065,0.9872354717826843,-12.57467523639679
2026-09-11T17:39:35.933,5.079751776000023,-300.3714904785156,-27033.434143066406,-108133.73657226562,-205.75447097778323,-13.242127838134767,-5.150464057922363,-3.528067879676819,-7.892063080880492,-1.6313598684022756,0.0,-0.14459991455078125,-1184.5625,-52.05596923828125,-0.1983642876148224,-71.41114354133606,-164.37370752087978,1,1789162775.040893,38.99141049,-76.93660919666667,-11.677000000000003,0,1,8.538084000000001,6.9484960000000004,72.352036,1,1,1789162775.923131,-0.9442584658040205,-0.3241676653862411,-0.05444298226612471,-0.018089669909693264,176.00037642119645,-5.226220522085012,38.0777106984153,-0.04260610503505957,-0.042043759950067,-0.6113249579229906,-2.8936482632255554,2.76822120765686,-11.962838332805633
2026-09-11T17:39:35.966,5.113169152000012,-300.5419921875,-27048.779296875,-108195.1171875,-205.87126464843752,-13.358921508789063,-5.17779016494751,-3.5467862629890443,-7.933934911840194,-0.5601392315252922,0.0,-0.14579200744628906,-1194.328125,-52.48512268066406,-0.1373291164636612,-49.43848192691803,657.5220512354288,1,1789162775.040893,38.99141049,-76.93660919666667,-11.677000000000003,0,1,8.538084000000001,6.9484960000000004,72.352036,1,1,1789162775.963131,-0.9401075270049051,-0.3359463004502873,-0.055229004153350296,-0.016961072569745012,176.02649496094782,-5.304361591882037,39.5127127155666,-0.05214555112768498,0.07827539895806769,-0.6408726840275538,0.9886084028053284,1.42039520942688,-7.976336975555419
2026-09-11T17:39:35.999,5.146588416000043,-300.7174072265625,-27064.566650390625,-108258.2666015625,-205.99142395019533,-13.479080810546876,-5.229622840881348,-3.5822916460037235,-8.013358191669022,-1.0624226498419065,0.0,-0.1494464874267578,-1224.265625,-53.80073547363281,-0.1525879055261612,-54.93164598941803,-164.3711861067586,1,1789162775.040893,38.99141049,-76.93660919666667,-11.677000000000003,0,1,8.538084000000001,6.9484960000000004,72.352036,1,1,1789162775.9911308,-0.9369541077919059,-0.344558218053963,-0.05616262528641335,-0.015569000747929978,176.09038646252247,-5.423391404108592,40.566524576870634,0.03806912164450032,0.01071754333772158,-0.7047342813580264,-0.4907247740936279,0.5991863248825073,-13.195141992130278
2026-09-11T17:39:36.033,5.180011456000045,-300.89324951171875,-27080.392456054688,-108321.56982421875,-206.11187591552735,-13.599532775878908,-5.229580879211426,-3.582262902259827,-8.01329389374513,0.000859997890575084,0.0,-0.15369415283203125,-1259.0625,-55.32989501953125,-0.3051758110523224,-109.86329197883606,-1643.5263216456099,1,1789162775.040893,38.99141049,-76.93660919666667,-11.677000000000003,0,1,8.538084000000001,6.9484960000000004,72.352036,1,1,1789162776.023131,-0.9329207460555392,-0.35502944502793216,-0.05889456305600688,-0.012016870839650298,176.2976800545214,-5.817216182126867,41.85751180717471,0.32152385667069455,0.10589610703550395,-0.7074269753280032,3.613554451599121,0.14052929681777954,-4.289526847248077
2026-09-11T17:39:36.067,5.213428415999999,-301.06439208984375,-27095.795288085938,-108383.18115234375,-206.229108581543,-13.716765441894532,-5.12595272064209,-3.5112776136398316,-7.854504325429106,2.1242293919043753,0.0,-0.15538406372070312,-1272.90625,-55.938262939453125,-0.4425049424171448,-159.30177927017212,-1479.44299216338,1,1789162776.043512,38.9914209,-76.93659394666666,-11.699000000000002,0,1,8.538084000000001,6.9484960000000004,72.36904899999999,1,1,1789162776.0631309,-0.9278110581552683,-0.36786805462637656,-0.06020399629549431,-0.014670159517152538,175.8778211106566,-5.792294645829657,43.46432054034098,-0.05685462398249089,-0.045667936141833225,-0.7087612795411529,4.506057682819367,2.8827628815460207,-9.069778468589783
2026-09-11T17:39:36.100,5.246843008000042,-301.238037109375,-27111.42333984375,-108445.693359375,-206.34805541992188,-13.83571228027344,-5.20452880859375,-3.565102233886719,-7.974906571865414,-1.6108118347462994,0.0,-0.1560688018798828,-1278.515625,-56.18476867675781,-0.2288818508386612,-82.39746630191803,2301.5188384810012,1,1789162776.043512,38.9914209,-76.93659394666666,-11.699000000000002,0,1,8.538084000000001,6.9484960000000004,72.36904899999999,1,1,1789162776.091131,-0.9241173202343105,-0.3768749557636242,-0.061008177521426045,-0.015825562758947462,175.6631740575001,-5.786904816813763,44.592688792860486,-0.0380432907715708,-0.021319545878961132,-0.7405761883440568,-1.0906956309890747,1.0904994979858398,-6.009221019611359
2026-09-11T17:39:36.134,5.2802603520000275,-301.4158020019531,-27127.42218017578,-108509.68872070312,-206.4698243713379,-13.957481231689455,-5.257145881652832,-3.6011449289321904,-8.055531784476079,-1.07856252865239,0.0,-0.15748023986816406,-1290.078125,-56.69288635253906,-0.2441406399011612,-87.89063036441803,-164.38063008545276,1,1789162776.043512,38.9914209,-76.93659394666666,-11.699000000000002,0,1,8.538084000000001,6.9484960000000004,72.36904899999999,1,1,1789162776.123131,-0.9196936016663283,-0.38728620979969625,-0.062484330238986883,-0.01639448771959465,175.4707388428045,-5.867837891659863,45.90451255811058,-0.07574589327315231,0.01061247451675152,-0.7527767379471979,-1.6354550474739076,-0.5541738006401061,-6.420217727890015
2026-09-11T17:39:36.167,5.313676576000034,-301.58734130859375,-27142.860717773438,-108571.44287109375,-206.58732879638674,-14.074985656738283,-5.180171966552734,-3.5484177970886233,-7.937584549679267,1.577890184227766,0.0,-0.15610313415527344,-1278.796875,-56.19712829589844,-0.0915527418255806,-32.958987057209015,1643.861476006317,1,1789162776.043512,38.9914209,-76.93659394666666,-11.699000000000002,0,1,8.538084000000001,6.9484960000000004,72.36904899999999,1,1,1789162776.163131,-0.9140244646372581,-0.4003490759767016,-0.06324171365621503,-0.016744583094246316,175.31514208559884,-5.865961986115681,47.54766843279402,-0.10472865629884495,0.0186521591831382,-0.7521023427242273,1.2891822302627562,-1.331154692955017,-7.4637433716011055
2026-09-11T17:39:36.200,5.347091904000024,-301.76153564453125,-27158.538208007812,-108634.15283203125,-206.70665191650392,-14.19430877685547,-5.181613445281982,-3.549405210018158,-7.939793329496587,-0.02954970035114324,0.0,-0.1543731689453125,-1264.625,-55.5743408203125,0.04577639698982239,16.47950291633606,1479.5153282218412,1,1789162776.043512,38.9914209,-76.93659394666666,-11.699000000000002,0,1,8.538084000000001,6.9484960000000004,72.36904899999999,1,1,1789162776.1911309,-0.9099623248113078,-0.40925957941560975,-0.06440704898750824,-0.01808026883868043,175.06211219489148,-5.878365109985668,48.68577112510539,-0.09031677453342696,-0.00504469966996441,-0.7351878333443747,-3.485381533985138,2.0171298717689514,-11.863006634159088
2026-09-11T17:39:36.233,5.3805116800000405,-301.9390869140625,-27174.517822265625,-108698.0712890625,-206.82827453613282,-14.315931396484377,-5.234957218170166,-3.585945694446564,-8.021532065243736,-1.0933790947128954,0.0,-0.15413665771484375,-1262.6875,-55.48919677734375,-0.0762939527630806,-27.465822994709015,-1314.9497444573926,1,1789162776.043512,38.9914209,-76.93659394666666,-11.699000000000002,0,1,8.538084000000001,6.9484960000000004,72.36904899999999,1,1,1789162776.223131,-0.9052120294383427,-0.41975538580247473,-0.0636546271808976,-0.018565728867824257,174.98099961964496,-5.719346757836447,50.00607250319629,-0.0014973179652859353,0.0737457459503668,-0.7463158781221653,-0.021770763359069824,-0.8219934165573121,-5.822894666538239
