timestamp,time_s,drive_pos_turns,drive_encoder_count,drive_wheel_angle_deg,drive_distance_m,drive_distance_since_start_m,drive_velocity_turns_s,drive_velocity_mps,drive_velocity_mph,drive_acceleration_mps2,drive_iq_A,steer_pos_turns,steer_encoder_count,steer_angle_deg,steer_velocity_turns_s,steer_velocity_deg_s,steer_acceleration_deg_s2,gps_received,gps_ros_stamp_s,gps_latitude_deg,gps_longitude_deg,gps_altitude_m,gps_status,gps_service,gps_cov_x_m2,gps_cov_y_m2,gps_cov_z_m2,gps_covariance_type,imu_received,imu_ros_stamp_s,imu_qx,imu_qy,imu_qz,imu_qw,imu_roll_deg,imu_pitch_deg,imu_yaw_deg,imu_gyro_x_rad_s,imu_gyro_y_rad_s,imu_gyro_z_rad_s,imu_accel_x_mps2,imu_accel_y_mps2,imu_accel_z_mps2
2026-09-11T17:38:59.693,7.712000012816134e-06,-14.088629722595215,-1267.9766750335693,-5071.906700134277,-9.650711359977723,-0.0089778470993042,-3.744708776473999,-2.5651255118846894,-5.738022351209481,0.0,0.0,-0.21196365356445312,-1736.40625,-76.30691528320312,0.0,0.0,1541.2780799258826,1,1789162739.099963,38.991374361666665,-76.93665763999999,-9.527000000000001,0,1,17.230801,6.969600000000001,72.36904899999999,1,1,1789162739.6895914,-0.771057832423493,-0.6319787994589497,-0.07721767897791028,-0.01049028817877002,173.42985427530286,-6.07437272361404,79.02683656556441,-0.03225926963046159,0.05396907113016866,-0.5943922971189173,4.984426077709198,2.0432155611991885,-7.523760070590972
2026-09-11T17:38:59.727,0.03341932800000791,-14.215401649475098,-1279.3861484527588,-5117.544593811035,-9.737550129890442,-0.09581661701202393,-3.7977702617645264,-2.601472629308701,-5.8193285372868155,-1.0878587083012348,0.0,-0.21224594116210938,-1738.71875,-76.40853881835938,-0.015258789993822575,-5.493164397776127,-164.40882110511907,1,1789162739.099963,38.991374361666665,-76.93665763999999,-9.527000000000001,0,1,17.230801,6.969600000000001,72.36904899999999,1,1,1789162739.7215915,-0.7650378463606142,-0.6393332810729927,-0.0766652106340132,-0.009617423085068246,173.49030169036314,-6.0275178894324055,80.113322728058,0.12286192909536522,0.06554374566354465,-0.60257282985594,-6.010593950634002,-2.4760810993385314,-18.54104119480133
2026-09-11T17:38:59.761,0.06683631999999307,-14.343008041381836,-1290.8707237243652,-5163.482894897461,-9.824960508346559,-0.18322699546813967,-3.772723436355591,-2.58431555390358,-5.780949252647587,0.5134236919088505,0.0,-0.21380615234375,-1751.5,-76.97021484375,0.0,0.0,164.38237163232904,1,1789162739.099963,38.991374361666665,-76.93665763999999,-9.527000000000001,0,1,17.230801,6.969600000000001,72.36904899999999,1,1,1789162739.7495914,-0.7593828270451671,-0.6458052953476704,-0.07873389612341182,-0.008614876146861955,173.36992790317117,-6.226045878506083,81.11895240434178,0.03688613747749856,0.0815690097895062,-0.5923890082034782,5.020416483802795,-0.5599597242355346,-12.016676842193604
2026-09-11T17:38:59.795,0.10024985600000491,-14.473082542419434,-1302.577428817749,-5210.309715270996,-9.914061541557313,-0.27232802867889405,-3.852295398712158,-2.6388223481178286,-5.90287747878898,-1.631278839037844,0.0,-0.21532249450683594,-1763.921875,-77.51609802246094,-0.1525879055261612,-54.93164598941803,-1643.9937990818619,1,1789162739.099963,38.991374361666665,-76.93665763999999,-9.527000000000001,0,1,17.230801,6.969600000000001,72.36904899999999,1,1,1789162739.7895913,-0.7511286703433676,-0.6556393681868504,-0.07647998917033914,-0.009672162542945865,173.37208388632655,-5.86643047608619,82.57359651376494,0.09373343107713106,0.03856060636186192,-0.6911915735601015,-2.263570990333557,2.6567195953178406,-7.304385306472778
2026-09-11T17:38:59.829,0.13367328000001066,-14.608960151672363,-1314.8064136505127,-5259.225654602051,-10.00713770389557,-0.3654041910171509,-4.009754180908203,-2.7466816139221195,-6.144151784900941,-3.2270561449441084,0.0,-0.2180500030517578,-1786.265625,-78.49800109863281,-0.015258789993822575,-5.493164397776127,1479.1567013491315,1,1789162739.099963,38.991374361666665,-76.93665763999999,-9.527000000000001,0,1,17.230801,6.969600000000001,72.36904899999999,1,1,1789162739.8215914,-0.7442149416506219,-0.6635069836164248,-0.07631924375104387,-0.008830421816843372,173.39530117875498,-5.847309951104116,83.7750711801885,0.053078778678726346,0.08589149221499534,-0.6898687885200151,1.1152122563934326,-2.5921918372535706,-8.730174173488617
2026-09-11T17:38:59.862,0.1670940479999956,-14.747761726379395,-1327.2985553741455,-5309.194221496582,-10.102216782569887,-0.4604832696914673,-4.141138553619385,-2.8366799092292787,-6.345472237896554,-2.6928853133237314,0.0,-0.2262420654296875,-1853.375,-81.4471435546875,-0.3662109673023224,-131.83594822883606,-3780.367459871564,1,1789162739.099963,38.991374361666665,-76.93665763999999,-9.527000000000001,0,1,17.230801,6.969600000000001,72.36904899999999,1,1,1789162739.8615913,-0.7346486386111903,-0.673833257568011,-0.07873580909430068,-0.006386794835691411,173.3293720709586,-6.146962240051296,85.41381695080072,0.11404260585211268,0.0007316420224360229,-0.7457229897752627,0.8654368767738342,0.9107436005210876,-13.570932826328278
2026-09-11T17:38:59.896,0.20051286399998958,-14.891965866088867,-1340.276927947998,-5361.107711791992,-10.200996618270874,-0.559263105392456,-4.29691219329834,-2.943384852409363,-6.584164397837688,-3.192960013308181,0.0,-0.24504470825195312,-2007.40625,-88.21609497070312,-0.7171631455421448,-258.1787323951721,-3780.5882819534622,1,1789162739.099963,38.991374361666665,-76.93665763999999,-9.527000000000001,0,1,17.230801,6.969600000000001,72.36904899999999,1,1,1789162739.8895915,-0.7274701246914907,-0.6813650169379195,-0.08054953487427317,-0.006379953453896711,173.12193762920958,-6.228889298483424,86.62593998594869,0.028910157328809673,0.04721063266767101,-0.7846326619875236,6.953601430187225,-0.6066393790054321,-4.9769730235862735
2026-09-11T17:38:59.928,0.233919807999996,-15.03735637664795,-1353.3620738983154,-5413.448295593262,-10.300589118003845,-0.6588556051254273,-4.427320957183838,-3.032714855670929,-6.783989924102823,-2.673995061073196,0.0,-0.2463970184326172,-2018.484375,-88.70292663574219,0.1373291164636612,49.43848192691803,9208.181817589508,1,1789162739.099963,38.991374361666665,-76.93665763999999,-9.527000000000001,0,1,17.230801,6.969600000000001,72.36904899999999,1,1,1789162739.9215913,-0.7187181242827774,-0.6903175896133598,-0.08290327085237328,-0.005738552066985839,172.90733812033477,-6.38710776823011,88.08684982925169,-0.09247993560834873,0.09960402054913918,-0.7934441312491421,9.365841236972809,0.20044792930603028,0.2721345419883728
2026-09-11T17:38:59.963,0.26733577600001013,-15.192214965820312,-1367.2993469238281,-5469.1973876953125,-10.406667251586915,-0.7649337387084961,-4.58427619934082,-3.140229196548462,-7.024492655128084,-3.2174540290883553,0.0,-0.24918556213378906,-2041.328125,-89.70680236816406,-0.045776382088661194,-16.47949755191803,-1972.6491083187598,1,1789162739.099963,38.991374361666665,-76.93665763999999,-9.527000000000001,0,1,17.230801,6.969600000000001,72.36904899999999,1,1,1789162739.9615915,-0.7067701417884903,-0.7025539515877649,-0.08269815697704573,-0.007411249374708786,172.68061028797763,-6.1126481787053315,90.04852352489027,0.08095378122817819,0.015038804032734339,-0.8839994922913167,-0.8275832071495057,-0.6345883319664002,-6.7871825769424445
2026-09-11T17:38:59.996,0.3007528320000006,-15.34717845916748,-1381.2460613250732,-5524.984245300293,-10.512817244529725,-0.8710837316513063,-4.611394882202148,-3.158805494308472,-7.066046649759459,-0.5558927082031169,0.0,-0.2504310607910156,-2051.53125,-90.15518188476562,0.0,0.0,493.1463008567463,1,1789162739.099963,38.991374361666665,-76.93665763999999,-9.527000000000001,0,1,17.230801,6.969600000000001,72.36904899999999,1,1,1789162739.9895914,-0.6979095963495454,-0.7114577322038731,-0.08179191251658008,-0.007757168131269098,172.6521748653504,-5.919376707370085,91.4819451986719,0.06326574192384166,0.02105669929361079,-0.8924812688572336,-3.508132962360382,-1.4696245932388305,-9.269539932384491
2026-09-11T17:39:00.029,0.3341709119999905,-15.502577781677246,-1395.2320003509521,-5580.928001403809,-10.619265780448915,-0.9775322675704957,-4.665173053741455,-3.195643541812897,-7.14845101515053,-1.1023388388691355,0.0,-0.25046730041503906,-2051.828125,-90.16822814941406,0.0457763746380806,16.479494869709015,493.1311095584782,1,1789162739.099963,38.991374361666665,-76.93665763999999,-9.527000000000001,0,1,17.230801,6.969600000000001,72.36904899999999,1,1,1789162740.0215914,-0.6878599215547533,-0.7216213199375633,-0.07768339438509077,-0.008757235126922624,172.8355030401216,-5.407105235763365,93.08304935727013,-0.0010761700167797035,-0.019823449644151593,-0.8701850367288565,-2.438913895225525,-0.48484078399658204,-13.626830732250214
2026-09-11T17:39:00.063,0.3675871039999947,-15.656939506530762,-1409.1245555877686,-5636.498222351074,-10.725003561973573,-1.083270049095154,-4.639347553253174,-3.1779530739784243,-7.108878565628178,0.529398078466578,0.0,-0.2501544952392578,-2049.265625,-90.05561828613281,0.0,0.0,-493.1589712468413,1,1789162739.099963,38.991374361666665,-76.93665763999999,-9.527000000000001,0,1,17.230801,6.969600000000001,72.36904899999999,1,1,1789162740.0615914,-0.6752601398790966,-0.7335472257463419,-0.07643043664160949,-0.00951837407758975,172.7911611010402,-5.120835585176733,95.06112101435733,0.0038273325166983656,-0.054300858220972775,-0.8556956623446499,1.8141322134208677,1.2437774400138855,-8.4887344465065
2026-09-11T17:39:00.096,0.40101395199999956,-15.812762260437012,-1423.148603439331,-5692.594413757324,-10.831742148399353,-1.1900086355209352,-4.640773773193359,-3.1789300346374514,-7.111063964382265,-0.029226825665014555,0.0,-0.248870849609375,-2038.75,-89.593505859375,0.030517585575580597,10.986330807209015,328.66786623756525,1,1789162740.070632,38.99137993833333,-76.936643935,-9.555000000000003,0,1,17.230801,6.969600000000001,72.36904899999999,1,1,1789162740.0895913,-0.666554967889018,-0.7415829148736908,-0.07541472671426923,-0.008477862025439403,172.89813985248227,-5.046375901190178,96.41321647569549,0.09465636118558567,0.06587169302999439,-0.8633740638558737,-0.10404855821609496,0.3270517828941345,-4.590787140216827
2026-09-11T17:39:00.129,0.43443209599999477,-15.966361045837402,-1436.9724941253662,-5747.889976501465,-10.93695731639862,-1.2952238035202028,-4.563788890838623,-3.1261953902244572,-6.993099924446255,1.5780243335177948,0.0,-0.24720382690429688,-2025.09375,-88.99337768554688,-0.0457763709127903,-16.479493528604507,-821.8835952055704,1,1789162740.070632,38.99137993833333,-76.936643935,-9.555000000000003,0,1,17.230801,6.969600000000001,72.36904899999999,1,1,1789162740.1215913,-0.6566740642498891,-0.7503806178845265,-0.07536392360567615,-0.005327350516613566,173.07326110944447,-5.220217651241503,97.93642774214254,0.01366313551631241,0.07518930777469131,-0.8410797515896737,1.1213904459953308,-0.48582144901275637,-17.103974680099487
2026-09-11T17:39:00.163,0.46784867200000235,-16.118328094482422,-1450.649528503418,-5802.598114013672,-11.04105474472046,-1.3993212318420412,-4.56593132019043,-3.1276629543304444,-6.9963827718558536,-0.04391724951074603,0.0,-0.24379920959472656,-1997.203125,-87.76771545410156,0.4272461533546448,153.80861520767212,5095.917329658131,1,1789162740.070632,38.99137993833333,-76.936643935,-9.555000000000003,0,1,17.230801,6.969600000000001,72.36904899999999,1,1,1789162740.1615913,-0.6445308195270668,-0.7610225195863211,-0.07340372436432367,-0.006053148907930154,173.10991683385788,-4.899530569788435,99.77077651932362,0.21960710032973774,-0.07244826818443421,-0.7870630329709257,-0.2622298253250122,0.712060868244171,-4.647273445148468
2026-09-11T17:39:00.197,0.5012690560000124,-16.268680572509766,-1464.181251525879,-5856.725006103516,-11.14404619216919,-1.5023126792907715,-4.515933990478516,-3.0934147834777836,-6.919771795539058,1.024768921046822,0.0,-0.24017906188964844,-1967.546875,-86.46446228027344,0.1525879055261612,54.93164598941803,-2958.58267870963,1,1789162740.070632,38.99137993833333,-76.936643935,-9.555000000000003,0,1,17.230801,6.969600000000001,72.36904899999999,1,1,1789162740.1895914,-0.6361326693474227,-0.7682484027508598,-0.07112177049000529,-0.008444668261231492,173.08571182798164,-4.445486749694219,101.01714675621695,0.008335867040450117,-0.09639837431200121,-0.7988932237067936,-3.429777827568054,-0.32813051441192626,1.8251156616020203
2026-09-11T17:39:00.230,0.5346891199999959,-16.417774200439453,-1477.5996780395508,-5910.398712158203,-11.246175327301026,-1.6044418144226076,-4.464801788330078,-3.0583892250061036,-6.841421852644283,1.0480398383347604,0.0,-0.23184776306152344,-1899.296875,-83.46519470214844,0.2288818508386612,82.39746630191803,821.8362571811211,1,1789162740.070632,38.99137993833333,-76.936643935,-9.555000000000003,0,1,17.230801,6.969600000000001,72.36904899999999,1,1,1789162740.2215915,-0.6270077214744173,-0.7757897845019898,-0.07024933377720986,-0.008749775864215336,173.09033688569338,-4.273515367491925,102.36654215410192,-0.06387137117428368,-0.1985217776363942,-0.7279091122318575,-2.713107833747864,-3.0738944931983947,-5.8589831391334535
2026-09-11T17:39:00.263,0.5681058560000167,-16.57038116455078,-1491.3343048095703,-5965.337219238281,-11.350711097717285,-1.7089775848388673,-4.518076419830322,-3.094882347583771,-6.923054642948657,-1.092061252710154,0.0,-0.22646713256835938,-1855.21875,-81.52816772460938,0.1373291164636612,49.43848192691803,-986.3017254282246,1,1789162740.070632,38.99137993833333,-76.936643935,-9.555000000000003,0,1,17.230801,6.969600000000001,72.36904899999999,1,1,1789162740.2615914,-0.6155613505787848,-0.7847800431396128,-0.07164168108287917,-0.00848393157851732,172.92106128049278,-4.294537690129962,104.04630259118137,-0.057466187352389696,0.02341952603496071,-0.7431465347334688,7.982024832649231,-0.6658715459823609,-9.415168687286377
2026-09-11T17:39:00.297,0.6015231679999999,-16.719844818115234,-1504.786033630371,-6019.144134521484,-11.453093700408937,-1.8113601875305176,-4.4666428565979,-3.059650356769562,-6.844242924055025,1.0543035542244275,0.0,-0.21865463256835938,-1791.21875,-78.71566772460938,0.4730224907398224,170.28809666633606,3616.377485402738,1,1789162740.070632,38.99137993833333,-76.936643935,-9.555000000000003,0,1,17.230801,6.969600000000001,72.36904899999999,1,1,1789162740.2895913,-0.6076093390306415,-0.7910454080960244,-0.07064914064054621,-0.008170212952753053,172.99090563413034,-4.182187195672085,105.19983668535508,0.03292424007547143,0.15339192650295083,-0.6573882111404006,3.312098025627136,-0.6165440956687926,-9.092333763961792
2026-09-11T17:39:00.330,0.6349407360000043,-16.868345260620117,-1518.1510734558105,-6072.604293823242,-11.554816503524782,-1.9130829906463624,-4.440430164337158,-3.0416946625709538,-6.804077180053128,0.5373130144780655,0.0,-0.21628570556640625,-1771.8125,-77.86285400390625,-0.1068115308880806,-38.452151119709015,-6246.422474131499,1,1789162740.070632,38.99137993833333,-76.936643935,-9.555000000000003,0,1,17.230801,6.969600000000001,72.36904899999999,1,1,1789162740.3215914,-0.598937511297844,-0.7974083082329035,-0.07339216822957892,-0.005238049641333065,172.89351745599322,-4.56332766081507,106.46270620027705,-0.10153644909694731,0.1414201895647461,-0.707562412877958,6.626157381286621,-0.5122013379478454,-6.923789213695526
2026-09-11T17:39:00.363,0.6683595519999983,-17.014972686767578,-1531.347541809082,-6125.390167236328,-11.655256290435792,-2.013522777557373,-4.388969421386719,-3.0064440536499024,-6.7252238136406115,1.0548132202247298,0.0,-0.21460342407226562,-1758.03125,-77.25723266601562,0.1220703199505806,43.945315182209015,2465.6010045937264,1,1789162740.070632,38.99137993833333,-76.936643935,-9.555000000000003,0,1,17.230801,6.969600000000001,72.36904899999999,1,1,1789162740.3615913,-0.5876975472220105,-0.8057245791040709,-0.07355454920289244,-0.003037088796802205,172.9631687911857,-4.678328873761773,108.07359557390268,-0.02980673296555916,0.10395495184143586,-0.6611476503491963,-2.2352297713661193,-2.762337217559814,-0.032656145038604735
2026-09-11T17:39:00.397,0.7017781119999995,-17.161401748657227,-1544.5261573791504,-6178.104629516602,-11.755560197830201,-2.1138266849517824,-4.363361358642578,-2.9889025306701664,-6.685984544269334,0.524903615827114,0.0,-0.20789527893066406,-1703.078125,-74.84230041503906,0.5798340439796448,208.74025583267212,4931.240025017749,1,1789162740.070632,38.99137993833333,-76.936643935,-9.555000000000003,0,1,17.230801,6.969600000000001,72.36904899999999,1,1,1789162740.3895915,-0.5801272919700557,-0.8113385243505324,-0.07196179882534338,-0.0019035561485703087,173.1444949335587,-4.611854147389309,109.14495689991534,0.04068886085174381,0.023442389848161837,-0.6574054898999953,-1.8762083089447021,-1.285946035709381,-6.958798954772949
2026-09-11T17:39:00.430,0.7351937919999898,-17.306182861328125,-1557.5564575195312,-6230.225830078125,-11.854735260009766,-2.2130017471313477,-4.312461853027344,-2.9540363693237306,-6.607991162588868,1.0434072072286413,0.0,-0.1979198455810547,-1621.359375,-71.25114440917969,0.4272461533546448,153.80861520767212,-1643.8881574463235,1,1789162740.070632,38.99137993833333,-76.936643935,-9.555000000000003,0,1,17.230801,6.969600000000001,72.36904899999999,1,1,1789162740.4215913,-0.5719360617576988,-0.8169513842965839,-0.07402080406859006,0.000705352414392664,173.07437334213077,-4.92334140837701,110.30746141128625,-0.04545884569744431,0.1169955284135619,-0.5912060240364764,1.4450099013328552,0.1153262059020996,-10.251381746578216
2026-09-11T17:39:00.464,0.7686111360000041,-17.448198318481445,-1570.33784866333,-6281.35139465332,-11.95201584815979,-2.3102823352813724,-4.28761625289917,-2.9370171332359316,-6.569920215721028,0.5092935000397312,0.0,-0.1775951385498047,-1454.859375,-63.93424987792969,1.0681153535842896,384.52152729034424,6903.9871056949805,1,1789162740.070632,38.99137993833333,-76.936643935,-9.555000000000003,0,1,17.230801,6.969600000000001,72.36904899999999,1,1,1789162740.4615915,-0.5623772523932314,-0.8237373836708652,-0.07203103405606859,-0.00028083185542843376,173.1440752454232,-4.620442945763962,111.63309653020698,-0.1481943359905117,0.039723693775390936,-0.5782549828549778,-3.4887157950401306,0.25634583522796633,-12.539273229312897
2026-09-11T17:39:00.497,0.8020371839999996,-17.59177589416504,-1583.2598304748535,-6333.039321899414,-12.050366487503053,-2.4086329746246338,-4.262765884399414,-2.9199946308135987,-6.531841962270928,0.5092586004284814,0.0,-0.1717967987060547,-1407.359375,-61.84684753417969,-0.04577639698982239,-16.47950291633606,-11996.662908122864,1,1789162740.070632,38.99137993833333,-76.936643935,-9.555000000000003,0,1,17.230801,6.969600000000001,72.36904899999999,1,1,1789162740.4895914,-0.5557151447487844,-0.8281942830339809,-0.07255652823819415,-0.003233830033927498,172.86958390224316,-4.31760043234272,112.54621980375038,-0.0940310097145961,0.0717471694239081,-0.5353849840370166,-2.155795905056,2.450976074924469,-9.948650456085206
2026-09-11T17:39:00.531,0.8354677119999963,-17.733983993530273,-1596.0585594177246,-6384.234237670898,-12.147779035568238,-2.5060455226898197,-4.3151936531066895,-2.9559076523780825,-6.612177103565854,-1.0742582816666073,0.0,-0.15972900390625,-1308.5,-57.50244140625,0.2593994736671448,93.38381052017212,3286.3170284513326,1,1789162740.070632,38.99137993833333,-76.936643935,-9.555000000000003,0,1,17.230801,6.969600000000001,72.36904899999999,1,1,1789162740.5215914,-0.5495914017975191,-0.8322639807041143,-0.07269434331582804,-0.0012206320739555456,172.95111666801293,-4.466292901917219,113.39710215293093,-0.2967518749983635,-0.06101985224237535,-0.4400519587004327,1.2705495949554444,-0.29880863042831424,-15.45292705886841
2026-09-11T17:39:00.564,0.8688877120000029,-17.873552322387695,-1608.6197090148926,-6434.47883605957,-12.243383340835573,-2.6016498279571536,-4.212186813354492,-2.8853479671478275,-6.454339582918362,2.111301173855205,0.0,-0.15449905395507812,-1265.65625,-55.619659423828125,0.1831054985523224,65.91797947883606,-821.8381520446014,1,1789162740.070632,38.99137993833333,-76.936643935,-9.555000000000003,0,1,17.230801,6.969600000000001,72.36904899999999,1,1,1789162740.5615914,-0.5414947208882013,-0.8375118722586583,-0.07317143588746398,-0.0018088798115942723,172.82582039827508,-4.370977663934685,114.50462820489,-0.015304268611962678,0.13608384537677348,-0.43703760054931334,-1.0743185252189635,5.287255434703827,-17.357182387275696
2026-09-11T17:39:00.597,0.9023059840000087,-18.016874313354492,-1621.5186882019043,-6486.074752807617,-12.341558904647828,-2.6998253917694095,-4.291335105895996,-2.9395645475387577,-6.575618619225918,-1.6223633702820073,0.0,-0.150177001953125,-1230.25,-54.063720703125,0.0762939527630806,27.465822994709015,-1150.6326983070928,1,1789162740.070632,38.99137993833333,-76.936643935,-9.555000000000003,0,1,17.230801,6.969600000000001,72.36904899999999,1,1,1789162740.5895913,-0.5361081789135969,-0.8407098697463636,-0.07611685929160732,0.0010766357697116486,172.68792412044027,-4.785405867137485,115.25584484815448,-0.17293507626923216,0.12069178670343549,-0.4445964470067756,7.4583497140121455,2.0671437875938414,-6.702256986541749
2026-09-11T17:39:00.631,0.935730656000004,-18.159360885620117,-1634.3424797058105,-6537.369918823242,-12.439162206649781,-2.7974286937713626,-4.266526699066162,-2.9225707888603214,-6.537604663699709,0.5084196092766059,0.0,-0.14425277709960938,-1181.71875,-51.930999755859375,0.1983642876148224,71.41114354133606,1314.756971934779,1,1789162740.070632,38.99137993833333,-76.936643935,-9.555000000000003,0,1,17.230801,6.969600000000001,72.36904899999999,1,1,1789162740.6215913,-0.5300699938523464,-0.8444134781359393,-0.07738936408500147,0.001601838399549495,172.56133140321845,-4.861579320972733,116.08015483362409,-0.06708679125523284,0.09093566828618416,-0.46525259323705365,2.3421222581291197,1.8331571147346497,-14.645643617553713
2026-09-11T17:39:00.665,0.9691544640000131,-18.305776596069336,-1647.5198936462402,-6590.079574584961,-12.539456968307496,-2.897723455429077,-4.37221097946167,-2.9949645209312443,-6.69954483028642,-2.165933099870105,0.0,-0.14150047302246094,-1159.171875,-50.94017028808594,-0.1373291164636612,-49.43848192691803,-3615.6749544582467,1,1789162740.070632,38.99137993833333,-76.936643935,-9.555000000000003,0,1,17.230801,6.969600000000001,72.36904899999999,1,1,1789162740.6615913,-0.5224865849312452,-0.8488146043563498,-0.08074793836216665,0.0011429997889980275,172.16072069018605,-4.951923901928245,117.11087632655388,-0.04732704612877904,-0.008160112384774288,-0.41753372069120187,1.8633615972328188,3.2850316711807253,-9.173238627796172
2026-09-11T17:39:00.698,1.002581632000016,-18.453868865966797,-1660.8481979370117,-6643.392791748047,-12.640900173187257,-2.999166660308838,-4.450771808624268,-3.0487786889076234,-6.819923695659494,-1.6098931257465305,0.0,-0.13994216918945312,-1146.40625,-50.379180908203125,0.015258791856467724,5.493165068328381,1643.3233887848846,1,1789162740.070632,38.99137993833333,-76.936643935,-9.555000000000003,0,1,17.230801,6.969600000000001,72.36904899999999,1,1,1789162740.6895914,-0.5175333483623625,-0.8519207276512708,-0.07990728067211554,0.0022657507715081867,172.28137257255963,-4.966303175025589,117.77870782398573,0.10069938918769084,0.15941540681743366,-0.4080742106783178,-2.909633102989197,-0.12562318857192994,-3.8540135135650635
2026-09-11T17:39:00.731,1.0360126399999956,-18.603246688842773,-1674.2922019958496,-6697.168807983398,-12.743223981857302,-3.101490468978882,-4.477090835571289,-3.066807222366333,-6.860252376445799,-0.5392757962524143,0.0,-0.139251708984375,-1140.75,-50.130615234375,0.015258789993822575,5.493164397776127,-2.0057793462989646e-05,1,1789162740.070632,38.99137993833333,-76.936643935,-9.555000000000003,0,1,17.230801,6.969600000000001,72.36904899999999,1,1,1789162740.7215915,-0.5117440915577723,-0.855381305457033,-0.0800147105182337,0.006201058862449669,172.46674750100632,-5.307599181836524,118.56852129268253,0.041429404053365,0.008990190977022791,-0.4518927959447378,1.7238129654312133,-0.05717277044296265,-5.9354750103950495
2026-09-11T17:39:00.765,1.0694292480000058,-18.75722885131836,-1688.1505966186523,-6752.602386474609,-12.848701763153077,-3.2069682502746586,-4.5810627937316895,-3.1380280137062075,-7.019568749342797,-2.131299243174309,0.0,-0.13910484313964844,-1139.546875,-50.07774353027344,0.030517585575580597,10.986330807209015,164.38432079734744,1,1789162740.070632,38.99137993833333,-76.936643935,-9.555000000000003,0,1,17.230801,6.969600000000001,72.36904899999999,1,1,1789162740.7615914,-0.5040271595686614,-0.859990211822726,-0.07934659258376608,0.008807737030348121,172.63572362784592,-5.459079035435771,119.60374340212718,0.1265295639855061,0.0958473738671466,-0.4430738217673357,1.951817581691742,0.07296147720336915,-6.990376368293762
2026-09-11T17:39:00.798,1.1028459839999982,-18.914081573486328,-1702.2673416137695,-6809.069366455078,-12.956145877838136,-3.314412364959717,-4.659877300262451,-3.1920159506797794,-7.140336324892125,-1.6155957593699197,0.0,-0.1388988494873047,-1137.859375,-50.00358581542969,0.1068115308880806,38.452151119709015,821.9181045242195,1,1789162740.070632,38.99137993833333,-76.936643935,-9.555000000000003,0,1,17.230801,6.969600000000001,72.36904899999999,1,1,1789162740.7895913,-0.49837597623995544,-0.8631279831273821,-0.08102251872083811,0.008174503621654564,172.39664428799563,-5.443874366950584,120.3571537448036,0.13234622278362762,0.09060161226735244,-0.44217270827453103,4.193813941669464,0.6326270019340515,-7.167680603218079
2026-09-11T17:39:00.832,1.1362704960000087,-19.076425552368164,-1716.8782997131348,-6867.513198852539,-13.067351503372194,-3.4256179904937745,-4.842341423034668,-3.317003874778748,-7.419926348377649,-3.739409092911487,0.0,-0.13875579833984375,-1136.6875,-49.95208740234375,0.0,0.0,-1150.4177269572979,1,1789162740.070632,38.99137993833333,-76.936643935,-9.555000000000003,0,1,17.230801,6.969600000000001,72.36904899999999,1,1,1789162740.8295913,-0.4897059924492078,-0.8677164961679796,-0.08484133614770184,0.007620427676563139,171.92751216859645,-5.527262015687378,121.51287827636907,0.0016566665259930176,0.06403246506424276,-0.48776105740247333,-0.435317200679779,1.8949390107536317,-11.973135315475464
2026-09-11T17:39:00.865,1.1696896640000034,-19.241172790527344,-1731.705551147461,-6926.822204589844,-13.180203361511232,-3.5384698486328126,-4.947464942932129,-3.3890134859085084,-7.581007260890535,-2.154739792737271,0.0,-0.13892745971679688,-1138.09375,-50.013885498046875,0.0915527418255806,32.958987057209015,986.2300299401311,1,1789162740.070632,38.99137993833333,-76.936643935,-9.555000000000003,0,1,17.230801,6.969600000000001,72.36904899999999,1,1,1789162740.8615913,-0.48300182556026466,-0.871398843723718,-0.08527447731643607,0.010077459046183984,171.97645139006275,-5.73562494360979,122.4048504838196,0.10191832713728367,0.05055712697544495,-0.47962136536994737,4.333558706474304,1.2621158758163453,-10.373572607593536
2026-09-11T17:39:00.898,1.2031116800000063,-19.41170310974121,-1747.053279876709,-6988.213119506836,-13.297016630172731,-3.655283117294312,-5.103959083557129,-3.4962119722366336,-7.820803445411215,-3.2074213095977155,0.0,-0.13860702514648438,-1135.46875,-49.898529052734375,0.0457763709127903,16.479493528604507,-493.0729950163107,1,1789162740.070632,38.99137993833333,-76.936643935,-9.555000000000003,0,1,17.230801,6.969600000000001,72.36904899999999,1,1,1789162740.8895915,-0.47703317167921067,-0.87465741602799,-0.08564231068399607,0.008896759276179935,171.83636807553842,-5.582083135652584,123.18306298839224,-0.1612467808015513,-0.13007904008528698,-0.5071375282251892,0.128369050617218,2.0548854748916625,2.5460025149917604
2026-09-11T17:39:00.932,1.236536319999999,-19.58424186706543,-1762.5817680358887,-7050.327072143555,-13.41520567893982,-3.7734721660614015,-5.183313846588135,-3.5505699849128725,-7.942398856730647,-1.6262856586114542,0.0,-0.1351337432861328,-1107.015625,-48.64814758300781,0.2899170219898224,104.37012791633606,2629.5162606912386,1,1789162740.070632,38.99137993833333,-76.936643935,-9.555000000000003,0,1,17.230801,6.969600000000001,72.36904899999999,1,1,1789162740.9295914,-0.4680894208070755,-0.8794540835012487,-0.08589081107219719,0.008693544434569905,171.74410709924845,-5.49162806249452,124.34835993948988,-0.0825518046913042,0.016779769961598683,-0.5511955726649828,-0.8050279117774963,0.8359188597869873,-3.7557508789443967
2026-09-11T17:39:00.965,1.2699551999999983,-19.759309768676758,-1778.3378791809082,-7113.351516723633,-13.53512719154358,-3.8933936786651615,-5.236583709716797,-3.587059841156006,-8.02402434045276,-1.0918934519389796,0.0,-0.13098526000976562,-1073.03125,-47.154693603515625,0.2746582329273224,98.87696385383606,-164.37307481579637,1,1789162740.070632,38.99137993833333,-76.936643935,-9.555000000000003,0,1,17.230801,6.969600000000001,72.36904899999999,1,1,1789162740.9615915,-0.46164718915991937,-0.882811040727269,-0.08656949651907053,0.005679910493705673,171.47704306601392,-5.161173887879944,125.17212550551879,-0.036277541167328134,-0.07921752768829422,-0.460942851715104,-3.8488159889793394,0.25114831064224247,-3.7634000660705564
2026-09-11T17:39:00.999,1.303378400000014,-19.933551788330078,-1794.019660949707,-7176.078643798828,-13.654482975006104,-4.012749462127686,-5.186203479766846,-3.5525493836402897,-7.946826645580453,1.0325300245248903,0.0,-0.125244140625,-1026.0,-45.087890625,0.2899170517921448,104.37013864517212,164.3521503426808,1,1789162740.070632,38.99137993833333,-76.936643935,-9.555000000000003,0,1,17.230801,6.969600000000001,72.36904899999999,1,1,1789162740.9895914,-0.45568880706776504,-0.8859635455336258,-0.08600015056110612,0.004503465566813105,171.44042576296746,-4.954144138556463,125.93359674671524,0.13541398800985804,-0.2552315392909696,-0.45103618834785897,2.6466187456512453,0.3627479894828797,-12.351770078220367
2026-09-11T17:39:01.032,1.336809695999989,-20.102869033813477,-1809.258213043213,-7237.032852172852,-13.770465288162233,-4.128731775283814,-5.057318210601807,-3.4642629742622377,-7.749335572347516,2.640831195360123,0.0,-0.10948562622070312,-896.90625,-39.414825439453125,0.2899170517921448,104.37013864517212,0.0,1,1789162740.070632,38.99137993833333,-76.936643935,-9.555000000000003,0,1,17.230801,6.969600000000001,72.36904899999999,1,1,1789162741.0295913,-0.4485091647101849,-0.8899396510889022,-0.08269115759479796,0.003019775880320746,171.66672842704673,-4.562718627778721,126.83845717050791,0.09297595818176553,-0.12305234451675781,-0.3786894983258909,2.3176056327247623,1.3194847792625428,1.4273579310417177
2026-09-11T17:39:01.066,1.3702277760000072,-20.274198532104492,-1824.6778678894043,-7298.711471557617,-13.887825994491578,-4.246092481613159,-5.1111650466918945,-3.501148056983948,-7.831845152523139,-1.1037463170143218,0.0,-0.1044464111328125,-855.625,-37.6007080078125,0.015258791856467724,5.493165068328381,-2958.786787774447,1,1789162740.070632,38.99137993833333,-76.936643935,-9.555000000000003,0,1,17.230801,6.969600000000001,72.36904899999999,1,1,1789162741.0615914,-0.44362085677347124,-0.892445267622338,-0.08209980242957636,-0.0012657705516645663,171.4871389465747,-4.0474796618883495,127.43882853098039,-0.004824788184213125,-0.40124107212383475,-0.3432123651535273,-0.03412714256286621,3.462041706600189,-6.560747024707794
2026-09-11T17:39:01.099,1.4036479359999987,-20.44290542602539,-1839.8614883422852,-7359.445953369141,-14.003390216827393,-4.361656703948975,-5.085509300231934,-3.4835738706588746,-7.792532817329256,0.5258558404591069,0.0,-0.10429000854492188,-854.34375,-37.544403076171875,-0.0915527492761612,-32.95898973941803,-1150.5676456293509,1,1789162741.066874,38.991393151666664,-76.9366343,-9.599000000000004,0,1,17.230801,6.969600000000001,72.36904899999999,1,1,1789162741.0895913,-0.4389378934187139,-0.8946994923628301,-0.08266945625852745,-0.003479236806419347,171.29677868909258,-3.8042418184643223,128.02462978237304,-0.1969897276189936,-0.23695741842381335,-0.37700473199894075,1.6220199367523191,-2.7575319589805605,-3.332986190471649
2026-09-11T17:39:01.132,1.4370694719999904,-20.609203338623047,-1854.8283004760742,-7419.313201904297,-14.117304286956788,-4.47557077407837,-5.007421493530273,-3.4300837230682375,-7.672878764916414,1.6004694574974188,0.0,-0.10461044311523438,-856.96875,-37.659759521484375,-0.0915527418255806,-32.958987057209015,8.025391217486977e-05,1,1789162741.066874,38.991393151666664,-76.9366343,-9.599000000000004,0,1,17.230801,6.969600000000001,72.36904899999999,1,1,1789162741.1295915,-0.43308345435411233,-0.8977390834158646,-0.08054718846423117,-0.003925570386668271,171.47082999340248,-3.595896052682301,128.76144420392617,-0.03677478547122132,-0.07667702642909129,-0.37095367548227637,-0.5637843177986145,-2.3874289818763734,-7.4695292951965335
2026-09-11T17:39:01.166,1.4704963199999952,-20.774415969848633,-1869.697437286377,-7478.789749145508,-14.230474939346315,-4.588741426467896,-4.930240154266357,-3.377214505672455,-7.554613693791274,1.5816393276379181,0.0,-0.104949951171875,-859.75,-37.781982421875,-0.0610351599752903,-21.972657591104507,328.6678261169859,1,1789162741.066874,38.991393151666664,-76.9366343,-9.599000000000004,0,1,17.230801,6.969600000000001,72.36904899999999,1,1,1789162741.1615913,-0.42767569098196984,-0.9004940903746788,-0.07858636920722685,-0.005298973315646099,171.5869031585546,-3.3064016495331727,129.43394402587367,0.00036163222101322505,0.03696031397070832,-0.37151654416604457,-2.3975298315429687,0.4937648356437683,-7.709105758647919
2026-09-11T17:39:01.199,1.503921536000007,-20.937477111816406,-1884.3729400634766,-7537.491760253906,-14.34217182159424,-4.700438308715821,-4.905378818511963,-3.360184490680695,-7.516518635201976,0.5094960341244725,0.0,-0.10628318786621094,-870.671875,-38.26194763183594,0.0762939602136612,27.46582567691803,1479.0774506290375,1,1789162741.066874,38.991393151666664,-76.9366343,-9.599000000000004,0,1,17.230801,6.969600000000001,72.36904899999999,1,1,1789162741.1895914,-0.4230932171654621,-0.9028405259138736,-0.07660413906468018,-0.0017088693040962573,171.9500834170104,-3.5394463960827025,130.0312489441884,0.2614772000192313,0.20784061411156754,-0.3703272768137356,-1.8480632229804994,-0.45483243450164795,-5.589888658695221
2026-09-11T17:39:01.233,1.5373406399999965,-21.102371215820312,-1899.2134094238281,-7596.8536376953125,-14.455124282836914,-4.813390769958496,-4.9056549072265625,-3.3603736114501954,-7.516941686314852,-0.005659061640325696,0.0,-0.10679817199707031,-874.890625,-38.44734191894531,-0.1068115308880806,-38.452151119709015,-1972.4639175439295,1,1789162741.066874,38.991393151666664,-76.9366343,-9.599000000000004,0,1,17.230801,6.969600000000001,72.36904899999999,1,1,1789162741.2295914,-0.4160917791728447,-0.9060232512829367,-0.07738824393333853,-0.0007477569038835805,171.88652070166918,-3.6146815907641323,130.92247613675622,0.057922940017636614,0.10679233360640304,-0.3944538357286792,-5.401208709583282,2.9281676717948915,-9.985327327690124
2026-09-11T17:39:01.266,1.5707609920000039,-21.269630432128906,-1914.2667388916016,-7657.066955566406,-14.569696846008302,-4.927963333129883,-4.984061241149902,-3.4140819501876836,-7.637083818422691,-1.6070548490176377,0.0,-0.10677146911621094,-874.671875,-38.43772888183594,0.01525880303233862,5.493169091641903,1314.9269107441246,1,1789162741.066874,38.991393151666664,-76.9366343,-9.599000000000004,0,1,17.230801,6.969600000000001,72.36904899999999,1,1,1789162741.2615914,-0.4107859411007236,-0.9083624846724365,-0.078275293994136,0.0023420896315200436,171.91677421910745,-3.9314958300496747,131.61037106505285,0.0004707152992628707,0.0602655209396634,-0.38190107868248563,0.5390715593910217,-0.22467035520553588,-6.313521374130249
2026-09-11T17:39:01.299,1.6041828799999962,-21.436349868774414,-1929.2714881896973,-7717.085952758789,-14.683899660110475,-5.042166147232056,-5.0108466148376465,-3.4324299311637883,-7.678127082954063,-0.5489809844407618,0.0,-0.10517311096191406,-861.578125,-37.86231994628906,0.0915527492761612,32.95898973941803,821.7914154874319,1,1789162741.066874,38.991393151666664,-76.9366343,-9.599000000000004,0,1,17.230801,6.969600000000001,72.36904899999999,1,1,1789162741.2895913,-0.4065253949946692,-0.9101397224525648,-0.07981346719089202,0.003549548332481762,171.79237022987527,-4.091735638884748,132.15663705772099,0.09890047832766027,0.08906240640001864,-0.33319382618122945,0.852197899055481,-3.3403411780929564,-8.376154102649688
2026-09-11T17:39:01.333,1.6376013120000152,-21.60097312927246,-1944.0875816345215,-7776.350326538086,-14.796666593551636,-5.154933080673218,-4.934168338775635,-3.37990531206131,-7.560632856257396,1.5717260194149225,0.0,-0.10323715209960938,-845.71875,-37.165374755859375,0.10681155323982239,38.45215916633606,164.3754388869861,1,1789162741.066874,38.991393151666664,-76.9366343,-9.599000000000004,0,1,17.230801,6.969600000000001,72.36904899999999,1,1,1789162741.3295913,-0.40059346847413374,-0.9128694128191006,-0.07849869524090436,0.005680052873813098,172.00184308421086,-4.201391736500336,132.9073452883503,-0.013426817935592377,-0.03233379518952175,-0.3019149079916131,-0.603893516960144,-0.25742456674575803,-9.214426558475493
2026-09-11T17:39:01.366,1.671029279999999,-21.76749610900879,-1959.074649810791,-7836.298599243164,-14.910734834671022,-5.269001321792603,-4.962401390075684,-3.3992449522018435,-7.6038943991630275,-0.5785466870299393,0.0,-0.10059165954589844,-824.046875,-36.21299743652344,0.1831054836511612,65.91797411441803,821.6417745791567,1,1789162741.066874,38.991393151666664,-76.9366343,-9.599000000000004,0,1,17.230801,6.969600000000001,72.36904899999999,1,1,1789162741.3615913,-0.3961969209716826,-0.9150267482445049,-0.0756086128094555,0.006114530127145804,172.3072097996243,-4.077268608385349,133.45003908099181,0.12800541440099253,-0.1024995217781978,-0.32661201503903364,-2.4954002001571656,-2.699770789527893,-7.986339758720398
2026-09-11T17:39:01.399,1.7044557760000032,-21.93354606628418,-1974.0191459655762,-7896.076583862305,-15.024479055404663,-5.382745542526245,-4.990528583526611,-3.418512079715729,-7.646993735942478,-0.5764028486229305,0.0,-0.09997367858886719,-818.984375,-35.99052429199219,0.061035171151161194,21.97266161441803,-1314.6849882199606,1,1789162741.066874,38.991393151666664,-76.9366343,-9.599000000000004,0,1,17.230801,6.969600000000001,72.36904899999999,1,1,1789162741.3895915,-0.392275101218772,-0.9168882547147187,-0.07352921439940127,0.0054431571542585535,172.4803803797922,-3.8801070878394657,133.9294002189817,-0.00879715756175222,-0.08000624197727046,-0.334945438618531,-4.632857669410706,-1.9649584929084778,-2.6590731913566588
2026-09-11T17:39:01.433,1.7378708159999974,-22.098257064819336,-1988.8431358337402,-7955.372543334961,-15.137306089401246,-5.495572576522828,-4.913664817810059,-3.36586040019989,-7.529215283195881,1.5756880589054476,0.0,-0.10034942626953125,-822.0625,-36.12579345703125,-0.015258789993822575,-5.493164397776127,-821.9599920334957,1,1789162741.066874,38.991393151666664,-76.9366343,-9.599000000000004,0,1,17.230801,6.969600000000001,72.36904899999999,1,1,1789162741.4295914,-0.38671103430681963,-0.9194306216431151,-0.0711211818091066,0.006609495319689944,172.76412328342462,-3.8509196815696014,134.6204942571196,-0.10001190399533028,-0.1020347405983917,-0.3465436750968089,3.467435364189148,1.016949621772766,-4.781722618865967
2026-09-11T17:39:01.466,1.7712958399999934,-22.263296127319336,-2003.6966514587402,-8014.786605834961,-15.250357847213746,-5.608624334335327,-4.915149211883545,-3.3668772101402284,-7.531489822253545,-0.030420619603395944,0.0,-0.102874755859375,-842.75,-37.034912109375,0.0,0.0,164.34287071197852,1,1789162741.066874,38.991393151666664,-76.9366343,-9.599000000000004,0,1,17.230801,6.969600000000001,72.36904899999999,1,1,1789162741.4615915,-0.38231965072837515,-0.9213431042267356,-0.06974750640822551,0.009687843444761032,173.02576017539178,-4.081957179528957,135.17595099840827,0.007833561281726149,-0.025677633021190974,-0.2925452824352068,9.368881298522949,-0.8732821969032288,-12.006772125530244
2026-09-11T17:39:01.500,1.8047182720000023,-22.427669525146484,-2018.4902572631836,-8073.961029052734,-15.362953624725343,-5.721220111846924,-4.915159702301025,-3.3668843960762027,-7.531505896734518,-0.00021500338378312148,0.0,-0.10704803466796875,-876.9375,-38.53729248046875,-0.1525879055261612,-54.93164598941803,-1643.5562196492265,1,1789162741.066874,38.991393151666664,-76.9366343,-9.599000000000004,0,1,17.230801,6.969600000000001,72.36904899999999,1,1,1789162741.4895914,-0.377889659038071,-0.9231418746013734,-0.06976656095166664,0.011879053940874594,173.09829939669785,-4.281700074595555,135.734672094483,0.04377093777784059,0.07257585175275501,-0.3631117366201407,10.097515405540467,0.5408367564201355,-7.719304674816132
2026-09-11T17:39:01.533,1.8381417280000107,-22.59286880493164,-2033.3581924438477,-8133.432769775391,-15.476115131378174,-5.834381618499756,-4.941897392272949,-3.3851997137069705,-7.572476095443286,-0.5479779718399906,0.0,-0.11185073852539062,-916.28125,-40.266265869140625,-0.015258817933499813,-5.493174456059933,1479.1549842525462,1,1789162741.066874,38.991393151666664,-76.9366343,-9.599000000000004,0,1,17.230801,6.969600000000001,72.36904899999999,1,1,1789162741.5295913,-0.3703787348699936,-0.9261321614767675,-0.07033746828089361,0.01230661571302213,173.02082036452182,-4.2953679861341385,136.66714319264665,-0.06881047842450244,0.12493031879190371,-0.4166565182091495,-5.583122070083618,0.8253276776123046,-4.69836609249115
2026-09-11T17:39:01.567,1.8715662719999955,-22.758161544799805,-2048.2345390319824,-8192.93815612793,-15.589340658187867,-5.947607145309449,-4.969579219818115,-3.404161765575409,-7.614892997439615,-0.567309216498129,0.0,-0.11443710327148438,-937.46875,-41.197357177734375,0.0,0.0,164.34553171652666,1,1789162741.066874,38.991393151666664,-76.9366343,-9.599000000000004,0,1,17.230801,6.969600000000001,72.36904899999999,1,1,1789162741.5615914,-0.36383043417919,-0.9287907617081231,-0.06953397648524673,0.01183901367408982,173.05773632747793,-4.162709457376159,137.4695803649355,-0.15155147680672282,0.011313747810202841,-0.4596605583136638,-7.363323273944855,0.8158152269554139,-11.603718803882598
2026-09-11T17:39:01.600,1.9049926719999917,-22.9239501953125,-2063.155517578125,-8252.6220703125,-15.702905883789064,-6.061172370910645,-4.970931529998779,-3.405088098049164,-7.616965144168666,-0.02771260063168811,0.0,-0.11441230773925781,-937.265625,-41.18843078613281,0.0,0.0,0.0,1,1789162741.066874,38.991393151666664,-76.9366343,-9.599000000000004,0,1,17.230801,6.969600000000001,72.36904899999999,1,1,1789162741.5895913,-0.35835749597771527,-0.930762622014689,-0.0712907381877714,0.013359535379859037,172.90635835934634,-4.356628009773472,138.1552659782553,0.24326346754419406,0.12110647693370932,-0.40515602016898333,-3.391139625930786,1.7992261051750182,-15.022218983764649
2026-09-11T17:39:01.634,1.9384172800000101,-23.090757369995117,-2078.1681632995605,-8312.672653198242,-15.817168798446657,-6.175435285568238,-4.970895290374756,-3.405063273906708,-7.616909614143487,0.0007426906085434296,0.0,-0.11337089538574219,-928.734375,-40.81352233886719,0.0762939527630806,27.465822994709015,821.7246106429685,1,1789162741.066874,38.991393151666664,-76.9366343,-9.599000000000004,0,1,17.230801,6.969600000000001,72.36904899999999,1,1,1789162741.6295915,-0.35028777689653495,-0.9336343235055905,-0.07324765910866808,0.01613083272004941,172.7678260627631,-4.671118588656084,139.16445154217163,-0.002515892116749826,0.13630253513204837,-0.41999009708045865,3.340439244594574,-0.27007514545440675,-7.980848034629822
2026-09-11T17:39:01.667,1.9718427520000148,-23.256933212280273,-2093.1239891052246,-8372.495956420898,-15.930999250411988,-6.28926573753357,-5.024259567260742,-3.4416178035736085,-7.6986797681943555,-1.0936129687830647,0.0,-0.11079788208007812,-907.65625,-39.887237548828125,0.045776382088661194,16.47949755191803,-328.68123575904775,1,1789162741.066874,38.991393151666664,-76.9366343,-9.599000000000004,0,1,17.230801,6.969600000000001,72.36904899999999,1,1,1789162741.6615913,-0.3440276210147131,-0.93575784150929,-0.0750996140570722,0.019034337427670623,172.64932383629784,-5.008052179111707,139.95039730318024,-0.03859359308472461,0.1876300504393236,-0.40004063466431306,2.8236287810707092,1.015576690750122,-6.180641264438629
2026-09-11T17:39:01.701,2.0052604159999987,-23.427581787109375,-2108.4823608398438,-8433.929443359375,-16.047893524169922,-6.4061600112915045,-5.0780110359191895,-3.478437559604645,-7.781043216724769,-1.1018052019151936,0.0,-0.10730552673339844,-879.046875,-38.62998962402344,0.1678467094898224,60.42481541633606,1315.0326086359353,1,1789162741.066874,38.991393151666664,-76.9366343,-9.599000000000004,0,1,17.230801,6.969600000000001,72.36904899999999,1,1,1789162741.6895914,-0.3385606119064524,-0.9376970857091727,-0.07571638570934032,0.019181148379788373,172.55907572899346,-5.0049257378977865,140.62087244104387,-0.03154630263102191,0.06815580542207937,-0.388357400651463,-4.1835169589996335,0.8582780221557618,-16.780061025257112
2026-09-11T17:39:01.734,2.0386844159999953,-23.59583282470703,-2123.624954223633,-8494.499816894531,-16.163145484924318,-6.5214119720458985,-5.053006172180176,-3.4613092279434206,-7.7427282300094324,0.5124560693282089,0.0,-0.10339546203613281,-847.015625,-37.22236633300781,0.1373291313648224,49.43848729133606,-328.6957911979754,1,1789162741.066874,38.991393151666664,-76.9366343,-9.599000000000004,0,1,17.230801,6.969600000000001,72.36904899999999,1,1,1789162741.7295914,-0.3314143567053043,-0.9400903971754521,-0.07679890052001734,0.02228223927316389,172.51952687526216,-5.324661022579018,141.50970409142172,-0.0014723597569824165,0.1450365117748784,-0.3473849237962702,-0.562509453277588,-0.37539856819152834,-14.689185144271852
2026-09-11T17:39:01.767,2.0721069120000095,-23.768556594848633,-2139.170093536377,-8556.680374145508,-16.281461267471315,-6.639727754592896,-5.13240909576416,-3.51570023059845,-7.864397437809695,-1.6273770413498208,0.0,-0.09554100036621094,-782.671875,-34.39476013183594,0.3356933891773224,120.84962010383606,2136.618785517084,1,1789162741.066874,38.991393151666664,-76.9366343,-9.599000000000004,0,1,17.230801,6.969600000000001,72.36904899999999,1,1,1789162741.7615914,-0.3265073085563798,-0.9416625875482177,-0.07758581023935418,0.02539666751302849,172.52070829534748,-5.652503918454604,142.1233220965486,-0.012716643462955883,0.1049595633588838,-0.3120580634725033,3.721329536876678,1.0539206928825378,-7.5821096390533445
2026-09-11T17:39:01.801,2.105531008000014,-23.942054748535156,-2154.784927368164,-8619.139709472656,-16.400307502746582,-6.7585739898681645,-5.185678482055664,-3.55218976020813,-7.946022190873582,-1.0917132840234536,0.0,-0.08472633361816406,-694.078125,-30.501480102539062,0.2136230766773224,76.90430760383606,-1314.7793884984674,1,1789162741.066874,38.991393151666664,-76.9366343,-9.599000000000004,0,1,17.230801,6.969600000000001,72.36904899999999,1,1,1789162741.7895913,-0.32252439264570004,-0.9429679037360297,-0.07831093343225168,0.025630965201677364,172.4262804309855,-5.673109265161418,142.61123522575724,-0.001208989572856472,0.057254304381197586,-0.27044871597325776,-4.172925776824951,0.8798526525115966,-12.796697796058654
2026-09-11T17:39:01.835,2.1389523200000156,-24.115360260009766,-2170.382423400879,-8681.529693603516,-16.51902177810669,-6.877288265228272,-5.212707996368408,-3.57070497751236,-7.987439552416688,-0.5539943286555942,0.0,-0.07290458679199219,-597.234375,-26.245651245117188,0.4730225205421448,170.28810739517212,2794.139254357572,1,1789162741.066874,38.991393151666664,-76.9366343,-9.599000000000004,0,1,17.230801,6.969600000000001,72.36904899999999,1,1,1789162741.8295913,-0.3178255605205367,-0.9445542924224437,-0.07675140020763714,0.030221255968449007,172.73304276247686,-6.077774276581735,143.19198291158702,0.12928543887440516,0.08303037397220105,-0.19085925862136352,0.7960057936286927,0.22231675916671753,-7.385878569316864
2026-09-11T17:39:01.868,2.1723789760000045,-24.291841506958008,-2186.2657356262207,-8745.062942504883,-16.639911432266235,-6.9981779193878175,-5.264514446258545,-3.6061923956871036,-8.066822646043082,-1.0616502642308963,0.0,-0.06357002258300781,-520.765625,-22.885208129882812,0.2746582627296448,98.87697458267212,-2136.352879944784,1,1789162741.066874,38.991393151666664,-76.9366343,-9.599000000000004,0,1,17.230801,6.969600000000001,72.36904899999999,1,1,1789162741.8615913,-0.3147466639901153,-0.9455601056248185,-0.07700201139777196,0.030353161261601473,172.69056047871538,-6.07750815882412,143.5666589497156,-0.04765167736964998,0.03504516418249494,-0.18575591588853207,-4.679243124675751,-2.7500789048576357,-9.424877270946503
2026-09-11T17:39:01.902,2.205800511999996,-24.471921920776367,-2202.472972869873,-8809.891891479492,-16.763266515731814,-7.121533002853394,-5.31715202331543,-3.6422491359710696,-8.147479276957466,-1.0788474917482849,0.0,-0.04573822021484375,-374.6875,-16.46575927734375,0.7781983017921448,280.1513886451721,5423.880400426398,1,1789162741.066874,38.991393151666664,-76.9366343,-9.599000000000004,0,1,17.230801,6.969600000000001,72.36904899999999,1,1,1789162741.9015913,-0.31305668931272074,-0.9461366492810463,-0.07559379553931528,0.03326451923225769,172.9366477677942,-6.331217251401279,143.77456003758022,0.1379523948739586,-0.005317494632051124,-0.03673289756917345,6.804050015220642,-3.186867103061676,-13.465609403591156
2026-09-11T17:39:01.935,2.239219296000016,-24.647192001342773,-2218.2472801208496,-8872.989120483398,-16.883326520919802,-7.241593008041383,-5.2665019035339355,-3.607553803920746,-8.06986802952922,1.0381985188420646,0.0,-0.030294418334960938,-248.171875,-10.905990600585938,0.22888189554214478,82.39748239517212,-5917.447691989128,1,1789162741.066874,38.991393151666664,-76.9366343,-9.599000000000004,0,1,17.230801,6.969600000000001,72.36904899999999,1,1,1789162741.9295914,-0.3123983455134442,-0.946476207114771,-0.07337425581611587,0.0347315658951787,173.2273277728995,-6.406933737384197,143.8470414724872,0.2723076661595569,0.02171835361304184,-0.017606706961193597,4.56205365524292,-1.6801733722114565,0.3976596640586853
2026-09-11T17:39:01.968,2.272649472000012,-24.82588768005371,-2234.329891204834,-8937.319564819336,-17.005733060836793,-7.363999547958374,-5.371355056762695,-3.6793782138824467,-8.23053465882794,-2.1484903328570306,0.0,-0.017942428588867188,-146.984375,-6.4592742919921875,0.5035400986671448,181.27443552017212,2957.7156017668553,1,1789162741.066874,38.991393151666664,-76.9366343,-9.599000000000004,0,1,17.230801,6.969600000000001,72.36904899999999,1,1,1789162741.9615915,-0.31291242239292844,-0.9464561149985934,-0.07123129787558061,0.03511040439697607,173.47919960622966,-6.375226069941452,143.7742434487719,0.03360230048987123,-0.14101282971733065,0.05191761112737452,6.161027964115142,-0.8315058672142029,-6.353826706295013
2026-09-11T17:39:02.001,2.3060711040000115,-25.007564544677734,-2250.680809020996,-9002.723236083984,-17.13018171310425,-7.488448200225831,-5.450016021728516,-3.7332609748840335,-8.351066962428483,-1.6122121445651578,0.0,-0.009212493896484375,-75.46875,-3.316497802734375,0.21362310647964478,76.90431833267212,-3122.831260529147,1,1789162741.066874,38.991393151666664,-76.9366343,-9.599000000000004,0,1,17.230801,6.969600000000001,72.36904899999999,1,1,1789162741.9895914,-0.31361222046155757,-0.9462374945384199,-0.07175151914553926,0.03367044114847047,173.37602233741615,-6.241809616707588,143.68799761458547,-0.10808597164798124,-0.049531396974047875,0.05005150509114219,-4.199697931766511,-1.2963410848808288,-3.894416912231445
2026-09-11T17:39:02.035,2.3394932799999992,-25.190759658813477,-2267.168369293213,-9068.673477172852,-17.255670366287234,-7.613936853408814,-5.476531505584717,-3.7514240813255313,-8.391696674403917,-0.543444760793086,0.0,0.0005168916541151702,4.234376430511475,0.1860809954814613,0.12207037210464478,43.94533395767212,-986.1411888625107,1,1789162741.066874,38.991393151666664,-76.9366343,-9.599000000000004,0,1,17.230801,6.969600000000001,72.36904899999999,1,1,1789162742.0295913,-0.3148534079676022,-0.9454537743972155,-0.07514659689346342,0.03657158657451755,173.11471705438214,-6.688639649696589,143.56542569375577,-0.20741492830700614,0.10239323122675133,0.06369422025520627,3.5034257702827456,-0.41178124029159546,-8.264750556812286
2026-09-11T17:39:02.068,2.3729200639999988,-25.374286651611328,-2283.6857986450195,-9134.743194580078,-17.38138635635376,-7.739652843475342,-5.477931499481201,-3.752383077144623,-8.393841886955572,-0.028689443145110252,0.0,0.0018615724984556437,15.250001907348633,0.6701660994440317,0.015258789993822575,5.493164397776127,-1150.3400853607848,1,1789162741.066874,38.991393151666664,-76.9366343,-9.599000000000004,0,1,17.230801,6.969600000000001,72.36904899999999,1,1,1789162742.0615914,-0.31665674476561007,-0.9448477231089765,-0.07500819052085268,0.036946684357568337,173.15598290319937,-6.737554193996217,143.3471703082027,-0.07033886325047388,0.0190520141147701,0.14887187280613592,2.715853695793152,0.7778634908294678,-15.644941269035339
2026-09-11T17:39:02.102,2.4063398400000153,-25.55683708190918,-2300.115337371826,-9200.461349487305,-17.50643340110779,-7.864699888229371,-5.505644798278809,-3.771366686820984,-8.436307012394819,-0.5680352159257895,0.0,0.008348465897142887,68.39063262939453,3.0054477229714394,0.06103518605232239,21.97266697883606,493.1063146877995,1,1789162742.075852,38.99140985,-76.93662966166667,-9.685000000000002,0,1,17.230801,6.969600000000001,72.36904899999999,1,1,1789162742.1015913,-0.31928535918550205,-0.9440496983701476,-0.0735276192675935,0.03769238148297302,173.36365607985923,-6.783588715213862,143.0218384145478,0.03689975104566411,0.019797793304147278,0.174328198078174,-0.3613750584602356,-3.1031183106803892,-13.044806045150757
2026-09-11T17:39:02.135,2.439757312000012,-25.73894500732422,-2316.5050506591797,-9266.020202636719,-17.631177330017092,-7.989443817138673,-5.480847358703613,-3.754380440711975,-8.398309862007808,0.5083043417829661,0.0,0.010528565384447575,86.25000762939453,3.790283538401127,0.0,0.0,-657.5203228669839,1,1789162742.075852,38.99140985,-76.93662966166667,-9.685000000000002,0,1,17.230801,6.969600000000001,72.36904899999999,1,1,1789162742.1295915,-0.32124389671865644,-0.9431965963899464,-0.07468496730140961,0.04005864499232955,173.33655492139363,-7.097058712631694,142.79696301433484,0.03805812607021275,0.19186055401323268,0.1614412104802235,2.8410846183586123,0.3756927676963806,-4.706897878131866
2026-09-11T17:39:02.169,2.4731884800000046,-25.92352867126465,-2333.1175804138184,-9332.470321655273,-17.757617139816286,-8.115883626937867,-5.481552600860596,-3.7548635315895083,-8.399390505524122,-0.014450314076168971,0.0,0.013595581986010075,111.37500762939453,4.894409514963627,0.1373291164636612,49.43848192691803,1478.8140793324567,1,1789162742.075852,38.99140985,-76.93662966166667,-9.685000000000002,0,1,17.230801,6.969600000000001,72.36904899999999,1,1,1789162742.1615913,-0.3237848223559376,-0.941978465329028,-0.07685395748611554,0.04397077310015708,173.26070906927643,-7.62028619792698,142.51072763244582,-0.019872493396132635,0.09420850969952393,0.19627798235003033,1.793734381084442,-0.010983448181152343,-4.087019521408081
2026-09-11T17:39:02.203,2.506612992000015,-26.106491088867188,-2349.584197998047,-9398.336791992188,-17.882946395874026,-8.241212882995606,-5.5076069831848145,-3.7727107834815983,-8.439313670994975,-0.5339569921644454,0.0,0.01965522952377796,161.01564025878906,7.075882628560066,0.3356933891773224,120.84962010383606,2136.490075813091,1,1789162742.075852,38.99140985,-76.93662966166667,-9.685000000000002,0,1,17.230801,6.969600000000001,72.36904899999999,1,1,1789162742.2015913,-0.3271069856633872,-0.940507670537934,-0.07962205935805101,0.04589846678381251,173.05555551120824,-7.956751801262757,142.12838110286341,0.008069006197820184,0.12710325371063663,0.18918269534189777,-1.1286473671150208,0.6712652035713196,-10.438198432159425
2026-09-11T17:39:02.236,2.5400368319999984,-26.291364669799805,-2366.2228202819824,-9464.89128112793,-18.009584798812867,-8.36785128593445,-5.5338945388793945,-3.7907177591323857,-8.479594128338363,-0.5387464651217946,0.0,0.03215790167450905,263.4375305175781,11.576844602823257,0.4272461533546448,153.80861520767212,986.0924149903931,1,1789162742.075852,38.99140985,-76.93662966166667,-9.685000000000002,0,1,17.230801,6.969600000000001,72.36904899999999,1,1,1789162742.2295914,-0.33010955898064936,-0.9395622611632971,-0.07849268043829892,0.04570925053995593,173.19745949324363,-7.915687553150773,141.75396360132189,0.03081954753049147,0.08173289620626846,0.23519917373535426,-0.12513285606384278,-0.3915795409584045,-8.342615359096527
2026-09-11T17:39:02.269,2.573483392000014,-26.47566032409668,-2382.809429168701,-9531.237716674805,-18.13582732200623,-8.494093809127808,-5.482575416564941,-3.755564160346985,-8.40095776741898,1.0510377983680235,0.0,0.034505847841501236,282.6719055175781,12.422105222940445,0.2746582329273224,98.87696385383606,-1642.370735699281,1,1789162742.075852,38.99140985,-76.93662966166667,-9.685000000000002,0,1,17.230801,6.969600000000001,72.36904899999999,1,1,1789162742.2615914,-0.3338041694141542,-0.9383289309986566,-0.07739320491383382,0.04608563296528269,173.36281786042898,-7.941116274018792,141.29585993221474,-0.01986847913885305,-0.04076321187787876,0.28649038619418804,-0.843568046913147,-3.3614254759407047,-4.767208776626587
2026-09-11T17:39:02.303,2.6069105280000144,-26.660886764526367,-2399.479808807373,-9597.919235229492,-18.262707433700562,-8.620973920822145,-5.509578704833984,-3.7740614128112795,-8.442334942759652,-0.5533603735687739,0.0,0.0342254675924778,280.3750305175781,12.321168333292007,0.1068115383386612,38.45215380191803,-1807.65740899602,1,1789162742.075852,38.99140985,-76.93662966166667,-9.685000000000002,0,1,17.230801,6.969600000000001,72.36904899999999,1,1,1789162742.3015914,-0.33820306725347515,-0.9365012933250874,-0.07889668179124648,0.04857289885430745,173.33091213646867,-8.29925675282321,140.7715820015731,0.019308926580663667,0.01617152271727866,0.2675523420795731,2.7527267004013063,-1.509929925403595,-2.2845572216796874
2026-09-11T17:39:02.336,2.6403309760000013,-26.84945297241211,-2416.45076751709,-9665.80307006836,-18.391875286102298,-8.750141773223877,-5.588414192199707,-3.8280637216567994,-8.563134667270926,-1.6158463478868121,0.0,0.030118945986032486,246.73440551757812,10.842820554971695,0.0,0.0,-1150.5577005410912,1,1789162742.075852,38.99140985,-76.93662966166667,-9.685000000000002,0,1,17.230801,6.969600000000001,72.36904899999999,1,1,1789162742.3295913,-0.34087965556551897,-0.9353721470350936,-0.07915176210822758,0.05113712474958639,173.42530215779794,-8.605307530839763,140.44847072551858,0.017619971463508754,0.2165028577221406,0.20174173557339856,10.905191112861633,2.203652357845306,-2.424694252490997
2026-09-11T17:39:02.369,2.6737506880000126,-27.038663864135742,-2433.479747772217,-9733.918991088867,-18.521484746932984,-8.879751234054567,-5.693267345428467,-3.8998881316185,-8.723801296569649,-2.149163043705352,0.0,0.02227211371064186,182.45315551757812,8.01796093583107,-0.12207034230232239,-43.94532322883606,-1314.9521823773123,1,1789162742.075852,38.99140985,-76.93662966166667,-9.685000000000002,0,1,17.230801,6.969600000000001,72.36904899999999,1,1,1789162742.3615913,-0.34291415408960907,-0.9344620417097154,-0.08070802900983191,0.05173769981421623,173.29768048706558,-8.745495606268772,140.2104282007273,-0.06433231262973539,0.06540342119168431,0.12040468004148241,-0.9944923929023742,0.2405571284675598,-9.260125548229219
2026-09-11T17:39:02.403,2.7071691840000085,-27.23221206665039,-2450.899085998535,-9803.59634399414,-18.654065265655518,-9.0123317527771,-5.772278308868408,-3.9540106415748597,-8.844869903308105,-1.619537574532571,0.0,0.004106525331735611,33.640655517578125,1.47834911942482,-0.5035400986671448,-181.27443552017212,-4109.374410247333,1,1789162742.075852,38.99140985,-76.93662966166667,-9.685000000000002,0,1,17.230801,6.969600000000001,72.36904899999999,1,1,1789162742.4015913,-0.3453725311302313,-0.9334569334373927,-0.08208255579163114,0.051365574007015316,173.1566062225707,-8.777237628632337,139.91758277106823,-0.06338110818739848,0.09182962592905565,0.15582543907900656,5.04199111415863,-3.304743038005829,-17.740720475101472
2026-09-11T17:39:02.436,2.740588800000012,-27.42366600036621,-2468.129940032959,-9872.519760131836,-18.785211210250857,-9.143477697372438,-5.722047805786133,-3.919602746963501,-8.767901635118774,1.0295718122959645,0.0,7.629725587321445e-05,0.6250271201133728,0.027467012114357203,-0.030517637729644775,-10.98634958267212,5095.453099685021,1,1789162742.075852,38.99140985,-76.93662966166667,-9.685000000000002,0,1,17.230801,6.969600000000001,72.36904899999999,1,1,1789162742.4295914,-0.3460629654953827,-0.9331991366685464,-0.08121396209894852,0.052764453885282406,173.31217065036728,-8.898804655151705,139.82789592879982,0.028519203576362943,0.0929874773548287,0.03227270866570195,0.7593289220237732,0.7876701409912109,-8.410673511219025
2026-09-11T17:39:02.470,2.774008992000006,-27.613479614257812,-2485.213165283203,-9940.852661132812,-18.915233535766603,-9.273500022888184,-5.724219799041748,-3.921090562343598,-8.77122978333839,-0.04451845698842939,0.0,-0.00589752197265625,-48.3125,-2.12310791015625,-0.030517637729644775,-10.98634958267212,0.0,1,1789162742.075852,38.99140985,-76.93662966166667,-9.685000000000002,0,1,17.230801,6.969600000000001,72.36904899999999,1,1,1789162742.4615915,-0.3470558719763609,-0.9328466598850546,-0.08105556845266117,0.05271931041697003,173.3371313494983,-8.894740033536051,139.70441722604608,-0.038326906775019876,-0.10874762596741229,0.06912184516305822,6.748446308803559,0.017357770786285403,-12.495731702594759
2026-09-11T17:39:02.503,2.807430079999989,-27.80828094482422,-2502.7452850341797,-10010.981140136719,-19.04867244720459,-9.406938934326172,-5.828902244567871,-3.992798037528992,-8.931634836992188,-2.1455757270807756,0.0,-0.011770248413085938,-96.421875,-4.2372894287109375,-0.1831054985523224,-65.91797947883606,-1643.6218323051567,1,1789162742.075852,38.99140985,-76.93662966166667,-9.685000000000002,0,1,17.230801,6.969600000000001,72.36904899999999,1,1,1789162742.5015914,-0.34799330360083874,-0.9323513288375361,-0.08150136538907585,0.054581935689119364,173.37059557427887,-9.120012143681837,139.59387805341294,-0.09462075646884498,-0.06606996243302095,-0.00824580805104721,8.295445371818543,3.672590485572815,-14.107944989185333
2026-09-11T17:39:02.536,2.840880768000005,-28.004369735717773,-2520.3932762145996,-10081.573104858398,-19.182993268966676,-9.541259756088257,-5.8812336921691895,-4.028645079135895,-9.011822385325454,-1.0716383952068724,0.0,-0.021512985229492188,-176.234375,-7.7446746826171875,-0.3509521782398224,-126.34278416633606,-1806.384511059103,1,1789162742.075852,38.99140985,-76.93662966166667,-9.685000000000002,0,1,17.230801,6.969600000000001,72.36904899999999,1,1,1789162742.5295913,-0.34778346434832863,-0.9326324277601663,-0.08128764598451768,0.05133941201795051,173.2647809682629,-8.760389207052263,139.61500428852779,-0.012030030935221316,-0.16536104544727753,-0.004588470603493093,2.8638360467338564,-0.17906943195343017,-4.193813941669464
2026-09-11T17:39:02.570,2.874302623999995,-28.203487396240234,-2538.313865661621,-10153.255462646484,-19.31938886642456,-9.677655353546143,-5.933469772338867,-4.064426794052125,-9.091863802013512,-1.0706082545577484,0.0,-0.029912948608398438,-245.046875,-10.768661499023438,0.1983642727136612,71.41113817691803,5916.904265978377,1,1789162742.075852,38.99140985,-76.93662966166667,-9.685000000000002,0,1,17.230801,6.969600000000001,72.36904899999999,1,1,1789162742.5615914,-0.348131496504431,-0.9327525937741276,-0.07986295722647765,0.048979261042448534,173.33040721287898,-8.451761570881601,139.55917492618482,-0.054321976704921913,-0.26224933368031356,0.00048171087355043494,1.2120038934898376,-1.9405399340057372,-4.566760847320556
2026-09-11T17:39:02.603,2.9077206080000053,-28.39986228942871,-2555.987606048584,-10223.950424194336,-19.453905668258667,-9.81217215538025,-5.933899402618408,-4.0647210907936095,-9.092522125075172,-0.008806537865505731,0.0,-0.0295867919921875,-242.375,-10.6512451171875,0.061035171151161194,21.97266161441803,-1479.3973377473826,1,1789162742.075852,38.99140985,-76.93662966166667,-9.685000000000002,0,1,17.230801,6.969600000000001,72.36904899999999,1,1,1789162742.6015913,-0.3480597424550884,-0.9330587353135867,-0.07905232070781062,0.04479444974343188,173.25372829746954,-7.968090065742708,139.5562590149605,0.051548997589353315,-0.07688803673565739,-0.03306212108637898,-2.473433303794861,-0.6673425435066223,-10.408876548175812
2026-09-11T17:39:02.636,2.941138144000007,-28.598251342773438,-2573.8426208496094,-10295.370483398438,-19.589802169799807,-9.948068656921388,-5.909064292907715,-4.047709040641785,-9.054467252688307,0.5090755390171013,0.0,-0.03128623962402344,-256.296875,-11.263046264648438,-0.0762939527630806,-27.465822994709015,-1479.4174115387939,1,1789162742.075852,38.99140985,-76.93662966166667,-9.685000000000002,0,1,17.230801,6.969600000000001,72.36904899999999,1,1,1789162742.6295915,-0.34822269121240684,-0.9331244169517144,-0.07770199289153004,0.04452168139228454,173.39102328540335,-7.886070297484455,139.5269817632687,0.06053517430909652,-0.29779401109472925,0.01643122770997542,6.975666393051147,-1.0824580448532104,-14.48756041694641
2026-09-11T17:39:02.670,2.974561792000003,-28.798830032348633,-2591.894702911377,-10367.578811645508,-19.727198572158816,-10.085465059280397,-5.935207843780518,-4.065617372989655,-9.094527051247429,-0.5357982572061463,0.0,-0.03389739990234375,-277.6875,-12.20306396484375,-0.1678466945886612,-60.42481005191803,-986.0978387880668,1,1789162742.075852,38.99140985,-76.93662966166667,-9.685000000000002,0,1,17.230801,6.969600000000001,72.36904899999999,1,1,1789162742.6575913,-0.3471758502098352,-0.9336591558201983,-0.07613539364395175,0.04419175962635124,173.5393764624069,-7.780872862377393,139.64509181474102,-0.0448471077946203,-0.09461220435551022,-0.07893059555926635,0.19073934564590453,-1.8202123365211487,-13.562989439697265
2026-09-11T17:39:02.703,3.007988127999994,-28.996957778930664,-2609.7262001037598,-10438.904800415039,-19.862916078567505,-10.221182565689087,-5.962470531463623,-4.084292314052582,-9.136301704663067,-0.5586894436450374,0.0,-0.04364585876464844,-357.546875,-15.712509155273438,-0.2899170517921448,-104.37013864517212,-1314.6917626049728,1,1789162742.075852,38.99140985,-76.93662966166667,-9.685000000000002,0,1,17.230801,6.969600000000001,72.36904899999999,1,1,1789162742.7015913,-0.3445881352428336,-0.9345056751420281,-0.07721074239808819,0.04468401767461154,173.420096681884,-7.858481213011463,139.97070592459966,-0.012995896143274977,0.031196364115997046,-0.10413559341901726,-1.6585987418556214,1.122371111011505,-11.597932880287171
2026-09-11T17:39:02.736,3.041413535999993,-29.192907333374023,-2627.361660003662,-10509.446640014648,-19.997141523361208,-10.355408010482789,-5.937933921813965,-4.067484736442566,-9.0987042243257,0.502838368046731,0.0,-0.055286407470703125,-452.90625,-19.903106689453125,-0.3356934189796448,-120.84963083267212,-493.0229179999929,1,1789162742.075852,38.99140985,-76.93662966166667,-9.685000000000002,0,1,17.230801,6.969600000000001,72.36904899999999,1,1,1789162742.7295914,-0.34197372123368097,-0.9354910604388866,-0.07583881665528351,0.046464219705514676,173.61606349012342,-7.97861523567525,140.2853633284633,-0.04785849888601131,0.1468455455445705,-0.24194417316261155,-1.9385786039733885,-1.2556434867095947,-4.355035270328521
2026-09-11T17:39:02.770,3.0748378560000162,-29.392581939697266,-2645.332374572754,-10581.329498291016,-20.13391862869263,-10.492185115814209,-5.965504169464111,-4.0863703560829165,-9.140950152297137,-0.5650262934395556,0.0,-0.06059455871582031,-496.390625,-21.814041137695312,-0.045776426792144775,-16.47951364517212,3122.580120924765,1,1789162742.075852,38.99140985,-76.93662966166667,-9.685000000000002,0,1,17.230801,6.969600000000001,72.36904899999999,1,1,1789162742.7615914,-0.3388127839178693,-0.9363462865824512,-0.07732343728062246,0.049825847751812875,173.55568360263166,-8.378096637024113,140.68762993057416,-0.0032651619646309918,0.034177910077178957,-0.1757501178197738,6.996652624397278,-3.135480256214142,-2.9860269077491757
2026-09-11T17:39:02.803,3.1082653120000145,-29.589515686035156,-2663.056411743164,-10652.225646972656,-20.268818244934085,-10.627084732055664,-5.888370037078857,-4.033533475399017,-9.022757416336374,1.5806431899544473,0.0,-0.060272216796875,-493.75,-21.697998046875,-0.1220703199505806,-43.945315182209015,-821.6539582622827,1,1789162742.075852,38.99140985,-76.93662966166667,-9.685000000000002,0,1,17.230801,6.969600000000001,72.36904899999999,1,1,1789162742.8015914,-0.33467971493884696,-0.9372805172397074,-0.08058596940552118,0.05477793302317251,173.34868877514094,-9.01108542967637,141.22392122555712,-0.12772808158285062,0.010049082234207751,-0.1985343440070086,6.784534781398773,3.3588757468986508,-6.724518082408905
2026-09-11T17:39:02.836,3.14168905599999,-29.78260612487793,-2680.4345512390137,-10721.738204956055,-20.401085195541384,-10.759351682662965,-5.785048961639404,-3.9627585387229924,-8.864438391917922,2.1175047497993336,0.0,-0.05146980285644531,-421.640625,-18.529129028320312,0.4577637314796448,164.79494333267212,6245.268588552942,1,1789162742.075852,38.99140985,-76.93662966166667,-9.685000000000002,0,1,17.230801,6.969600000000001,72.36904899999999,1,1,1789162742.8295913,-0.3324232814824526,-0.9380492362151112,-0.08063035161655491,0.05529139863374349,173.34132157693114,-9.052471263811775,141.50137348900108,0.015593818734868538,0.041770092323354296,-0.15854919990966887,2.0875416199302674,1.084419374885559,-12.61056757598877
2026-09-11T17:39:02.870,3.1751165120000167,-29.975175857543945,-2697.765827178955,-10791.06330871582,-20.532995462417603,-10.891261949539185,-5.758523464202881,-3.9445885729789736,-8.823793336119742,0.5435641211824296,0.0,-0.031078338623046875,-254.59375,-11.188201904296875,0.07629400491714478,27.46584177017212,-4108.272599697393,1,1789162742.075852,38.99140985,-76.93662966166667,-9.685000000000002,0,1,17.230801,6.969600000000001,72.36904899999999,1,1,1789162742.8615913,-0.33109417315395173,-0.9386765619234025,-0.07947503646186788,0.05428332320839177,173.41748414830286,-8.889910514578341,141.6542687962642,0.03402414657007826,-0.08387493879724109,-0.06529363998173386,-1.874835377922058,0.29243430782318114,-12.329018649845123
2026-09-11T17:39:02.904,3.208535871999999,-30.166250228881836,-2714.9625205993652,-10859.850082397461,-20.66388140678406,-11.02214789390564,-5.707062721252441,-3.9093379640579227,-8.744939969707225,1.0547960499862883,0.0,-0.031452178955078125,-257.65625,-11.322784423828125,0.030517593026161194,10.98633348941803,-493.11262336450784,1,1789162742.075852,38.99140985,-76.93662966166667,-9.685000000000002,0,1,17.230801,6.969600000000001,72.36904899999999,1,1,1789162742.9015913,-0.33115015459653063,-0.9387265892795359,-0.07842508070739906,0.05460286078898411,173.544871926193,-8.885205060605271,141.6399056052173,0.13439855545104776,-0.09435529188961664,-0.011151606722692569,1.6339840499496459,-1.5572960456848144,0.9798804841613769
2026-09-11T17:39:02.937,3.2419596160000026,-30.357282638549805,-2732.1554374694824,-10928.62174987793,-20.794738607406618,-11.153005094528199,-5.6823906898498535,-3.89243762254715,-8.707134982433665,0.5056387911171999,0.0,-0.026920318603515625,-220.53125,-9.691314697265625,0.2899170219898224,104.37012791633606,2793.935784899124,1,1789162742.075852,38.99140985,-76.93662966166667,-9.685000000000002,0,1,17.230801,6.969600000000001,72.36904899999999,1,1,1789162742.9295914,-0.3319610197080168,-0.9384009272870405,-0.07934345835936205,0.05394623876428009,173.42752540767071,-8.854412874177097,141.5467691122321,-0.008634667408391547,-0.18317387579313166,0.07703865865010451,-0.9405558170127868,-4.812221300868988,-3.000638816490173
2026-09-11T17:39:02.970,3.2753870079999956,-30.544078826904297,-2748.9670944213867,-10995.868377685547,-20.922693996429444,-11.280960483551027,-5.605691909790039,-3.839898958206177,-8.589609337433279,1.5717248997763298,0.0,-0.024854660034179688,-203.609375,-8.947677612304688,0.2441406399011612,87.89063036441803,-492.9938163264869,1,1789162742.075852,38.99140985,-76.93662966166667,-9.685000000000002,0,1,17.230801,6.969600000000001,72.36904899999999,1,1,1789162742.9615915,-0.33275959209521083,-0.9382255612952212,-0.07802348370579006,0.054001722114282676,173.58156255773724,-8.815763529326906,141.43923089246834,-0.14396854480558305,-0.1793503830007877,0.02990516953537164,5.105636273708344,-1.3126201241493225,-14.29329067724228
2026-09-11T17:39:03.004,3.308810464000004,-30.72768783569336,-2765.4919052124023,-11061.96762084961,-21.048466167449952,-11.406732654571535,-5.476688385009766,-3.75153154373169,-8.391937060960284,2.6438742443170695,0.0,-0.026773452758789062,-219.328125,-9.638442993164062,-0.2288818508386612,-82.39746630191803,-5094.868007254943,1,1789162742.075852,38.99140985,-76.93662966166667,-9.685000000000002,0,1,17.230801,6.969600000000001,72.36904899999999,1,1,1789162743.0015914,-0.3332214822974652,-0.9381323765486889,-0.07791463856677071,0.05291877647488689,173.5571865255628,-8.69736140446116,141.38072054913215,-0.060718259347630726,-0.09496353913393668,0.04821506965219375,7.895628244724274,-1.708220391674042,-11.741502238655091
2026-09-11T17:39:03.037,3.3422332800000163,-30.91054344177246,-2781.9489097595215,-11127.795639038086,-21.173722257614138,-11.531988744735719,-5.451376914978027,-3.734193186759949,-8.353152261005604,0.5187581133718449,0.0,-0.032276153564453125,-264.40625,-11.619415283203125,-0.04577639698982239,-16.47950291633606,1972.2444507834928,1,1789162742.075852,38.99140985,-76.93662966166667,-9.685000000000002,0,1,17.230801,6.969600000000001,72.36904899999999,1,1,1789162743.0295913,-0.33314198812560336,-0.9380673794051307,-0.0786720420708361,0.05344826695146862,173.4934709776728,-8.783084420946919,141.39660089839134,0.011062769463766059,-0.10016549296950578,-0.03644596544014559,6.913884497032165,-1.6979234090042112,-14.758223961410522
2026-09-11T17:39:03.071,3.3756523200000004,-31.09296417236328,-2798.3667755126953,-11193.467102050781,-21.298680458068848,-11.65694694519043,-5.401256084442139,-3.6998604178428653,-8.276352044208261,1.0273415668762529,0.0,-0.035289764404296875,-289.09375,-12.704315185546875,-0.2746582329273224,-98.87696385383606,-2465.584317728434,1,1789162742.075852,38.99140985,-76.93662966166667,-9.685000000000002,0,1,17.230801,6.969600000000001,72.36904899999999,1,1,1789162743.0615914,-0.33211481276423616,-0.9383962338562502,-0.08017139600729295,0.0518151202760762,173.25879723813506,-8.655813201561886,141.5312406515008,-0.05902162478176704,-0.045255514839586966,-0.0849242307435401,2.8572655911254885,0.9394770854949951,-8.082641063308717
2026-09-11T17:39:03.104,3.4090758080000114,-31.276315689086914,-2814.8684120178223,-11259.473648071289,-21.424276247024537,-11.78254273414612,-5.454610347747803,-3.736408088207245,-8.358106854436384,-1.0934726610330912,0.0,-0.04420661926269531,-362.140625,-15.914382934570312,-0.3204346001148224,-115.35645604133606,-493.0512395203802,1,1789162743.0742195,38.99142796666667,-76.93662402,-9.748000000000001,0,1,8.614225000000001,6.937956,63.776196,1,1,1789162743.1015913,-0.3300610321540387,-0.9389879185455693,-0.08127490197406725,0.05249565875361039,173.1442473420356,-8.756582521927443,141.79164595099218,-0.0631631165638244,-0.06385479054638973,-0.12003467024005962,6.190644047603607,0.42678541503906253,-16.45634350341797
2026-09-11T17:39:03.137,3.4425009280000154,-31.458009719848633,-2831.220874786377,-11324.883499145508,-21.548736658096317,-11.907003145217896,-5.455714225769043,-3.7371642446517948,-8.359798328229667,-0.022622400295037037,0.0,-0.05097389221191406,-417.578125,-18.350601196289062,-0.1831054985523224,-65.91797947883606,1479.0814980617608,1,1789162743.0742195,38.99142796666667,-76.93662402,-9.748000000000001,0,1,8.614225000000001,6.937956,63.776196,1,1,1789162743.1295915,-0.32740935628940343,-0.9397430071941312,-0.08307629041989296,0.05276858737885127,172.93203534712507,-8.834318659294677,142.12968093621006,-0.004795815718630019,-0.011617958698825455,-0.1856299031165381,-2.642303819580078,-0.48944990957260137,-5.736792278118133
2026-09-11T17:39:03.171,3.47592294399999,-31.638608932495117,-2847.4748039245605,-11389.899215698242,-21.672447118759155,-12.030713605880738,-5.430948257446289,-3.720199556350708,-8.321849401285576,0.5075902154166728,0.0,-0.053470611572265625,-438.03125,-19.249420166015625,-0.1678466945886612,-60.42481005191803,164.35781213563592,1,1789162743.0742195,38.99142796666667,-76.93662402,-9.748000000000001,0,1,8.614225000000001,6.937956,63.776196,1,1,1789162743.1615913,-0.32451765742102023,-0.9410327556181046,-0.08103161850294349,0.05078897201719168,173.05725600289205,-8.521501729911485,142.46409435087605,0.08576757383810374,0.036360095240947465,-0.2009905458633402,-0.4443393188285828,-0.1434712918663025,-11.080239818248748
2026-09-11T17:39:03.204,3.509344607999992,-31.818838119506836,-2863.6954307556152,-11454.781723022461,-21.795904111862185,-12.154170598983766,-5.378437042236328,-3.684229373931885,-8.241386394801093,1.0762534869245464,0.0,-0.052539825439453125,-430.40625,-18.914337158203125,0.1068115308880806,38.452151119709015,2958.4691286352595,1,1789162743.0742195,38.99142796666667,-76.93662402,-9.748000000000001,0,1,8.614225000000001,6.937956,63.776196,1,1,1789162743.2015913,-0.32133315484327135,-0.9417794378911766,-0.08219820564171237,0.0551357320902929,173.05686366605073,-9.014093798633533,142.8688970467225,0.07284777405021572,0.13401196502173102,-0.1321978697972081,4.039653401126862,-0.8519036995506287,-7.231521895771027
2026-09-11T17:39:03.238,3.5427656960000036,-32.0000114440918,-2880.0010299682617,-11520.004119873047,-21.92000783920288,-12.278274326324464,-5.404671669006348,-3.7022000932693486,-8.28158574908139,-0.537705993816158,0.0,-0.04944801330566406,-405.078125,-17.801284790039062,0.2288818508386612,82.39746630191803,1314.8978029139564,1,1789162743.0742195,38.99142796666667,-76.93662402,-9.748000000000001,0,1,8.614225000000001,6.937956,63.776196,1,1,1789162743.2295914,-0.31915169888252093,-0.9423837805705084,-0.08351025863394339,0.055507115948572015,172.90487721856226,-9.086354036062835,143.14568932963826,0.00590043460221723,0.13917709241008303,-0.15385059903037496,-0.08188552885055542,1.108936000289917,-10.831935436153412
2026-09-11T17:39:03.271,3.576187648000001,-32.182044982910156,-2896.384048461914,-11585.536193847656,-22.04470081329346,-12.40296730041504,-5.4835124015808105,-3.7562059950828557,-8.40239351083315,-1.6158811374485509,0.0,-0.03956794738769531,-324.140625,-14.244461059570312,0.3509521782398224,126.34278416633606,1314.8638913855518,1,1789162743.0742195,38.99142796666667,-76.93662402,-9.748000000000001,0,1,8.614225000000001,6.937956,63.776196,1,1,1789162743.2615914,-0.3170831826197201,-0.9430173549080776,-0.08555450890750758,0.053450441041372386,172.58686506444735,-8.920576439651132,143.40932207468092,-0.18894323616852413,0.010089050274078422,-0.08678318092983925,-0.23261374183654787,0.31302827316284176,-5.489370494537354
2026-09-11T17:39:03.305,3.609616447999997,-32.36387252807617,-2912.7485275268555,-11650.994110107422,-22.16925268173218,-12.527519168853761,-5.458460330963135,-3.7390453267097477,-8.364006188953434,0.513349817316511,0.0,-0.03616523742675781,-296.265625,-13.019485473632812,0.0,0.0,-3779.4591539735757,1,1789162743.0742195,38.99142796666667,-76.93662402,-9.748000000000001,0,1,8.614225000000001,6.937956,63.776196,1,1,1789162743.3015914,-0.31496679901013963,-0.9436403402756249,-0.08525889513654694,0.05540527525339662,172.6682439002108,-9.106654548614916,143.66888515220955,0.023110079158582115,0.09725986883078562,-0.08472857933439153,2.7052625136184694,-0.45591116601943965,-12.436891801624299
2026-09-11T17:39:03.338,3.6430399040000054,-32.542240142822266,-2928.801612854004,-11715.206451416016,-22.291434497833254,-12.649700984954835,-5.354944229125977,-3.6681367969512944,-8.20538832532053,2.121519981609187,0.0,-0.03482246398925781,-285.265625,-12.536087036132812,0.0,0.0,0.0,1,1789162743.0742195,38.99142796666667,-76.93662402,-9.748000000000001,0,1,8.614225000000001,6.937956,63.776196,1,1,1789162743.3295913,-0.31399095987920334,-0.944101653269902,-0.08371394462756795,0.055441147914404125,172.83046247938026,-9.047602496100211,143.77562298380093,0.040380635705841605,0.0010485938145981932,-0.07143615175120271,-4.227843017730713,1.0643157420539857,-8.078914536247254
2026-09-11T17:39:03.371,3.6764604159999976,-32.721412658691406,-2944.9271392822266,-11779.708557128906,-22.414167671203614,-12.772434158325197,-5.356173515319824,-3.66897885799408,-8.207271962227264,-0.025195934843418893,0.0,-0.03399085998535156,-278.453125,-12.236709594726562,-0.030517578125,-10.986328125,-328.7300962056646,1,1789162743.0742195,38.99142796666667,-76.93662402,-9.748000000000001,0,1,8.614225000000001,6.937956,63.776196,1,1,1789162743.3615913,-0.31342638405801626,-0.9441875564059163,-0.08388224406569476,0.056899290285947285,172.85758375783058,-9.20858068417487,143.8484091958746,0.022380706064173684,0.04072411650263409,-0.05562364326105928,-1.616037880153656,1.5799494075584413,-13.02980187040329
2026-09-11T17:39:03.405,3.7098817920000045,-32.899742126464844,-2960.976791381836,-11843.907165527344,-22.53632335662842,-12.894589843750001,-5.331524848937988,-3.6520945215225225,-8.169502777206779,0.5051957307668588,0.0,-0.029973983764648438,-245.546875,-10.790634155273438,0.04577639698982239,16.47950291633606,821.8043159363172,1,1789162743.0742195,38.99142796666667,-76.93662402,-9.748000000000001,0,1,8.614225000000001,6.937956,63.776196,1,1,1789162743.4015913,-0.31326177980271097,-0.9442965845928076,-0.08401197970916668,0.05579430890819357,172.8029693016239,-9.091305938248814,143.8673520975028,-0.18319447067830522,-0.10662286213603439,-0.03310296179087565,-6.620665657196046,-5.484172969951629,-10.670321841487885
2026-09-11T17:39:03.438,3.7433031680000113,-33.07959747314453,-2977.163772583008,-11908.655090332031,-22.659524269104004,-13.017790756225587,-5.359498023986816,-3.6712561464309696,-8.212366111379218,-0.5733344105414235,0.0,-0.026556015014648438,-217.546875,-9.560165405273438,0.12207034230232239,43.94532322883606,821.8039949191316,1,1789162743.0742195,38.99142796666667,-76.93662402,-9.748000000000001,0,1,8.614225000000001,6.937956,63.776196,1,1,1789162743.4295914,-0.3132861194918998,-0.9442528576333307,-0.08446273331876669,0.05571709670575715,172.7507790814759,-9.099187185059277,143.86777344786364,0.06486498711744405,-0.052340329872207554,0.005392892855737279,6.113073444824219,-2.226697985725403,-7.4608994430542
2026-09-11T17:39:03.472,3.776727168000008,-33.25762176513672,-2993.1859588623047,-11972.743835449219,-22.781470909118653,-13.139737396240236,-5.360474109649658,-3.671924765110016,-8.213861768767922,-0.020004149085878338,0.0,-0.023105621337890625,-189.28125,-8.318023681640625,0.2288818657398224,82.39747166633606,1150.4352691929137,1,1789162743.0742195,38.99142796666667,-76.93662402,-9.748000000000001,0,1,8.614225000000001,6.937956,63.776196,1,1,1789162743.4695914,-0.3129794697765823,-0.9445608249527392,-0.08397284112799014,0.052889142703047703,172.7029429824953,-8.77053306419579,143.89519646540933,0.10031908194368128,0.019526220072536963,0.02218854531352911,-3.768891790161133,-4.524886451129913,-2.4515644739341735
2026-09-11T17:39:03.505,3.8101488000000074,-33.436317443847656,-3009.268569946289,-12037.074279785156,-22.903877449035647,-13.262143936157228,-5.335660457611084,-3.654927413463593,-8.175839776001228,0.5085733589078842,0.0,-0.01873016357421875,-153.4375,-6.74285888671875,-0.1525879055261612,-54.93164598941803,-4108.988982218336,1,1789162743.0742195,38.99142796666667,-76.93662402,-9.748000000000001,0,1,8.614225000000001,6.937956,63.776196,1,1,1789162743.5015914,-0.3135591017176352,-0.9445403570361833,-0.08282884278645476,0.05160994538502806,172.78954677758875,-8.594407204876562,143.8132742858902,-0.06433580328823937,-0.08719822022596349,0.041828386320370906,-4.534496968288422,-1.7743172137641907,-8.375565703639984
2026-09-11T17:39:03.538,3.843573952000014,-33.61079025268555,-3024.971122741699,-12099.884490966797,-23.0233913230896,-13.381657810211182,-5.257705211639404,-3.6015280699729924,-8.056388846575224,1.5975796756463525,0.0,-0.018344879150390625,-150.28125,-6.604156494140625,-0.045776382088661194,-16.47949755191803,1150.3956193674867,1,1789162743.0742195,38.99142796666667,-76.93662402,-9.748000000000001,0,1,8.614225000000001,6.937956,63.776196,1,1,1789162743.5295913,-0.3139656606372086,-0.9445605607424866,-0.08096204417804687,0.0517306334099288,173.00310028053212,-8.543719486389383,143.75036177472106,0.10038505538940666,-0.06712501396585152,0.06499745760767042,1.7904001200294495,0.48229105495452884,-18.672548373470306
2026-09-11T17:39:03.572,3.8769972160000066,-33.78813934326172,-3040.9325408935547,-12163.730163574219,-23.14487545013428,-13.50314193725586,-5.309844493865967,-3.6372434782981875,-8.136281939643395,-1.0685793082687303,0.0,-0.01889801025390625,-154.8125,-6.80328369140625,-0.1220703199505806,-43.945315182209015,-821.7574929335788,1,1789162743.0742195,38.99142796666667,-76.93662402,-9.748000000000001,0,1,8.614225000000001,6.937956,63.776196,1,1,1789162743.5695913,-0.31458623054744284,-0.944535731805686,-0.07851535086290116,0.05218327865440895,173.294017895496,-8.509745926994597,143.6578671567362,-0.024043132176698286,-0.07902693773397645,0.03804643236422439,-2.089306816959381,1.1799361474609376,-13.969965421409606
2026-09-11T17:39:03.605,3.9104158080000104,-33.96538162231445,-3056.884346008301,-12227.537384033203,-23.266286411285403,-13.624552898406984,-5.284442901611328,-3.61984338760376,-8.097359045283993,0.5206709694539308,0.0,-0.022230148315429688,-182.109375,-8.002853393554688,-0.1068115383386612,-38.45215380191803,164.3744111149372,1,1789162743.0742195,38.99142796666667,-76.93662402,-9.748000000000001,0,1,8.614225000000001,6.937956,63.776196,1,1,1789162743.6015913,-0.3149508551401322,-0.9443570274595157,-0.07816124131754931,0.05372693821563529,173.39082921885196,-8.66800031119084,143.61350753272043,0.02320485053696541,-0.05985746296054713,-0.0030916762369827553,-6.2354604388427735,0.7082362746810914,-7.941131101474761
2026-09-11T17:39:03.639,3.9438390079999976,-34.14535903930664,-3073.0823135375977,-12292.32925415039,-23.38957094192505,-13.747837429046632,-5.363580703735352,-3.674052782058716,-8.218622007110577,-1.6219091665363194,0.0,-0.028125762939453125,-230.40625,-10.125274658203125,-0.1831054985523224,-65.91797947883606,-821.7593072156027,1,1789162743.0742195,38.99142796666667,-76.93662402,-9.748000000000001,0,1,8.614225000000001,6.937956,63.776196,1,1,1789162743.6295915,-0.31460096906049906,-0.9446807239456656,-0.07723469414214104,0.051374722310275914,173.4065357040765,-8.375595106000285,143.64536216916363,0.01100028667654466,-0.06101828144604856,-0.019627972767928232,-2.686335678806305,-0.6239971497917176,-13.859444474086763
2026-09-11T17:39:03.672,3.9772592959999997,-34.32081985473633,-3088.8737869262695,-12355.495147705078,-23.509761600494386,-13.868028087615969,-5.312437534332275,-3.639019711017609,-8.140255259076604,1.0482576045157035,0.0,-0.030170440673828125,-247.15625,-10.861358642578125,0.1068115308880806,38.452151119709015,3122.9572467639596,1,1789162743.0742195,38.99142796666667,-76.93662402,-9.748000000000001,0,1,8.614225000000001,6.937956,63.776196,1,1,1789162743.6695914,-0.31444779348808743,-0.9447663287431631,-0.07486900688120332,0.05416457377530633,173.76404666254413,-8.593925756661518,143.65089907476064,0.02267479404313473,0.0001736602605734358,0.016179202165987436,1.3750884856796266,-2.8638360467338564,-2.9088485709762573
2026-09-11T17:39:03.706,4.010674848000008,-34.4963493347168,-3104.6714401245117,-12418.685760498047,-23.629999294281006,-13.988265781402589,-5.261331081390381,-3.604011790752411,-8.061944771726036,1.0476535077196854,0.0,-0.03141212463378906,-257.328125,-11.308364868164062,0.0457763709127903,16.479493528604507,-657.5578219117604,1,1789162743.0742195,38.99142796666667,-76.93662402,-9.748000000000001,0,1,8.614225000000001,6.937956,63.776196,1,1,1789162743.7015913,-0.3134387922698096,-0.9448149957641724,-0.07585572336757572,0.05767717496524861,173.76995726796076,-9.006166933232109,143.78499759280788,0.05390414488199447,0.010855773414479531,-0.05576955278652601,2.9000225858306883,1.2274003342437743,-11.301870111904146
2026-09-11T17:39:03.739,4.044095200000015,-34.670318603515625,-3120.3286743164062,-12481.314697265625,-23.749168243408207,-14.107434730529786,-5.236294746398926,-3.5868619012832643,-8.02358156156778,0.513157056788117,0.0,-0.031696319580078125,-259.65625,-11.410675048828125,-0.015258795581758022,-5.493166409432888,-657.4634503560151,1,1789162743.0742195,38.99142796666667,-76.93662402,-9.748000000000001,0,1,8.614225000000001,6.937956,63.776196,1,1,1789162743.7295914,-0.3133044371819167,-0.9449379810672094,-0.07397800738180749,0.058820030623639295,174.01583549889065,-9.062851909129032,143.7876957953927,0.04906731392594258,-0.05360848610670663,-0.030178488096233955,-6.444832419795991,-1.415393817844391,-11.6616761063385
2026-09-11T17:39:03.773,4.07751574400001,-34.844642639160156,-3136.017837524414,-12544.071350097656,-23.86858020782471,-14.22684669494629,-5.185883045196533,-3.5523298859596255,-7.946335643252554,1.033257128419099,0.0,-0.0319061279296875,-261.375,-11.4862060546875,0.1220703199505806,43.945315182209015,1479.284166997687,1,1789162743.0742195,38.99142796666667,-76.93662402,-9.748000000000001,0,1,8.614225000000001,6.937956,63.776196,1,1,1789162743.7695913,-0.3124305585088537,-0.9453026386404612,-0.07231749536558409,0.05966780834986537,174.22025231365137,-9.090634536480522,143.8815441022448,0.05171794546094637,0.08515129807922454,-0.05593274107158748,-1.663502066936493,1.6148610821342468,-7.867483158760071
2026-09-11T17:39:03.806,4.110932256000012,-35.02001953125,-3151.8017578125,-12607.20703125,-23.98871337890625,-14.346979866027834,-5.21367073059082,-3.571364450454712,-7.988914751375063,-0.5696155390211093,0.0,-0.03247261047363281,-266.015625,-11.690139770507812,0.0457763709127903,16.479493528604507,-821.9236541983385,1,1789162743.0742195,38.99142796666667,-76.93662402,-9.748000000000001,0,1,8.614225000000001,6.937956,63.776196,1,1,1789162743.8015914,-0.31152005195328036,-0.9453152639218467,-0.07500687903355578,0.06089562484317164,173.9579747012465,-9.315072417840396,144.01435868995853,-0.033512590566318716,0.1340158047460854,-0.06480320246192346,7.539352644348145,2.9229701472091674,-4.474382202796936
2026-09-11T17:39:03.839,4.144357216000003,-35.19416809082031,-3167.475128173828,-12669.900512695312,-24.108005142211915,-14.466271629333498,-5.241035461425781,-3.5901092910766605,-8.030845765651074,-0.5608036814989027,0.0,-0.03145027160644531,-257.640625,-11.322097778320312,0.0762939602136612,27.46582567691803,328.6864710777984,1,1789162743.0742195,38.99142796666667,-76.93662402,-9.748000000000001,0,1,8.614225000000001,6.937956,63.776196,1,1,1789162743.8295913,-0.3112550351336941,-0.9453398383686936,-0.075170848569102,0.061662278764056264,173.9641063568718,-9.403035350352525,144.0483921096808,-0.009051626566692991,0.03675890297502817,0.00715934059168074,-1.738915206680298,0.15592573757171632,-14.923956349143982
2026-09-11T17:39:03.873,4.1777747840000075,-35.36671447753906,-3183.0043029785156,-12732.017211914062,-24.22619941711426,-14.584465904235842,-5.164093017578125,-3.5374037170410157,-7.912946754297181,1.5771816200280604,0.0,-0.03133201599121094,-256.671875,-11.279525756835938,0.015258789993822575,5.493164397776127,-657.5182634217731,1,1789162743.0742195,38.99142796666667,-76.93662402,-9.748000000000001,0,1,8.614225000000001,6.937956,63.776196,1,1,1789162743.8695915,-0.3106352544297703,-0.9454524835141296,-0.07541800467071975,0.06274922066291908,173.96861849444778,-9.526734584207686,144.12642394953716,0.014305242148121122,0.09345574919313876,-0.025734007156030393,-3.3850595028305053,-3.6979897094917296,-14.053125814781188
2026-09-11T17:39:03.906,4.211199552000011,-35.53820037841797,-3198.438034057617,-12793.752136230469,-24.34366725921631,-14.701933746337891,-5.138054847717285,-3.5195675706863407,-7.873048431206015,0.5336206478582967,0.0,-0.030120849609375,-246.75,-10.843505859375,-0.0457763709127903,-16.479493528604507,-657.3765276808648,1,1789162743.0742195,38.99142796666667,-76.93662402,-9.748000000000001,0,1,8.614225000000001,6.937956,63.776196,1,1,1789162743.9015913,-0.3103118142376262,-0.9453159101134817,-0.07612421994119502,0.0654943598275256,173.98316334956147,-9.850049166572038,144.17280285118548,-0.023895477321979566,0.1581512648402142,-0.022931706509028295,4.670907472038269,2.2615115937995913,-19.509545964775086
2026-09-11T17:39:03.940,4.244617599999998,-35.70932388305664,-3213.8391494750977,-12855.35659790039,-24.4608868598938,-14.819153347015382,-5.164548873901367,-3.537715978622437,-7.913645263561276,-0.5430720530445998,0.0,-0.030961990356445312,-253.640625,-11.146316528320312,-0.2288818508386612,-82.39746630191803,-1972.5261264014775,1,1789162743.0742195,38.99142796666667,-76.93662402,-9.748000000000001,0,1,8.614225000000001,6.937956,63.776196,1,1,1789162743.9295914,-0.3096925255255892,-0.9451601001969215,-0.07748306690105737,0.06898767261571988,173.94810624580685,-10.276615712580305,144.26074791593703,0.09372714789182389,0.14735640341662926,-0.03573736176383589,2.1913940451431273,2.419594794406891,-10.505079786262513
2026-09-11T17:39:03.973,4.278035071999994,-35.882362365722656,-3229.412612915039,-12917.650451660156,-24.579418220520022,-14.937684707641603,-5.165253639221191,-3.5381987428665163,-7.914725176419363,-0.014446462140508385,0.0,-0.030223846435546875,-247.59375,-10.880584716796875,-0.0762939527630806,-27.465822994709015,1643.8000847944109,1,1789162743.0742195,38.99142796666667,-76.93662402,-9.748000000000001,0,1,8.614225000000001,6.937956,63.776196,1,1,1789162743.9695914,-0.30951400698046677,-0.9448886028086343,-0.0787095751465571,0.07205144374328087,173.91702700342043,-10.654404869100482,144.2936002656265,0.030937880853776686,0.19554651486051947,-0.07309508720522331,-1.3740097541618348,3.2403133464431764,-5.216255287532807
2026-09-11T17:39:04.006,4.311456319999991,-36.0562629699707,-3245.0636672973633,-12980.254669189453,-24.698540134429933,-15.056806621551514,-5.218316078186035,-3.5745465135574346,-7.99603282381315,-1.087564733995643,0.0,-0.0311431884765625,-255.125,-11.2115478515625,0.0762939527630806,27.465822994709015,1643.614445200377,1,1789162743.0742195,38.99142796666667,-76.93662402,-9.748000000000001,0,1,8.614225000000001,6.937956,63.776196,1,1,1789162744.0015914,-0.3087552743776806,-0.9451316536638958,-0.0788268127820676,0.0719907728332867,173.89333155322996,-10.647018049770507,144.3872376903227,0.20722538555023953,0.013946402453911088,-0.006806958615703085,-6.989493769779205,-2.1980625672531127,-12.03629014251709
2026-09-11T17:39:04.040,4.344875935999994,-36.23200988769531,-3260.880889892578,-13043.523559570312,-24.81892677307129,-15.177193260192873,-5.245028495788574,-3.5928445196151735,-8.036964297635938,-0.547522929579355,0.0,-0.030605316162109375,-250.71875,-11.017913818359375,0.015258817933499813,5.493174456059933,-657.477588570943,1,1789162743.0742195,38.99142796666667,-76.93662402,-9.748000000000001,0,1,8.614225000000001,6.937956,63.776196,1,1,1789162744.0295913,-0.30822009940977113,-0.9451134666254372,-0.07918149572857504,0.07410260627849186,173.92113183260574,-10.887511135230183,144.45551235945052,0.15154083029828566,0.11784410749588153,-0.004877148061772955,9.502938206233978,0.18524762155532837,-12.035799810009001
2026-09-11T17:39:04.074,4.378291520000005,-36.40626525878906,-3276.5638732910156,-13106.255493164062,-24.93829170227051,-15.29655818939209,-5.219679832458496,-3.57548068523407,-7.998122506339626,0.5196328270395556,0.0,-0.030107498168945312,-246.640625,-10.838699340820312,-0.1373291164636612,-49.43848192691803,-1643.8933517654596,1,1789162744.0723798,38.991445365,-76.936619425,-9.823000000000004,0,1,8.614225000000001,6.932689,63.792169,1,1,1789162744.0695913,-0.30726577770061614,-0.944984471120571,-0.08125829985829375,0.07738979195701316,173.79312757279277,-11.314838191819774,144.59114966115573,0.11676863561080263,0.05670731819362256,0.006443231999587466,9.49597548461914,0.6669502775001526,-15.65141365814209
2026-09-11T17:39:04.107,4.41172774399999,-36.58115005493164,-3292.3035049438477,-13169.21401977539,-25.058087787628175,-15.416354274749757,-5.221137046813965,-3.5764788770675664,-8.000355397878405,-0.02985360528439776,0.0,-0.0302581787109375,-247.875,-10.8929443359375,0.030517593026161194,10.98633348941803,1807.1662462951415,1,1789162744.0723798,38.991445365,-76.936619425,-9.823000000000004,0,1,8.614225000000001,6.932689,63.792169,1,1,1789162744.1015913,-0.30677650207094703,-0.9454259332209335,-0.07931272456334515,0.07594388910755016,173.9533465491047,-11.084775029216475,144.6323467547652,0.2663609803321618,0.09225217014096349,-0.0016610298491230035,-0.6797969892120362,1.3118355921363831,-5.346389535179138
2026-09-11T17:39:04.140,4.445145311999994,-36.75890350341797,-3308.301315307617,-13233.205261230469,-25.17984889984131,-15.538115386962891,-5.2491374015808105,-3.5956591200828556,-8.043260379569729,-0.5739568784684355,0.0,-0.030879974365234375,-252.96875,-11.116790771484375,0.0457763709127903,16.479493528604507,164.37940783679278,1,1789162744.0723798,38.991445365,-76.936619425,-9.823000000000004,0,1,8.614225000000001,6.932689,63.792169,1,1,1789162744.1295915,-0.3071218288389989,-0.9454740502949774,-0.07868918430081884,0.07458562021912093,173.9796780600921,-10.916129485353817,144.58468341887732,-0.13575903960297733,-0.07621416511146238,0.00588525023772488,3.4261493670082093,-3.4763594158363347,3.6492506581878663
2026-09-11T17:39:04.174,4.478567808000008,-36.935035705566406,-3324.1532135009766,-13296.612854003906,-25.30049945831299,-15.658765945434572,-5.3028364181518555,-3.632442946434021,-8.125543455695277,-1.1005708954576534,0.0,-0.03134727478027344,-256.796875,-11.285018920898438,-0.1678466945886612,-60.42481005191803,-2300.974277339723,1,1789162744.0723798,38.991445365,-76.936619425,-9.823000000000004,0,1,8.614225000000001,6.932689,63.792169,1,1,1789162744.1695914,-0.30611754781618156,-0.9453531525694305,-0.08111861056100028,0.07758372810518523,173.80146957116352,-11.323697213319395,144.72987694521964,-0.3340528772390611,0.021275738114736074,-0.047781529865998366,2.587876911182404,-1.2910454937934874,-9.013194097156525
2026-09-11T17:39:04.207,4.511994304000012,-37.107704162597656,-3339.693374633789,-13358.773498535156,-25.418777351379397,-15.777043838500978,-5.199601173400879,-3.561726803779602,-7.967355949757512,2.1155715111272864,0.0,-0.03191375732421875,-261.4375,-11.48895263671875,-0.10681158304214478,-38.45216989517212,657.3420126579583,1,1789162744.0723798,38.991445365,-76.936619425,-9.823000000000004,0,1,8.614225000000001,6.932689,63.792169,1,1,1789162744.2015913,-0.3060324668997507,-0.945454959800847,-0.0798286381869972,0.07801561841350362,173.95857077599644,-11.325398368027273,144.72729865470674,-0.12494724848564806,0.07894647805545951,0.0033183945068168187,-2.1987490327644346,-4.1888125500869755,-19.111199835205078
2026-09-11T17:39:04.240,4.545414464000004,-37.28081130981445,-3355.273017883301,-13421.092071533203,-25.537355747222904,-15.895622234344483,-5.149095058441162,-3.5271301150321963,-7.88996536111353,1.0352041626196482,0.0,-0.028646469116210938,-234.671875,-10.312728881835938,0.030517585575580597,10.986330807209015,1479.3017359101134,1,1789162744.0723798,38.991445365,-76.936619425,-9.823000000000004,0,1,8.614225000000001,6.932689,63.792169,1,1,1789162744.2295914,-0.30540229045994494,-0.945556663863645,-0.08039887016855594,0.078664210925255,173.90988227626482,-11.412484699016666,144.80957242159744,-0.007355864665455301,0.09450713553454015,-0.04753840550119555,-1.0351899910736084,-1.5279741617012024,-13.351656128711701
2026-09-11T17:39:04.274,4.578829055999989,-37.45062255859375,-3370.5560302734375,-13482.22412109375,-25.65367645263672,-16.011942939758303,-5.096811771392822,-3.4913160634040836,-7.809851609261095,1.0718087363786513,0.0,-0.021535873413085938,-176.421875,-7.7529144287109375,0.1831054985523224,65.91797947883606,1643.9419242841818,1,1789162744.0723798,38.991445365,-76.936619425,-9.823000000000004,0,1,8.614225000000001,6.932689,63.792169,1,1,1789162744.2695913,-0.30584572316395003,-0.9456708293486178,-0.07765721429948934,0.0783226225854388,174.20801453285574,-11.28194316728791,144.72842854644946,0.05137481373000429,-0.05182667947334562,-0.008097455064627692,-6.407272949676514,-1.7194980393600463,-10.035047044010163
2026-09-11T17:39:04.307,4.612253664000008,-37.622379302978516,-3386.0141372680664,-13544.056549072266,-25.771329822540284,-16.129596309661867,-5.1234917640686035,-3.509591858386994,-7.850733398324512,-0.5467766438098577,0.0,-0.016511917114257812,-135.265625,-5.9442901611328125,0.0,0.0,-1972.1391939375824,1,1789162744.0723798,38.991445365,-76.936619425,-9.823000000000004,0,1,8.614225000000001,6.932689,63.792169,1,1,1789162744.3015914,-0.3059206122820298,-0.9453837143765553,-0.0800323586972722,0.07910141044208473,173.97194540042406,-11.450979415496835,144.7423889851544,-0.018435563822965705,0.054909105465292804,0.05443908829773073,3.0042672770500185,1.392936588973999,-9.40899049768448
2026-09-11T17:39:04.341,4.645702080000007,-37.79404067993164,-3401.4636611938477,-13605.85464477539,-25.888917865753175,-16.247184352874758,-5.124181270599365,-3.5100641703605655,-7.8517899301193665,-0.014120608090131607,0.0,-0.008447647094726562,-69.203125,-3.0411529541015625,0.3509521782398224,126.34278416633606,3777.2426702161483,1,1789162744.0723798,38.991445365,-76.936619425,-9.823000000000004,0,1,8.614225000000001,6.932689,63.792169,1,1,1789162744.3295913,-0.3068811737661389,-0.9451329377802273,-0.07964422282817707,0.07876847644159095,174.01528683630477,-11.406934923565922,144.6214138724994,-0.06671416345993204,0.06398027971960814,0.08000955810284925,2.4739236363029478,1.4785486448860168,-7.798248208618165
2026-09-11T17:39:04.374,4.679121503999994,-37.96676254272461,-3417.008628845215,-13668.03451538086,-26.00723234176636,-16.36549882888794,-5.151702880859375,-3.528916473388672,-7.893961330951745,-0.5641121471188003,0.0,0.00030326846172101796,2.484375238418579,0.10917664621956646,0.2441406548023224,87.89063572883606,-1150.592794104245,1,1789162744.0723798,38.991445365,-76.936619425,-9.823000000000004,0,1,8.614225000000001,6.932689,63.792169,1,1,1789162744.3695915,-0.3086120456280216,-0.9443622809545693,-0.08161595673171135,0.07922956020538167,173.83348348477978,-11.538020462288616,144.42942266161742,-0.009965480963037223,0.06800972136368744,0.14501329889582687,4.663552484416962,-2.4690203112220765,-11.139864251232147
2026-09-11T17:39:04.408,4.712551103999999,-38.13761901855469,-3432.385711669922,-13729.542846679688,-26.124269027709964,-16.482535514831543,-5.127578258514404,-3.512391107082367,-7.856995139321678,0.49433335446138793,0.0,0.008064270950853825,66.06250762939453,2.903137542307377,0.4119873642921448,148.31545114517212,1807.524332218355,1,1789162744.0723798,38.991445365,-76.936619425,-9.823000000000004,0,1,8.614225000000001,6.932689,63.792169,1,1,1789162744.4015913,-0.31016455656952824,-0.94388938048822,-0.08281696929005705,0.07753795746085823,173.66038182018107,-11.40531574395482,144.25239425077527,-0.011336611623403969,-0.0015378096039322037,0.11747479582615954,-5.307162934532165,0.805420177783966,-6.577418329982758
2026-09-11T17:39:04.441,4.745967776000015,-38.30998992919922,-3447.8990936279297,-13791.596374511719,-26.24234310150147,-16.600609588623048,-5.154570579528809,-3.5308808469772344,-7.898355509523153,-0.5533088362257846,0.0,0.016979219391942024,139.09376525878906,6.112518981099129,0.3356934189796448,120.84963083267212,-821.9196786707917,1,1789162744.0723798,38.991445365,-76.936619425,-9.823000000000004,0,1,8.614225000000001,6.932689,63.792169,1,1,1789162744.4295914,-0.3128830837871152,-0.9430086232739759,-0.08182591847834485,0.0783800445008854,173.8329994218534,-11.480242228246425,143.909600408367,0.0024617869099380018,0.1271238485958102,0.2089583229645447,0.3650035190200806,-0.7569753259849548,-9.164412642650603
2026-09-11T17:39:04.475,4.77938454400001,-38.482261657714844,-3463.403549194336,-13853.614196777344,-26.36034923553467,-16.718615722656253,-5.1555562019348145,-3.531555998325348,-7.899865780076379,-0.020203969100599455,0.0,0.0341339148581028,279.6250305175781,12.288209348917007,0.6866455674171448,247.19240427017212,3780.819660283087,1,1789162744.0723798,38.991445365,-76.936619425,-9.823000000000004,0,1,8.614225000000001,6.932689,63.792169,1,1,1789162744.4695914,-0.3171254072291004,-0.9414165327390603,-0.08252074455084106,0.07972900785860636,173.85639178933826,-11.680572900688581,143.39579858971283,-0.06529939956826544,0.12800332000589013,0.19775453089721753,3.1179263524246217,-1.0093004346466063,-5.610776823539734
2026-09-11T17:39:04.508,4.81280422399999,-38.65957260131836,-3479.3615341186523,-13917.44613647461,-26.48180723190308,-16.84007371902466,-5.261369228363037,-3.604037921428681,-8.062003224384119,-2.1688395311797013,0.0,0.038732532411813736,317.2969055175781,13.943711668252945,0.3967285454273224,142.82227635383606,-3123.0139820727763,1,1789162744.0723798,38.991445365,-76.936619425,-9.823000000000004,0,1,8.614225000000001,6.932689,63.792169,1,1,1789162744.5015914,-0.321209921115621,-0.9398425796196592,-0.08607298855152302,0.07817642069428958,173.45853847641067,-11.668098927925147,142.93133490187125,-0.17551135677810098,-0.056688992236476624,0.2812180955897635,-2.9360129919242857,-0.5480936775398254,-4.3710201100921635
2026-09-11T17:39:04.541,4.846223903999999,-38.8365364074707,-3495.2882766723633,-13981.153106689453,-26.603027439117433,-16.961293926239016,-5.314898490905762,-3.640705466270447,-8.144026186181199,-1.0971841993028337,0.0,0.04909515753388405,402.1875305175781,17.674256712198257,0.21362310647964478,76.90431833267212,-1972.4293596212458,1,1789162744.0723798,38.991445365,-76.936619425,-9.823000000000004,0,1,8.614225000000001,6.932689,63.792169,1,1,1789162744.5295913,-0.3255263024530891,-0.9380812796933117,-0.08832376598728332,0.07896234204988074,173.2926828688535,-11.867529100228362,142.42305007542478,-0.18213924461254943,0.1273666238947626,0.3390951334480727,1.603779567451477,0.3669648490524292,-6.546331248970032
2026-09-11T17:39:04.575,4.879641888000009,-39.01179885864258,-3511.061897277832,-14044.247589111328,-26.72308221817017,-17.08134870529175,-5.290232181549072,-3.623809044361115,-8.10622996680635,0.505608653990831,0.0,0.0633697584271431,519.1250610351562,22.813113033771515,0.6408692002296448,230.71291208267212,4602.569495214079,1,1789162744.0723798,38.991445365,-76.936619425,-9.823000000000004,0,1,8.614225000000001,6.932689,63.792169,1,1,1789162744.5695913,-0.33199822710814925,-0.935175627698643,-0.09275770355497892,0.08136172925092852,172.97557892132664,-12.343129503649234,141.66960236047007,-0.20850907521508139,0.21082076380934786,0.3634679583204727,0.5211253895950317,2.9284618712997434,2.641813487071991
2026-09-11T17:39:04.608,4.913062432000004,-39.18531036376953,-3526.677932739258,-14106.711730957031,-26.84193759918213,-17.200204086303714,-5.187654495239258,-3.553543329238892,-7.949050038562294,2.102470717479454,0.0,0.07940865308046341,650.5156860351562,28.587115108966827,0.2746582627296448,98.87697458267212,-3944.7573773790273,1,1789162744.0723798,38.991445365,-76.936619425,-9.823000000000004,0,1,8.614225000000001,6.932689,63.792169,1,1,1789162744.6015913,-0.33826142158579037,-0.93305866203557,-0.0914509540903248,0.08134781412626578,173.20265181608266,-12.337699953658904,140.88137884263526,0.006232396225946552,0.08462089251954347,0.40200029034845236,-1.5458222649955748,-5.254010890655517,-3.4599823100662235
2026-09-11T17:39:04.642,4.946522336000015,-39.3579216003418,-3542.2129440307617,-14168.851776123047,-26.960176296234135,-17.318442783355714,-5.108850955963135,-3.4995629048347476,-7.828299268152165,1.6132868882148015,0.0,0.09179497510194778,751.9844360351562,33.0461910367012,0.5035400986671448,181.27443552017212,2462.5731423937104,1,1789162744.0723798,38.991445365,-76.936619425,-9.823000000000004,0,1,8.614225000000001,6.932689,63.792169,1,1,1789162744.641627,-0.3475074116689132,-0.9298209826474277,-0.08917296131387512,0.08197391069272301,173.6011612583752,-12.381423277125876,139.70976681526233,-0.07479922668687058,-0.004073598474154765,0.5284061104899921,5.8533933485412595,-0.012258312702178956,-7.337335651016235
2026-09-11T17:39:04.675,4.979937664000005,-39.52936553955078,-3557.6428985595703,-14230.571594238281,-27.077615394592286,-17.43588188171387,-5.135429382324219,-3.51776912689209,-7.869025427013436,-0.5448464266862242,0.0,0.10809899121522903,885.5469360351562,38.91563683748245,0.3814697861671448,137.32912302017212,-1315.1243794468724,1,1789162744.0723798,38.991445365,-76.936619425,-9.823000000000004,0,1,8.614225000000001,6.932689,63.792169,1,1,1789162744.669627,-0.35434135315631105,-0.9273183242686658,-0.08934993294560464,0.08086730118857836,173.62958022737612,-12.315823605168434,138.8628978225792,-0.08055898775137707,-0.040958863287027324,0.5654721914133712,0.9140778615760803,0.09433997455596924,-8.943566881008147
2026-09-11T17:39:04.708,5.013351040000003,-39.70389175415039,-3573.350257873535,-14293.40103149414,-27.19716585159302,-17.555432338714603,-5.21382474899292,-3.5714699530601504,-7.9891507539820745,-1.6071655305965642,0.0,0.10992241650819778,900.4844360351562,39.5720699429512,0.0762939527630806,27.465822994709015,-3288.003583518998,1,1789162744.0723798,38.991445365,-76.936619425,-9.823000000000004,0,1,8.614225000000001,6.932689,63.792169,1,1,1789162744.701627,-0.36286356192363,-0.9241607959846728,-0.08942610406837058,0.07911909064331214,173.66409559119026,-12.188960767154075,137.80314803237613,-0.099969667027432,0.08134333871722332,0.5629803848402989,-3.7264289949607847,-3.0613419809913633,-7.644381867580414
2026-09-11T17:39:04.742,5.046769024000014,-39.8779296875,-3589.013671875,-14356.0546875,-27.316381835937502,-17.674648323059085,-5.214635372161865,-3.572025229930878,-7.990392872966343,-0.0166161091802356,0.0,0.11096001416444778,908.9844360351562,39.9456050992012,0.1525879055261612,54.93164598941803,821.8874901220993,1,1789162744.0723798,38.991445365,-76.936619425,-9.823000000000004,0,1,8.614225000000001,6.932689,63.792169,1,1,1789162744.741627,-0.37373304342027625,-0.9196418671281579,-0.09040285349233534,0.08006105520973976,173.74359457821288,-12.40544038104755,136.44798887461138,-0.006421066318087139,0.09210119916066596,0.6329223602188693,1.4639367361450195,-0.1484726834487915,-9.755263314895629
2026-09-11T17:39:04.775,5.080183231999996,-40.05062484741211,-3604.55623626709,-14418.22494506836,-27.434678020477296,-17.79294450759888,-5.189022064208984,-3.5544801139831548,-7.951145566354579,0.5250795095227898,0.0,0.11404610425233841,934.2656860351562,41.05659753084183,0.06103518605232239,21.97266697883606,-986.3761849629818,1,1789162744.0723798,38.991445365,-76.936619425,-9.823000000000004,0,1,8.614225000000001,6.932689,63.792169,1,1,1789162744.769627,-0.38198947873096717,-0.9164736030041875,-0.08846016894236766,0.07959253511514158,174.0461856993949,-12.325817544806792,135.3903665893021,-0.10488049994376845,-0.0009293878266869804,0.5878687799737381,-8.275832071495056,-4.319044864234924,-10.421232927379608
2026-09-11T17:39:04.808,5.113601727999992,-40.221954345703125,-3619.9758911132812,-14479.903564453125,-27.552038726806643,-17.910305213928225,-5.112857818603516,-3.5023076057434084,-7.834438989225583,1.5611866027649113,0.0,0.11976815015077591,981.1406860351562,43.11653405427933,0.2441406548023224,87.89063572883606,1972.4995628171914,1,1789162744.0723798,38.991445365,-76.936619425,-9.823000000000004,0,1,8.614225000000001,6.932689,63.792169,1,1,1789162744.801627,-0.39103266704327155,-0.9124643726018598,-0.08941115720186822,0.08067135182419528,174.11540828008273,-12.541390573840724,134.25249233085415,-0.048936763297893406,0.08974186307782003,0.6381014502412372,5.507316664333344,3.1137094928550724,-13.599960510807039
2026-09-11T17:39:04.842,5.1470194560000095,-40.39017105102539,-3635.115394592285,-14540.46157836914,-27.667267169952396,-18.025533657073975,-5.036604404449463,-3.4500740170478825,-7.7175957790083185,1.563050267675238,0.0,0.12838555872440338,1051.7344970703125,46.21880114078522,0.16784673929214478,60.42482614517212,-821.893384961702,1,1789162744.0723798,38.991445365,-76.936619425,-9.823000000000004,0,1,8.614225000000001,6.932689,63.792169,1,1,1789162744.8416271,-0.4028073437781001,-0.9072902212088284,-0.09050293310316183,0.07987438511182142,174.12637122007035,-12.582725126778294,132.76879098734454,-0.06616246488337664,-0.024922952652628626,0.6537101042747477,0.5308339732551575,2.6734889670944213,-10.471541042709351
2026-09-11T17:39:04.875,5.180437823999995,-40.56175231933594,-3650.5577087402344,-14602.230834960938,-27.784800338745118,-18.1430668258667,-5.116611957550049,-3.5048791909217836,-7.8401914614392,-1.6399715831103756,0.0,0.1341724544763565,1099.1407470703125,48.30208361148834,0.22888189554214478,82.39748239517212,657.5023726475707,1,1789162744.0723798,38.991445365,-76.936619425,-9.823000000000004,0,1,8.614225000000001,6.932689,63.792169,1,1,1789162744.869627,-0.41147275317681353,-0.9032698123897303,-0.0911651277086675,0.08051545757416288,174.20802456124676,-12.737127204772001,131.66496658382852,-0.010530967640683385,0.04059112241363212,0.7045192567941807,2.824315246582031,0.27674366756439206,-12.271649746398927
2026-09-11T17:39:04.909,5.213861056000013,-40.730552673339844,-3665.749740600586,-14662.998962402344,-27.900428581237794,-18.258695068359376,-5.065786361694336,-3.4700636577606203,-7.76231133178377,1.0416566884119467,0.0,0.14106370508670807,1155.5938720703125,50.782933831214905,0.2746582627296448,98.87697458267212,493.0550159688621,1,1789162744.0723798,38.991445365,-76.936619425,-9.823000000000004,0,1,8.614225000000001,6.932689,63.792169,1,1,1789162744.901627,-0.4216581438931122,-0.8984203922005966,-0.09262192359727084,0.08041385350723712,174.1945790187311,-12.861817079365256,130.3704977027,-0.12387020580424236,0.12064728080750962,0.7000077552107005,0.598205659866333,1.4318689901161195,-10.777704660758973
2026-09-11T17:39:04.943,5.247290432,-40.901885986328125,-3681.1697387695312,-14724.678955078125,-28.01779190063477,-18.37605838775635,-5.067106246948242,-3.470967779159546,-7.76433379375345,-0.027045715688087578,0.0,0.1482410579919815,1214.3907470703125,53.36678087711334,0.10681158304214478,38.45216989517212,-1807.5361229454047,1,1789162744.0723798,38.991445365,-76.936619425,-9.823000000000004,0,1,8.614225000000001,6.932689,63.792169,1,1,1789162744.941627,-0.43450618179810085,-0.891826802037336,-0.09543743264871928,0.08210377333908035,174.16944928963267,-13.260631387808756,128.7267864021921,-0.09855682299794259,0.14470123402557028,0.7283192646060761,7.297128385353088,4.513118470935821,-10.195778040161132
2026-09-11T17:39:04.976,5.280709024000004,-41.071990966796875,-3696.4791870117188,-14785.916748046875,-28.13431381225586,-18.492580299377444,-5.093087196350098,-3.488764729499817,-7.8041444378574925,-0.5325463843679894,0.0,0.15340997278690338,1256.7344970703125,55.22759020328522,0.12207037210464478,43.94533395767212,164.37449137591932,1,1789162744.0723798,38.991445365,-76.936619425,-9.823000000000004,0,1,8.614225000000001,6.932689,63.792169,1,1,1789162744.969627,-0.444435812074297,-0.8872007745517162,-0.09432248177350201,0.08034216833508048,174.34662682185615,-13.085207772663727,127.43250564143192,-0.1943165813366391,-0.04348418018173792,0.7675813187943147,-0.23781126642227174,-1.3875429313850403,-13.426382802944184
2026-09-11T17:39:05.009,5.314125824000001,-41.24087905883789,-3711.67911529541,-14846.71646118164,-28.250002155303957,-18.60826864242554,-5.066391944885254,-3.470478482246399,-7.7632392677308415,0.5472171857694109,0.0,0.15770532190799713,1291.9219970703125,56.77391588687897,0.3051758110523224,109.86329197883606,1972.5993518580024,1,1789162744.0723798,38.991445365,-76.936619425,-9.823000000000004,0,1,8.614225000000001,6.932689,63.792169,1,1,1789162745.001627,-0.45538109356540246,-0.8818778386384974,-0.09412848800349802,0.07784192371496118,174.40005475266534,-12.886639027169368,126.01137437797843,-0.1074808659963148,0.023378336264613647,0.7579361057490184,-5.421802674922943,1.3593978454208373,-8.945234011535645
2026-09-11T17:39:05.043,5.347544607999993,-41.41105270385742,-3726.994743347168,-14907.978973388672,-28.366571102142338,-18.724837589263917,-5.066826820373535,-3.4707763719558717,-7.76390562803299,-0.008913840475841648,0.0,0.1648712307214737,1350.6251220703125,59.35364305973053,0.2593994438648224,93.38379979133606,-493.12064099951334,1,1789162744.0723798,38.991445365,-76.936619425,-9.823000000000004,0,1,8.614225000000001,6.932689,63.792169,1,1,1789162745.041627,-0.46954865637851634,-0.8747480969743358,-0.09314545213502808,0.07525789579485632,174.57273775472248,-12.658293901402068,124.15024772257742,-0.2051409388245827,-0.01947682725470552,0.7829679669469713,-2.7740071312522887,-1.3480221312332152,-6.938793388442993
2026-09-11T17:39:05.076,5.381078848000016,-41.58241653442383,-3742.4174880981445,-14969.669952392578,-28.483955326080324,-18.842221813201906,-5.120307922363281,-3.507410926818848,-7.84585479334924,-1.0924522178809255,0.0,0.1750946193933487,1434.3751220703125,63.03406298160553,0.09155279397964478,32.95900583267212,-1801.8835064883726,1,1789162744.0723798,38.991445365,-76.936619425,-9.823000000000004,0,1,8.614225000000001,6.932689,63.792169,1,1,1789162745.069627,-0.479431037134337,-0.8691203416867269,-0.09546454791058466,0.07524780655187706,174.47984670088172,-12.846282485481625,122.85720762518005,-0.047722537737280954,0.10618164290113022,0.860252717021607,0.9028982803916931,2.4381293632125853,-10.40858234867096
2026-09-11T17:39:05.110,5.414501184000017,-41.75452423095703,-3757.907180786133,-15031.628723144531,-28.60184909820557,-18.96011558532715,-5.121346950531006,-3.5081226611137395,-7.847446897623782,-0.021295169041788187,0.0,0.17715837061405182,1451.2813720703125,63.777013421058655,0.1220703199505806,43.945315182209015,328.71159423256853,1,1789162745.0776465,38.99145995833333,-76.936611615,-9.887000000000004,0,1,8.614225000000001,6.932689,63.808144000000006,1,1,1789162745.101627,-0.49052752802244776,-0.8629820450728984,-0.09560622824348204,0.07419018300987991,174.57255795666345,-12.817396325198636,121.38141361030902,-0.0013990559283986546,0.0277626033456234,0.7939501021992953,-2.683785949764252,3.5665805973243714,-11.302752710418702
2026-09-11T17:39:05.143,5.447927808000003,-41.92523956298828,-3773.2715606689453,-15093.086242675781,-28.718789100646976,-19.077055587768555,-5.174212455749512,-3.544335532188416,-7.928452783170212,-1.0833541273773606,0.0,0.18082620203495026,1481.3282470703125,65.09743273258209,0.030517593026161194,10.98633348941803,-986.0098851982327,1,1789162745.0776465,38.99145995833333,-76.936611615,-9.887000000000004,0,1,8.614225000000001,6.932689,63.808144000000006,1,1,1789162745.141627,-0.5054212566302042,-0.8541911812433339,-0.09702418385916128,0.07411536263776226,174.65117278259382,-12.984858354043311,119.38390082471483,-0.12449503367645633,-0.01076030390439544,0.8921082919960824,10.283645625610351,1.7449953297805785,-9.641604239521026
