timestamp,time_s,drive_pos_turns,drive_encoder_count,drive_wheel_angle_deg,drive_distance_m,drive_distance_since_start_m,drive_velocity_turns_s,drive_velocity_mps,drive_velocity_mph,drive_acceleration_mps2,drive_iq_A,steer_pos_turns,steer_encoder_count,steer_angle_deg,steer_velocity_turns_s,steer_velocity_deg_s,steer_acceleration_deg_s2,gps_received,gps_ros_stamp_s,gps_latitude_deg,gps_longitude_deg,gps_altitude_m,gps_status,gps_service,gps_cov_x_m2,gps_cov_y_m2,gps_cov_z_m2,gps_covariance_type,imu_received,imu_ros_stamp_s,imu_qx,imu_qy,imu_qz,imu_qw,imu_roll_deg,imu_pitch_deg,imu_yaw_deg,imu_gyro_x_rad_s,imu_gyro_y_rad_s,imu_gyro_z_rad_s,imu_accel_x_mps2,imu_accel_y_mps2,imu_accel_z_mps2
2026-09-11T17:41:03.079,8.927999999741587e-06,-472.2610168457031,-42503.49151611328,-170013.96606445312,-323.4987965393067,0.0,0.0,0.0,0.0,0.0,0.0,-0.043914794921875,-359.75,-15.809326171875,0.0,0.0,0.0,1,1789162863.0662239,38.991403635,-76.93668435,-9.602000000000004,0,1,16.941456,6.932689,72.914521,1,1,1789162863.0696323,-0.8942540682128582,0.4461240516992504,0.012783588467005906,-0.03346000367757721,175.9141354950274,-0.4005622306828963,-53.01294832851325,0.0004745550236172582,0.004004832501626188,-0.00223768663398193,0.07070594766616821,0.7044116811180116,-9.688185827789306
2026-09-11T17:41:03.112,0.03342969599998469,-472.2610168457031,-42503.49151611328,-170013.96606445312,-323.4987965393067,0.0,0.0,0.0,0.0,0.0,0.0,-0.043914794921875,-359.75,-15.809326171875,0.0,0.0,0.0,1,1789162863.0662239,38.991403635,-76.93668435,-9.602000000000004,0,1,16.941456,6.932689,72.914521,1,1,1789162863.1096323,-0.8942626077216709,0.44610180784926096,0.01279495834210384,-0.033523939289442486,175.9069829282004,-0.4025677116350238,-53.010132162484304,0.0012903219159994077,-0.0003234095103945493,0.0024947736328006947,0.07443247472763062,0.7058826786422729,-9.69112782283783
2026-09-11T17:41:03.145,0.06684451199998875,-472.2610168457031,-42503.49151611328,-170013.96606445312,-323.4987965393067,0.0,0.0,0.0,0.0,0.0,0.0,-0.043914794921875,-359.75,-15.809326171875,0.0,0.0,0.0,1,1789162863.0662239,38.991403635,-76.93668435,-9.602000000000004,0,1,16.941456,6.932689,72.914521,1,1,1789162863.1416323,-0.8942742151358357,0.44607764313536863,0.0127832364008512,-0.03354032356879631,175.90589017051812,-0.404496642261596,-53.006985770222464,0.0019963075984311142,0.0037746235732881365,-0.0016530013345638296,0.0790416003036499,0.6970566934967042,-9.688185827789306
2026-09-11T17:41:03.178,0.10025788799998736,-472.2610168457031,-42503.49151611328,-170013.96606445312,-323.4987965393067,0.0,0.0,0.0,0.0,0.0,0.0,-0.043914794921875,-359.75,-15.809326171875,0.0,0.0,0.0,1,1789162863.0662239,38.991403635,-76.93668435,-9.602000000000004,0,1,16.941456,6.932689,72.914521,1,1,1789162863.1696322,-0.8942903093153437,0.44604782461872744,0.012794871276038396,-0.0335033145613606,175.90907973839595,-0.40127440818433696,-53.003228756227095,0.0002614503219487506,0.002591115807510782,-0.0006806784082777885,0.07227501169204711,0.6969586269950866,-9.679948241653442
2026-09-11T17:41:03.213,0.13367017600000963,-472.2610168457031,-42503.49151611328,-170013.96606445312,-323.4987965393067,0.0,0.0,0.0,0.0,0.0,0.0,-0.043914794921875,-359.75,-15.809326171875,0.0,0.0,0.0,1,1789162863.0662239,38.991403635,-76.93668435,-9.602000000000004,0,1,16.941456,6.932689,72.914521,1,1,1789162863.2096322,-0.8942697379784614,0.446100530276536,0.012676267967850454,-0.03339558134446275,175.92622487657746,-0.4081538005546735,-53.00950512286892,0.00262549879377507,0.0015158184553570751,-0.0013569934934255913,0.07678607076644897,0.6948992304611207,-9.692010421352387
2026-09-11T17:41:03.246,0.1670883520000075,-472.2610168457031,-42503.49151611328,-170013.96606445312,-323.4987965393067,0.0,0.0,0.0,0.0,0.0,0.0,-0.043914794921875,-359.75,-15.809326171875,0.0,0.0,0.0,1,1789162863.0662239,38.991403635,-76.93668435,-9.602000000000004,0,1,16.941456,6.932689,72.914521,1,1,1789162863.2416322,-0.8942768046339532,0.44608061098567964,0.012761487795755703,-0.03343994057362721,175.91730528331829,-0.4016016218164167,-53.0073012938469,0.0016713272917097699,-0.001525417766243044,0.002937040065256058,0.07453054122924804,0.6999986885452271,-9.69416788438797
2026-09-11T17:41:03.279,0.2004994879999913,-472.2610168457031,-42503.49151611328,-170013.96606445312,-323.4987965393067,0.0,0.0,0.0,0.0,0.0,0.0,-0.043914794921875,-359.75,-15.809326171875,0.0,0.0,0.0,1,1789162863.0662239,38.991403635,-76.93668435,-9.602000000000004,0,1,16.941456,6.932689,72.914521,1,1,1789162863.269632,-0.894277784308887,0.4460766390542811,0.012795020122375746,-0.03345390921390879,175.91415510433808,-0.39886265012609773,-53.006930247360465,-0.0005761331860833282,-0.00016406094968746698,-0.000979129710368819,0.07296147720336915,0.7051962131309509,-9.687401295776368
2026-09-11T17:41:03.312,0.23391324800002167,-472.2610168457031,-42503.49151611328,-170013.96606445312,-323.4987965393067,0.0,0.0,0.0,0.0,0.0,0.0,-0.043914794921875,-359.75,-15.809326171875,0.0,0.0,0.0,1,1789162863.0662239,38.991403635,-76.93668435,-9.602000000000004,0,1,16.941456,6.932689,72.914521,1,1,1789162863.3096323,-0.8942572674333659,0.4461213321168969,0.01275072603931102,-0.03342328018500752,175.91958363851205,-0.40203733944419207,-53.01247204359296,0.0029998719183278537,0.00020367992370773827,-0.0020322613810221974,0.0737460092163086,0.7021561515808106,-9.684459300727845
2026-09-11T17:41:03.346,0.26732297600000265,-472.2610168457031,-42503.49151611328,-170013.96606445312,-323.4987965393067,0.0,0.0,0.0,0.0,0.0,0.0,-0.043914794921875,-359.75,-15.809326171875,0.0,0.0,0.0,1,1789162863.0662239,38.991403635,-76.93668435,-9.602000000000004,0,1,16.941456,6.932689,72.914521,1,1,1789162863.3416321,-0.8942687996743528,0.44609655614613086,0.012839822005550594,-0.0334113078825074,175.91624436264627,-0.3921831815765011,-53.00967918319847,0.002083224995180432,0.00023858650874762483,0.00020263272615654167,0.07149047967910767,0.6999986885452271,-9.688185827789306
2026-09-11T17:41:03.379,0.30073507200000904,-472.2610168457031,-42503.49151611328,-170013.96606445312,-323.4987965393067,0.0,0.0,0.0,0.0,0.0,0.0,-0.043914794921875,-359.75,-15.809326171875,0.0,0.0,0.0,1,1789162863.0662239,38.991403635,-76.93668435,-9.602000000000004,0,1,16.941456,6.932689,72.914521,1,1,1789162863.3696322,-0.8942772481047973,0.44608658616330066,0.012845468124917254,-0.033315988893245815,175.92573295107755,-0.3866813641857246,-53.0084519836721,-0.0006714281632422185,-0.005440365811391524,-0.0045308747381772796,0.06854848463058472,0.6926437009239197,-9.691225889339448
2026-09-11T17:41:03.413,0.334147583999993,-472.2610168457031,-42503.49151611328,-170013.96606445312,-323.4987965393067,0.0,0.0,0.0,0.0,0.0,0.0,-0.043914794921875,-359.75,-15.809326171875,0.0,0.0,0.0,1,1789162863.0662239,38.991403635,-76.93668435,-9.602000000000004,0,1,16.941456,6.932689,72.914521,1,1,1789162863.4096322,-0.894323665431912,0.4459886462440299,0.012973090033021087,-0.03333178370328089,175.917543997253,-0.37396712717403263,-52.996452300900295,0.0009002408281786752,0.0007813839061178613,0.0002782054827678961,0.07453054122924804,0.6955856959724427,-9.69269688686371
2026-09-11T17:41:03.446,0.3675601279999796,-472.2610168457031,-42503.49151611328,-170013.96606445312,-323.4987965393067,0.0,0.0,0.0,0.0,0.0,0.0,-0.043914794921875,-359.75,-15.809326171875,0.0,0.0,0.0,1,1789162863.0662239,38.991403635,-76.93668435,-9.602000000000004,0,1,16.941456,6.932689,72.914521,1,1,1789162863.4416323,-0.8943155512786272,0.4460096620271818,0.012954187697478203,-0.03327559376934944,175.92428583904265,-0.37312476486900387,-52.999076013377085,-0.00026616271092913524,0.0020928243060664006,0.0015460126514165772,0.06482195756912232,0.6991160900306702,-9.680732773666382
2026-09-11T17:41:03.480,0.40097372799999675,-472.2610168457031,-42503.49151611328,-170013.96606445312,-323.4987965393067,0.0,0.0,0.0,0.0,0.0,0.0,-0.043914794921875,-359.75,-15.809326171875,0.0,0.0,0.0,1,1789162863.0662239,38.991403635,-76.93668435,-9.602000000000004,0,1,16.941456,6.932689,72.914521,1,1,1789162863.4696321,-0.8943292857639463,0.4459735506724256,0.01304874970009628,-0.03335342346511451,175.9114481764839,-0.36725307070816404,-52.994835427357486,-0.00011292280260403312,-0.004029441644079309,-0.0028056167725808846,0.07668800426483155,0.7066672106552124,-9.684361234226227
2026-09-11T17:41:03.514,0.4344033919999788,-472.2610168457031,-42503.49151611328,-170013.96606445312,-323.4987965393067,0.0,0.0,0.0,0.0,0.0,0.0,-0.043914794921875,-359.75,-15.809326171875,0.0,0.0,0.0,1,1789162863.0662239,38.991403635,-76.93668435,-9.602000000000004,0,1,16.941456,6.932689,72.914521,1,1,1789162863.509632,-0.8943410176011296,0.4459461503279083,0.013022442157914009,-0.033415434220407464,175.90641799281784,-0.37299587667676365,-52.991202050495524,0.0009047786842338604,0.0009004153611038746,0.0009363691436949579,0.06854848463058472,0.7021561515808106,-9.689656825313568
2026-09-11T17:41:03.547,0.46782022399997913,-472.2610168457031,-42503.49151611328,-170013.96606445312,-323.4987965393067,0.0,0.0,0.0,0.0,0.0,0.0,-0.043792724609375,-358.75,-15.765380859375,0.0,0.0,0.0,1,1789162863.0662239,38.991403635,-76.93668435,-9.602000000000004,0,1,16.941456,6.932689,72.914521,1,1,1789162863.5416322,-0.8943415557256932,0.4459457310797212,0.013008681929432091,-0.03341198629801577,175.90747523040642,-0.3742275032377657,-52.99109093471463,0.0009819222371720098,0.0018387043669760262,0.00016109388995907663,0.07384407571792603,0.6977431590080262,-9.680732773666382
2026-09-11T17:41:03.580,0.5012433279999868,-472.2610168457031,-42503.49151611328,-170013.96606445312,-323.4987965393067,0.0,0.0,0.0,0.0,0.0,0.0,-0.043792724609375,-358.75,-15.765380859375,0.0,0.0,0.0,1,1789162863.0662239,38.991403635,-76.93668435,-9.602000000000004,0,1,16.941456,6.932689,72.914521,1,1,1789162863.5696323,-0.8943364309160926,0.445962917649017,0.012928772784508566,-0.03335073091444786,175.91785475412445,-0.37936004803585965,-52.992967789138305,-0.00015603243512829306,-0.006441137604485073,-0.004348662364269071,0.07305954370498657,0.6985276910209656,-9.682203771190643
2026-09-11T17:41:03.614,0.5346546879999892,-472.2610168457031,-42503.49151611328,-170013.96606445312,-323.4987965393067,0.0,0.0,0.0,0.0,0.0,0.0,-0.043792724609375,-358.75,-15.765380859375,0.0,0.0,0.0,1,1789162863.0662239,38.991403635,-76.93668435,-9.602000000000004,0,1,16.941456,6.932689,72.914521,1,1,1789162863.6096323,-0.894317913256623,0.4460108478710774,0.01282436109906858,-0.033246494131601106,175.9339115038802,-0.3849435798611526,-52.99868865336257,0.0004361577800733829,0.00036617007706841033,0.0015866788229880451,0.07149047967910767,0.6970566934967042,-9.69269688686371
2026-09-11T17:41:03.646,0.5680687679999892,-472.2610168457031,-42503.49151611328,-170013.96606445312,-323.4987965393067,0.0,0.0,0.0,0.0,0.0,0.0,-0.043792724609375,-358.75,-15.765380859375,0.0,0.0,0.0,1,1789162863.0662239,38.991403635,-76.93668435,-9.602000000000004,0,1,16.941456,6.932689,72.914521,1,1,1789162863.6416323,-0.8943281614068861,0.44598807191211154,0.01286589341163156,-0.03326030988154841,175.9303601961336,-0.3812914074944244,-52.99594494944622,0.00012356931104119854,-0.0016659167710285875,-0.002314306588144481,0.07080401416778564,0.6992141565322876,-9.682203771190643
2026-09-11T17:41:03.680,0.6014818560000208,-472.2610168457031,-42503.49151611328,-170013.96606445312,-323.4987965393067,0.0,0.0,0.0,0.0,0.0,0.0,-0.043792724609375,-358.75,-15.765380859375,0.0,0.0,0.0,1,1789162863.0662239,38.991403635,-76.93668435,-9.602000000000004,0,1,16.941456,6.932689,72.914521,1,1,1789162863.6696322,-0.8943274496850542,0.44598953730434654,0.01288969964876638,-0.033250578909946905,175.93014216884737,-0.37836094054380476,-52.996235135207826,-0.0004707152992628707,-0.002372775118086291,0.0005007349623971731,0.06482195756912232,0.6969586269950866,-9.688185827789306
2026-09-11T17:41:03.713,0.6348919359999741,-472.2610168457031,-42503.49151611328,-170013.96606445312,-323.4987965393067,0.0,0.0,0.0,0.0,0.0,0.0,-0.043792724609375,-358.75,-15.765380859375,0.0,0.0,0.0,1,1789162863.0662239,38.991403635,-76.93668435,-9.602000000000004,0,1,16.941456,6.932689,72.914521,1,1,1789162863.7096322,-0.8943132490083218,0.4460218044702515,0.012813202843563897,-0.0332292705031278,175.9362543626669,-0.38525538439371954,-53.000048432832315,-0.0003668682087692081,0.0012688543661998775,-0.003520678167122962,0.07600153875350953,0.6978412255096436,-9.69269688686371
2026-09-11T17:41:03.747,0.6683067199999755,-472.2610168457031,-42503.49151611328,-170013.96606445312,-323.4987965393067,0.0,0.0,0.0,0.0,0.0,0.0,-0.043792724609375,-358.75,-15.765380859375,0.0,0.0,0.0,1,1789162863.0662239,38.991403635,-76.93668435,-9.602000000000004,0,1,16.941456,6.932689,72.914521,1,1,1789162863.7416322,-0.894299319146161,0.4460568003723065,0.012740352063856533,-0.033162358866975813,175.94686161992405,-0.38945473236735084,-53.00423935472148,-0.0016554447955166216,-0.0014679964338524306,-0.0010602875205865552,0.06776395261764527,0.6977431590080262,-9.691912354850768
2026-09-11T17:41:03.780,0.7017190079999978,-472.2610168457031,-42503.49151611328,-170013.96606445312,-323.4987965393067,0.0,0.0,0.0,0.0,0.0,0.0,-0.043792724609375,-358.75,-15.765380859375,0.0,0.0,0.0,1,1789162863.0662239,38.991403635,-76.93668435,-9.602000000000004,0,1,16.941456,6.932689,72.914521,1,1,1789162863.769632,-0.8943000159647742,0.44605047886549826,0.012805023881857005,-0.03320366113321777,175.93931305024637,-0.384913178856973,-53.003690366924054,0.0010199704148654862,-0.0005759586531581288,0.002097885760897184,0.06786201911926269,0.6954876294708252,-9.673279719543457
2026-09-11T17:41:03.813,0.7351287039999761,-472.2610168457031,-42503.49151611328,-170013.96606445312,-323.4987965393067,0.0,0.0,0.0,0.0,0.0,0.0,-0.043792724609375,-358.75,-15.765380859375,0.0,0.0,0.0,1,1789162863.0662239,38.991403635,-76.93668435,-9.602000000000004,0,1,16.941456,6.932689,72.914521,1,1,1789162863.8096323,-0.8942890398455691,0.4460747230991326,0.012764726816597063,-0.033189100220103546,175.94287860709986,-0.388406870321452,-53.00662802978227,-0.0011904890827853323,-0.0007733553915586875,-0.0031529372937277563,0.06776395261764527,0.70294068359375,-9.69112782283783
2026-09-11T17:41:03.847,0.7685417280000024,-472.2610168457031,-42503.49151611328,-170013.96606445312,-323.4987965393067,0.0,0.0,0.0,0.0,0.0,0.0,-0.043792724609375,-358.75,-15.765380859375,0.0,0.0,0.0,1,1789162863.0662239,38.991403635,-76.93668435,-9.602000000000004,0,1,16.941456,6.932689,72.914521,1,1,1789162863.8416321,-0.8942943988393787,0.4460553687184243,0.012859573867348874,-0.03326811689794095,175.92991084293965,-0.3826443734419737,-53.004528585496374,-0.0009777334469672234,-0.0007031931556285154,-0.00013212142437597074,0.07227501169204711,0.70294068359375,-9.679163709640504
2026-09-11T17:41:03.880,0.8019536639999956,-472.2610168457031,-42503.49151611328,-170013.96606445312,-323.4987965393067,0.0,0.0,0.0,0.0,0.0,0.0,-0.043792724609375,-358.75,-15.765380859375,0.0,0.0,0.0,1,1789162863.0662239,38.991403635,-76.93668435,-9.602000000000004,0,1,16.941456,6.932689,72.914521,1,1,1789162863.8696322,-0.8943090052403554,0.44602007389765924,0.012918871213589526,-0.03332565967687781,175.9209582050915,-0.37935243575844596,-53.00024675719256,0.002340311993999196,0.00034348079679248405,-0.0019633208755684213,0.06697942060470581,0.703627149105072,-9.684361234226227
2026-09-11T17:41:03.917,0.8353639040000189,-472.2610168457031,-42503.49151611328,-170013.96606445312,-323.4987965393067,0.0,0.0,0.0,0.0,0.0,0.0,-0.043792724609375,-358.75,-15.765380859375,0.0,0.0,0.0,1,1789162863.0662239,38.991403635,-76.93668435,-9.602000000000004,0,1,16.941456,6.932689,72.914521,1,1,1789162863.9096322,-0.8942978298870681,0.44604562872491227,0.012859082460612719,-0.033306644276322,175.92597803015752,-0.3846218417552936,-53.00327008967165,-0.000382576172037157,-0.0004967207051175861,-0.000984016632274403,0.06845041812896728,0.7044116811180116,-9.685930298252105
2026-09-11T17:41:03.947,0.8687788479999767,-472.2610168457031,-42503.49151611328,-170013.96606445312,-323.4987965393067,0.0,0.0,0.0,0.0,0.0,0.0,-0.043792724609375,-358.75,-15.765380859375,0.0,0.0,0.0,1,1789162863.0662239,38.991403635,-76.93668435,-9.602000000000004,0,1,16.941456,6.932689,72.914521,1,1,1789162863.9416323,-0.894307369177508,0.44602624800547663,0.012896143610501164,-0.033295720519896606,175.92519553354913,-0.3801773647502424,-53.00094871488742,-0.00048764499300721565,-0.0025736625149908386,-0.002719397507532365,0.06482195756912232,0.6962721614837646,-9.688185827789306
2026-09-11T17:41:03.980,0.9021914879999713,-472.2610168457031,-42503.49151611328,-170013.96606445312,-323.4987965393067,0.0,0.0,0.0,0.0,0.0,0.0,-0.043792724609375,-358.75,-15.765380859375,0.0,0.0,0.0,1,1789162863.0662239,38.991403635,-76.93668435,-9.602000000000004,0,1,16.941456,6.932689,72.914521,1,1,1789162863.9696321,-0.8943209010666189,0.4459941773179135,0.01291876484448435,-0.03335303927382713,175.9181428356504,-0.3806461533726451,-52.996925260737775,0.0012953833708301912,0.00021851522234969006,0.0017798867711838174,0.07453054122924804,0.6933301664352417,-9.686714830265046
2026-09-11T17:41:04.014,0.9356040000000121,-472.2610168457031,-42503.49151611328,-170013.96606445312,-323.4987965393067,0.0,0.0,0.0,0.0,0.0,0.0,-0.043792724609375,-358.75,-15.765380859375,0.0,0.0,0.0,1,1789162863.0662239,38.991403635,-76.93668435,-9.602000000000004,0,1,16.941456,6.932689,72.914521,1,1,1789162864.009632,-0.8943381887324672,0.44596100100019104,0.012901060059278203,-0.03333995217430327,175.92037710701092,-0.38163943930871985,-52.99260834341969,-0.0017514379043763095,-0.0028813640621174383,-0.0029834658233591073,0.07227501169204711,0.6926437009239197,-9.693481418876647
2026-09-11T17:41:04.049,0.9690207040000018,-472.2610168457031,-42503.49151611328,-170013.96606445312,-323.4987965393067,0.0,0.0,0.0,0.0,0.0,0.0,-0.043792724609375,-358.75,-15.765380859375,0.0,0.0,0.0,1,1789162863.0662239,38.991403635,-76.93668435,-9.602000000000004,0,1,16.941456,6.932689,72.914521,1,1,1789162864.0416322,-0.8943581713435339,0.4459180046675894,0.01293956665829665,-0.033364083668240035,175.9159135153687,-0.37873226579038977,-52.98726256625107,0.000831649388575298,-0.0033496359004275174,-0.0010911798483468549,0.07521700674057007,0.7014696860694885,-9.689656825313568
2026-09-11T17:41:04.080,1.0024250559999928,-472.2610168457031,-42503.49151611328,-170013.96606445312,-323.4987965393067,0.0,0.0,0.0,0.0,0.0,0.0,-0.043792724609375,-358.75,-15.765380859375,0.0,0.0,0.0,1,1789162864.071988,38.99140346,-76.93668437333334,-9.587000000000003,0,1,16.941456,6.932689,72.914521,1,1,1789162864.0696323,-0.8943446511011595,0.4459451512596264,0.012912384245140364,-0.033374203329521825,175.91627621954208,-0.3821590789434018,-52.99061905069293,0.0015812683023068625,0.001529432023522631,0.0020598375832037077,0.06923495014190674,0.7021561515808106,-9.680634707164764
2026-09-11T17:41:04.114,1.0358394560000193,-472.2610168457031,-42503.49151611328,-170013.96606445312,-323.4987965393067,0.0,0.0,0.0,0.0,0.0,0.0,-0.043792724609375,-358.75,-15.765380859375,0.0,0.0,0.0,1,1789162864.071988,38.99140346,-76.93668437333334,-9.587000000000003,0,1,16.941456,6.932689,72.914521,1,1,1789162864.1096323,-0.8943657525827877,0.4458979546489829,0.012928617364024342,-0.03343300016349021,175.90939180707224,-0.38328799401496855,-52.984632915558,-0.001090830782496456,-0.003096039560112741,-0.0025939083343139726,0.07001948215484619,0.6999006220436097,-9.681419239177705
2026-09-11T17:41:04.147,1.0692515839999714,-472.2610168457031,-42503.49151611328,-170013.96606445312,-323.4987965393067,0.0,0.0,0.0,0.0,0.0,0.0,-0.043792724609375,-358.75,-15.765380859375,0.0,0.0,0.0,1,1789162864.071988,38.99140346,-76.93668437333334,-9.587000000000003,0,1,16.941456,6.932689,72.914521,1,1,1789162864.1416323,-0.894346552969933,0.44594165660155105,0.012835728623912954,-0.03339949354340702,175.91759844779432,-0.3912914849627042,-52.98984205639553,0.0012098622374824694,-0.0006073745796940267,0.00019285888234537343,0.07747253627777101,0.70294068359375,-9.680634707164764
2026-09-11T17:41:04.180,1.1026654400000098,-472.2610168457031,-42503.49151611328,-170013.96606445312,-323.4987965393067,0.0,0.0,0.0,0.0,0.0,0.0,-0.043792724609375,-358.75,-15.765380859375,0.0,0.0,0.0,1,1789162864.071988,38.99140346,-76.93668437333334,-9.587000000000003,0,1,16.941456,6.932689,72.914521,1,1,1789162864.1696322,-0.8943489102099301,0.44593410341810463,0.012815103027938129,-0.03344510949876869,175.91396810253485,-0.3957040126421987,-52.98877654628238,0.0016458454846306526,0.006246184327037306,0.00048258353817643215,0.07001948215484619,0.703627149105072,-9.682890236701965
2026-09-11T17:41:04.216,1.1360792639999886,-472.2610168457031,-42503.49151611328,-170013.96606445312,-323.4987965393067,0.0,0.0,0.0,0.0,0.0,0.0,-0.043792724609375,-358.75,-15.765380859375,0.0,0.0,0.0,1,1789162864.071988,38.99140346,-76.93668437333334,-9.587000000000003,0,1,16.941456,6.932689,72.914521,1,1,1789162864.2096322,-0.8943268926012176,0.4459905770731108,0.012613110088631776,-0.03335751468764067,175.9333108339227,-0.41217720883648645,-52.99518020247814,8.883725892651137e-05,-0.0002583087292951608,3.1415926535897933e-06,0.07609960525512696,0.6962721614837646,-9.679948241653442
2026-09-11T17:41:04.248,1.1694944320000218,-472.2610168457031,-42503.49151611328,-170013.96606445312,-323.4987965393067,0.0,0.0,0.0,0.0,0.0,0.0,-0.043792724609375,-358.75,-15.765380859375,0.0,0.0,0.0,1,1789162864.071988,38.99140346,-76.93668437333334,-9.587000000000003,0,1,16.941456,6.932689,72.914521,1,1,1789162864.2416322,-0.8943400685301514,0.44596132320265425,0.012633709922080932,-0.03338756358925798,175.92916029578683,-0.411470775523028,-52.99151429797882,0.0009093165402890457,0.0015872024217636431,-0.00043301618741979316,0.07982613231658935,0.6934282329368591,-9.692010421352387
2026-09-11T17:41:04.281,1.202903871999979,-472.2610168457031,-42503.49151611328,-170013.96606445312,-323.4987965393067,0.0,0.0,0.0,0.0,0.0,0.0,-0.043792724609375,-358.75,-15.765380859375,0.0,0.0,0.0,1,1789162864.071988,38.99140346,-76.93668437333334,-9.587000000000003,0,1,16.941456,6.932689,72.914521,1,1,1789162864.269632,-0.8943398243125258,0.4459697037515044,0.01252277321948598,-0.03332389736104482,175.94137004761865,-0.4196189989888758,-52.99214193527435,0.0016706291600089723,0.004107806927493855,-0.0015821409669328596,0.07678607076644897,0.6934282329368591,-9.692010421352387
2026-09-11T17:41:04.315,1.236317951999979,-472.2610168457031,-42503.49151611328,-170013.96606445312,-323.4987965393067,0.0,0.0,0.0,0.0,0.0,0.0,-0.043792724609375,-358.75,-15.765380859375,0.0,0.0,0.0,1,1789162864.071988,38.99140346,-76.93668437333334,-9.587000000000003,0,1,16.941456,6.932689,72.914521,1,1,1789162864.3096323,-0.8943512290391465,0.4459449486982866,0.012528190374922407,-0.03334705822977524,175.93870452278242,-0.4201364945151623,-52.98899002893839,0.001237612972589179,-0.002476796741505153,-0.0021306979508346775,0.0790416003036499,0.6993122230339051,-9.686714830265046
2026-09-11T17:41:04.348,1.269731935999971,-472.2610168457031,-42503.49151611328,-170013.96606445312,-323.4987965393067,0.0,0.0,0.0,0.0,0.0,0.0,-0.043792724609375,-358.75,-15.765380859375,0.0,0.0,0.0,1,1789162864.071988,38.99140346,-76.93668437333334,-9.587000000000003,0,1,16.941456,6.932689,72.914521,1,1,1789162864.3416321,-0.8943503001540126,0.44594194623012073,0.012556399045341195,-0.0334014677811283,175.93167692015578,-0.4200157784754576,-52.98870794608116,0.002401049451968599,-0.0007646287452987158,0.0006478662183402952,0.08198359535217284,0.7058826786422729,-9.680634707164764
2026-09-11T17:41:04.381,1.3031429119999984,-472.2610168457031,-42503.49151611328,-170013.96606445312,-323.4987965393067,0.0,0.0,0.0,0.0,0.0,0.0,-0.043792724609375,-358.75,-15.765380859375,0.0,0.0,0.0,1,1789162864.071988,38.99140346,-76.93668437333334,-9.587000000000003,0,1,16.941456,6.932689,72.914521,1,1,1789162864.3696322,-0.8943459399833015,0.44594418902112487,0.012594946140305558,-0.03347367989030876,175.92229613202105,-0.41977029305962893,-52.989135498843375,0.001233947781159991,0.0009049532171590598,0.00047612581994405307,0.08041453132629395,0.7096092057037353,-9.69034329082489
2026-09-11T17:41:04.415,1.3365530560000138,-472.2610168457031,-42503.49151611328,-170013.96606445312,-323.4987965393067,0.0,0.0,0.0,0.0,0.0,0.0,-0.043792724609375,-358.75,-15.765380859375,0.0,0.0,0.0,1,1789162864.071988,38.99140346,-76.93668437333334,-9.587000000000003,0,1,16.941456,6.932689,72.914521,1,1,1789162864.4096322,-0.8943355298288849,0.4459644812283796,0.012613186370945056,-0.03347460377602221,175.92127824338317,-0.4180410033845007,-52.99180829982023,0.002178519972339322,-0.0017790141065578203,-0.0013353514107008614,0.07600153875350953,0.70294068359375,-9.685145766239167
2026-09-11T17:41:04.448,1.369971391999968,-472.2610168457031,-42503.49151611328,-170013.96606445312,-323.4987965393067,0.0,0.0,0.0,0.0,0.0,0.0,-0.043792724609375,-358.75,-15.765380859375,0.0,0.0,0.0,1,1789162864.071988,38.99140346,-76.93668437333334,-9.587000000000003,0,1,16.941456,6.932689,72.914521,1,1,1789162864.4416323,-0.8943491323918107,0.4459363463975853,0.01268495772221305,-0.03345887325021489,175.91921028116084,-0.40975388852159755,-52.98851291326047,0.002759889146178633,0.0013627530799571724,-0.00037437312455278367,0.07080401416778564,0.6970566934967042,-9.683674768714905
2026-09-11T17:41:04.482,1.403383808000001,-472.2610168457031,-42503.49151611328,-170013.96606445312,-323.4987965393067,0.0,0.0,0.0,0.0,0.0,0.0,-0.043792724609375,-358.75,-15.765380859375,0.0,0.0,0.0,1,1789162864.071988,38.99140346,-76.93668437333334,-9.587000000000003,0,1,16.941456,6.932689,72.914521,1,1,1789162864.4816322,-0.8943607940829668,0.44592074792460823,0.012695454139956708,-0.0333508923692221,175.9297487152262,-0.4030835368386062,-52.986590343488864,-2.181661564992912e-05,-0.0028761280743614557,-0.0010829768008624814,0.0715885461807251,0.6897017058753968,-9.688283894290924
2026-09-11T17:41:04.515,1.4367969279999784,-472.2610168457031,-42503.49151611328,-170013.96606445312,-323.4987965393067,0.0,0.0,0.0,0.0,0.0,0.0,-0.043792724609375,-358.75,-15.765380859375,0.0,0.0,0.0,1,1789162864.071988,38.99140346,-76.93668437333334,-9.587000000000003,0,1,16.941456,6.932689,72.914521,1,1,1789162864.509632,-0.894346958507353,0.4459607083716734,0.012588127361360814,-0.0332280521068628,175.94786092892798,-0.4079783018752094,-52.991289445925716,0.0020439550870105594,0.0017390460666871501,0.0011424925283554882,0.07237307819366455,0.6882307083511353,-9.692010421352387
2026-09-11T17:41:04.549,1.4702190400000177,-472.2610168457031,-42503.49151611328,-170013.96606445312,-323.4987965393067,0.0,0.0,0.0,0.0,0.0,0.0,-0.043792724609375,-358.75,-15.765380859375,0.0,0.0,0.0,1,1789162864.071988,38.99140346,-76.93668437333334,-9.587000000000003,0,1,16.941456,6.932689,72.914521,1,1,1789162864.5416322,-0.8943495023809924,0.4459561988859251,0.012558166718947359,-0.033231441659180176,175.94904279878958,-0.4112012733692273,-52.99058677218061,0.002014284489726656,0.004538030588110456,-0.00019809487010135642,0.06854848463058472,0.6999986885452271,-9.685930298252105
2026-09-11T17:41:04.583,1.50364422399997,-472.2610168457031,-42503.49151611328,-170013.96606445312,-323.4987965393067,0.0,0.0,0.0,0.0,0.0,0.0,-0.043792724609375,-358.75,-15.765380859375,0.0,0.0,0.0,1,1789162864.071988,38.99140346,-76.93668437333334,-9.587000000000003,0,1,16.941456,6.932689,72.914521,1,1,1789162864.5816321,-0.8943534858724118,0.4459427928904111,0.012560026967246563,-0.03330335567998411,175.94156105892876,-0.41462882957828523,-52.98885896931616,-0.00032131511529215605,-0.0005443681936970313,-0.0019697785938008004,0.0827681273651123,0.7044116811180116,-9.682105704689025
2026-09-11T17:41:04.615,1.5370628160000024,-472.2610168457031,-42503.49151611328,-170013.96606445312,-323.4987965393067,0.0,0.0,0.0,0.0,0.0,0.0,-0.043792724609375,-358.75,-15.765380859375,0.0,0.0,0.0,1,1789162864.071988,38.99140346,-76.93668437333334,-9.587000000000003,0,1,16.941456,6.932689,72.914521,1,1,1789162864.6096323,-0.8943651644516064,0.445909339189416,0.012608935106044454,-0.03341898554116792,175.92717807826398,-0.41538032877444464,-52.98474971087393,0.0019299850868553295,0.0033513812296795116,-0.00021415189921970422,0.0737460092163086,0.709511139202118,-9.679065643138886
2026-09-11T17:41:04.648,1.5704776960000117,-472.2610168457031,-42503.49151611328,-170013.96606445312,-323.4987965393067,0.0,0.0,0.0,0.0,0.0,0.0,-0.043792724609375,-358.75,-15.765380859375,0.0,0.0,0.0,1,1789162864.071988,38.99140346,-76.93668437333334,-9.587000000000003,0,1,16.941456,6.932689,72.914521,1,1,1789162864.6416323,-0.8943740266735305,0.4458854772894676,0.01259907763925885,-0.03350380272086414,175.9189658462433,-0.42062026205236946,-52.981631135013735,0.0013276719619920866,0.0028251644602032217,0.00010821041362364843,0.08355265937805176,0.7007832205581664,-9.684459300727845
2026-09-11T17:41:04.684,1.6039006400000062,-472.2610168457031,-42503.49151611328,-170013.96606445312,-323.4987965393067,0.0,0.0,0.0,0.0,0.0,0.0,-0.043792724609375,-358.75,-15.765380859375,0.0,0.0,0.0,1,1789162864.071988,38.99140346,-76.93668437333334,-9.587000000000003,0,1,16.941456,6.932689,72.914521,1,1,1789162864.6816323,-0.8943790310963534,0.4458805867627027,0.012538621297449119,-0.033457944635846316,175.92676050703395,-0.42444735202143635,-52.98076579891722,0.0014414674292221167,-0.0021507692372326123,-0.0020610593136801037,0.08208166185379029,0.6970566934967042,-9.680732773666382
2026-09-11T17:41:04.718,1.6373129279999716,-472.2610168457031,-42503.49151611328,-170013.96606445312,-323.4987965393067,0.0,0.0,0.0,0.0,0.0,0.0,-0.043792724609375,-358.75,-15.765380859375,0.0,0.0,0.0,1,1789162864.071988,38.99140346,-76.93668437333334,-9.587000000000003,0,1,16.941456,6.932689,72.914521,1,1,1789162864.7096322,-0.8944090898273876,0.4458083931781269,0.012685798940977742,-0.033560797238886234,175.90864759973482,-0.4142969250724229,-52.97211489978117,0.0017746507834278343,0.0014812609361675875,0.0010081021759519248,0.07972806581497192,0.70294068359375,-9.686616763763427
2026-09-11T17:41:04.749,1.6707229439999765,-472.2610168457031,-42503.49151611328,-170013.96606445312,-323.4987965393067,0.0,0.0,0.0,0.0,0.0,0.0,-0.043792724609375,-358.75,-15.765380859375,0.0,0.0,0.0,1,1789162864.071988,38.99140346,-76.93668437333334,-9.587000000000003,0,1,16.941456,6.932689,72.914521,1,1,1789162864.7416322,-0.8943982225585871,0.44583689469909576,0.012654143930136657,-0.033483659455064325,175.91819589637106,-0.41372575250561616,-52.975650623823185,0.0011592476891746338,0.00038065630985996326,0.0003378957431861022,0.07453054122924804,0.6985276910209656,-9.682203771190643
2026-09-11T17:41:04.782,1.7041487999999845,-472.2610168457031,-42503.49151611328,-170013.96606445312,-323.4987965393067,0.0,0.0,0.0,0.0,0.0,0.0,-0.043792724609375,-358.75,-15.765380859375,0.0,0.0,0.0,1,1789162864.071988,38.99140346,-76.93668437333334,-9.587000000000003,0,1,16.941456,6.932689,72.914521,1,1,1789162864.7816322,-0.8943805474648465,0.4458837509290392,0.012586898965256676,-0.03335696251714748,175.93465829181432,-0.414349497960572,-52.98140061132405,0.0023806290997202655,-0.001869596694736326,-0.0002207841503772827,0.06933301664352418,0.6962721614837646,-9.691225889339448
2026-09-11T17:41:04.816,1.7375596159999986,-472.2610168457031,-42503.49151611328,-170013.96606445312,-323.4987965393067,0.0,0.0,0.0,0.0,0.0,0.0,-0.043792724609375,-358.75,-15.765380859375,0.0,0.0,0.0,1,1789162864.071988,38.99140346,-76.93668437333334,-9.587000000000003,0,1,16.941456,6.932689,72.914521,1,1,1789162864.809406,-0.894393290836741,0.4458577888622336,0.012616263209222075,-0.03335121166825121,175.9337355680726,-0.41092843193602496,-52.97820257474294,0.0020415116260577675,0.0023881340155038414,-0.0016720254234105676,0.07609960525512696,0.6963702279853821,-9.684459300727845
2026-09-11T17:41:04.849,1.770969120000018,-472.2610168457031,-42503.49151611328,-170013.96606445312,-323.4987965393067,0.0,0.0,0.0,0.0,0.0,0.0,-0.043792724609375,-358.75,-15.765380859375,0.0,0.0,0.0,1,1789162864.071988,38.99140346,-76.93668437333334,-9.587000000000003,0,1,16.941456,6.932689,72.914521,1,1,1789162864.841406,-0.8944266688399382,0.4457840909588357,0.01267501414118342,-0.03341889184902691,175.92375259924407,-0.40803415653747555,-52.968999289143625,0.0008534660042252271,0.0023876104167282427,-0.0008159414253073491,0.0737460092163086,0.6992141565322876,-9.681419239177705
2026-09-11T17:41:04.883,1.8043924159999847,-472.2610168457031,-42503.49151611328,-170013.96606445312,-323.4987965393067,0.0,0.0,0.0,0.0,0.0,0.0,-0.043792724609375,-358.75,-15.765380859375,0.0,0.0,0.0,1,1789162864.071988,38.99140346,-76.93668437333334,-9.587000000000003,0,1,16.941456,6.932689,72.914521,1,1,1789162864.881406,-0.894423199514807,0.4457896710194463,0.01267768896097497,-0.03343629143129222,175.92183256627126,-0.40867526519397274,-52.96971972137264,0.001618094749523943,-2.932153143350474e-05,0.0007251843042036439,0.08267006086349488,0.7045097476196289,-9.69416788438797
2026-09-11T17:41:04.916,1.837804991999974,-472.2610168457031,-42503.49151611328,-170013.96606445312,-323.4987965393067,0.0,0.0,0.0,0.0,0.0,0.0,-0.043792724609375,-358.75,-15.765380859375,0.0,0.0,0.0,1,1789162864.071988,38.99140346,-76.93668437333334,-9.587000000000003,0,1,16.941456,6.932689,72.914521,1,1,1789162864.9094062,-0.8944269461299883,0.445776254177246,0.012698725645591439,-0.033506889071721044,175.91350523454048,-0.41006860419893876,-52.968071737095414,-9.599310885968812e-05,0.000952600705738505,-0.0010306169233026516,0.07521700674057007,0.7073536761665344,-9.681419239177705
2026-09-11T17:41:04.949,1.8712137279999865,-472.2610168457031,-42503.49151611328,-170013.96606445312,-323.4987965393067,0.0,0.0,0.0,0.0,0.0,0.0,-0.043792724609375,-358.75,-15.765380859375,0.0,0.0,0.0,1,1789162864.071988,38.99140346,-76.93668437333334,-9.587000000000003,0,1,16.941456,6.932689,72.914521,1,1,1789162864.941406,-0.89443610710419,0.4457537968405744,0.012705680291968844,-0.033558435583801,175.90784877029355,-0.4118892540467006,-52.96521315835846,1.3439035240356336e-05,-0.0003546509040052478,-0.0017708110590734466,0.08051259782791138,0.701567752571106,-9.69112782283783
2026-09-11T17:41:04.982,1.9046373439999797,-472.2610168457031,-42503.49151611328,-170013.96606445312,-323.4987965393067,0.0,0.0,0.0,0.0,0.0,0.0,-0.043792724609375,-358.75,-15.765380859375,0.0,0.0,0.0,1,1789162864.071988,38.99140346,-76.93668437333334,-9.587000000000003,0,1,16.941456,6.932689,72.914521,1,1,1789162864.9814062,-0.8944149867870691,0.4458112091171501,0.01255693592770405,-0.03341437708979419,175.9302633020823,-0.42002676537728434,-52.97197690764404,0.0020593139844281095,-0.0013449507215868304,0.000180990643431812,0.07305954370498657,0.6955856959724427,-9.688185827789306
2026-09-11T17:41:05.016,1.9380494399999861,-472.2610168457031,-42503.49151611328,-170013.96606445312,-323.4987965393067,0.0,0.0,0.0,0.0,0.0,0.0,-0.043792724609375,-358.75,-15.765380859375,0.0,0.0,0.0,1,1789162864.071988,38.99140346,-76.93668437333334,-9.587000000000003,0,1,16.941456,6.932689,72.914521,1,1,1789162865.009406,-0.8944223509674947,0.4458020571152965,0.012590714591580272,-0.03332653398754843,175.9375486564868,-0.412031351683739,-52.970971325771124,-0.000337023078560105,-0.0016723744892609667,-0.0016568410589182171,0.07384407571792603,0.6919572354125977,-9.692794953365325
2026-09-11T17:41:05.049,1.9714589120000028,-472.2610168457031,-42503.49151611328,-170013.96606445312,-323.4987965393067,0.0,0.0,0.0,0.0,0.0,0.0,-0.043792724609375,-358.75,-15.765380859375,0.0,0.0,0.0,1,1789162864.071988,38.99140346,-76.93668437333334,-9.587000000000003,0,1,16.941456,6.932689,72.914521,1,1,1789162865.0414062,-0.8944405437441929,0.44576485400509464,0.012681617299017898,-0.033301429745434395,175.93546265139798,-0.4012633050936851,-52.966597444364915,-0.0010784389448072961,-0.002376614842440679,-0.002255838058202671,0.0753150732421875,0.6933301664352417,-9.685243832740785
2026-09-11T17:41:05.083,2.0048782399999823,-472.2610168457031,-42503.49151611328,-170013.96606445312,-323.4987965393067,0.0,0.0,0.0,0.0,0.0,0.0,-0.043792724609375,-358.75,-15.765380859375,0.0,0.0,0.0,1,1789162865.0681586,38.99140335166667,-76.93668444333333,-9.568000000000001,0,1,16.941456,6.932689,72.914521,1,1,1789162865.081406,-0.8944252005431789,0.4458011712619763,0.012551104858655493,-0.033276810267385167,175.94467616989488,-0.41354350103471066,-52.97070678419214,0.0027831020252301578,0.002738072530528704,0.00016964600329384883,0.07747253627777101,0.7014696860694885,-9.690441357326508
2026-09-11T17:41:05.116,2.038290207999978,-472.2610168457031,-42503.49151611328,-170013.96606445312,-323.4987965393067,0.0,0.0,0.0,0.0,0.0,0.0,-0.043792724609375,-358.75,-15.765380859375,0.0,0.0,0.0,1,1789162865.0681586,38.99140335166667,-76.93668444333333,-9.568000000000001,0,1,16.941456,6.932689,72.914521,1,1,1789162865.1094062,-0.8944153908446028,0.4458179354952139,0.012592606759105557,-0.0333001991899811,175.94016215673656,-0.41056269644232074,-52.97301829396408,-0.0017032668170212661,-0.0002808234766458876,-0.0009782570457428218,0.07001948215484619,0.7073536761665344,-9.684361234226227
2026-09-11T17:41:05.149,2.071704223999973,-472.2610168457031,-42503.49151611328,-170013.96606445312,-323.4987965393067,0.0,0.0,0.0,0.0,0.0,0.0,-0.043792724609375,-358.75,-15.765380859375,0.0,0.0,0.0,1,1789162865.0681586,38.99140335166667,-76.93668444333333,-9.568000000000001,0,1,16.941456,6.932689,72.914521,1,1,1789162865.141406,-0.8944224050059378,0.44579521047664766,0.012654349290028111,-0.03339250190569276,175.92752242774807,-0.4088528471278023,-52.97034284724681,-0.0006579891280018622,-0.001291194580625405,-0.0006660176425610361,0.07825706829071044,0.703627149105072,-9.676908180103302
2026-09-11T17:41:05.183,2.1051267519999897,-472.2610168457031,-42503.49151611328,-170013.96606445312,-323.4987965393067,0.0,0.0,0.0,0.0,0.0,0.0,-0.043792724609375,-358.75,-15.765380859375,0.0,0.0,0.0,1,1789162865.0681586,38.99140335166667,-76.93668444333333,-9.568000000000001,0,1,16.941456,6.932689,72.914521,1,1,1789162865.181406,-0.8943961726618116,0.44585813098888205,0.012491741556063845,-0.03331620854629186,175.94369316639393,-0.4218997537738245,-52.97773748339047,0.0009911724822075797,0.002714510585626781,-0.0007461282552275759,0.07384407571792603,0.6933301664352417,-9.686028364753723
2026-09-11T17:41:05.216,2.138536352000017,-472.2610168457031,-42503.49151611328,-170013.96606445312,-323.4987965393067,0.0,0.0,0.0,0.0,0.0,0.0,-0.043792724609375,-358.75,-15.765380859375,0.0,0.0,0.0,1,1789162865.0681586,38.99140335166667,-76.93668444333333,-9.568000000000001,0,1,16.941456,6.932689,72.914521,1,1,1789162865.2094061,-0.8943969085567111,0.445861691861435,0.01244970506976475,-0.03326449365814588,175.95115123878665,-0.42357845786431786,-52.97803340877527,-0.00035028758087526197,-0.002316750049097273,-0.002453409329528429,0.0806106643295288,0.6919572354125977,-9.692794953365325
2026-09-11T17:41:05.250,2.1719490880000194,-472.2610168457031,-42503.49151611328,-170013.96606445312,-323.4987965393067,0.0,0.0,0.0,0.0,0.0,0.0,-0.043792724609375,-358.75,-15.765380859375,0.0,0.0,0.0,1,1789162865.0681586,38.99140335166667,-76.93668444333333,-9.568000000000001,0,1,16.941456,6.932689,72.914521,1,1,1789162865.2414062,-0.8944234925407865,0.44580149943461145,0.012572803119941153,-0.033310114300329936,175.9401491103293,-0.41302460676227604,-52.970829860177965,0.0003562217003320427,-0.0040639991632687965,-0.001362578547031973,0.07982613231658935,0.6978412255096436,-9.686714830265046
2026-09-11T17:41:05.283,2.2053694719999726,-472.2610168457031,-42503.49151611328,-170013.96606445312,-323.4987965393067,0.0,0.0,0.0,0.0,0.0,0.0,-0.043670654296875,-357.75,-15.721435546875,0.0,0.0,0.0,1,1789162865.0681586,38.99140335166667,-76.93668444333333,-9.568000000000001,0,1,16.941456,6.932689,72.914521,1,1,1789162865.2814062,-0.8944149124942266,0.44581684336912586,0.012583778848507433,-0.03333099137777377,175.93745244947812,-0.41303715267621666,-52.97283320159698,0.00038170350741115986,0.0015854570925116491,2.7576202181510406e-05,0.07080401416778564,0.704313614616394,-9.679163709640504
2026-09-11T17:41:05.316,2.238781567999979,-472.2610168457031,-42503.49151611328,-170013.96606445312,-323.4987965393067,0.0,0.0,0.0,0.0,0.0,0.0,-0.043670654296875,-357.75,-15.721435546875,0.0,0.0,0.0,1,1789162865.0681586,38.99140335166667,-76.93668444333333,-9.568000000000001,0,1,16.941456,6.932689,72.914521,1,1,1789162865.309406,-0.8943889971629533,0.44587437010161146,0.012503126063130933,-0.033287229968672775,175.94609304899546,-0.4193245458835721,-52.979871003851294,-0.0002912954521578536,-0.0029204594373621116,-0.002002241717887895,0.07080401416778564,0.6999986885452271,-9.682890236701965
2026-09-11T17:41:05.350,2.272192032000021,-472.2610168457031,-42503.49151611328,-170013.96606445312,-323.4987965393067,0.0,0.0,0.0,0.0,0.0,0.0,-0.043670654296875,-357.75,-15.721435546875,0.0,0.0,0.0,1,1789162865.0681586,38.99140335166667,-76.93668444333333,-9.568000000000001,0,1,16.941456,6.932689,72.914521,1,1,1789162865.341406,-0.8944125179870073,0.4458178258270439,0.012673977091943681,-0.03334792568754195,175.93110469081984,-0.40466465759731374,-52.97333101649357,-0.0006162757588791978,-0.002661103510515754,-0.001538333202707802,0.07305954370498657,0.7014696860694885,-9.684459300727845
2026-09-11T17:41:05.384,2.3056155200000035,-472.2610168457031,-42503.49151611328,-170013.96606445312,-323.4987965393067,0.0,0.0,0.0,0.0,0.0,0.0,-0.043670654296875,-357.75,-15.721435546875,0.0,0.0,0.0,1,1789162865.0681586,38.99140335166667,-76.93668444333333,-9.568000000000001,0,1,16.941456,6.932689,72.914521,1,1,1789162865.381406,-0.8944345355080043,0.44577352191626096,0.012703724315451834,-0.033338329854244016,175.93054932682824,-0.4009241814542904,-52.967789114189465,0.00030281462522101617,0.0006562437987498679,0.00034348079679248405,0.07688413726806641,0.6904862378883362,-9.688970359802246
2026-09-11T17:41:05.417,2.3390254079999977,-472.2610168457031,-42503.49151611328,-170013.96606445312,-323.4987965393067,0.0,0.0,0.0,0.0,0.0,0.0,-0.043670654296875,-357.75,-15.721435546875,0.0,0.0,0.0,1,1789162865.0681586,38.99140335166667,-76.93668444333333,-9.568000000000001,0,1,16.941456,6.932689,72.914521,1,1,1789162865.4094062,-0.8944312395113583,0.4457870932403634,0.012656672553327997,-0.033263101574571186,175.94068141089562,-0.40196046827134835,-52.969349219114676,-0.0003529055747532534,-0.0026583109837125633,-0.0018671532337835338,0.07011754865646362,0.6903881713867188,-9.683772835216521
2026-09-11T17:41:05.450,2.3724393919999898,-472.2610168457031,-42503.49151611328,-170013.96606445312,-323.4987965393067,0.0,0.0,0.0,0.0,0.0,0.0,-0.043670654296875,-357.75,-15.721435546875,0.0,0.0,0.0,1,1789162865.0681586,38.99140335166667,-76.93668444333333,-9.568000000000001,0,1,16.941456,6.932689,72.914521,1,1,1789162865.441406,-0.8944116389021358,0.4458338949452885,0.012547467135622051,-0.03320420730553573,175.95232883352253,-0.41035134619669505,-52.9748991194113,0.0014557791290884703,-0.0016538739991898267,-0.0004783947479716457,0.08129712984085083,0.7014696860694885,-9.679163709640504
2026-09-11T17:41:05.484,2.405859360000022,-472.2610168457031,-42503.49151611328,-170013.96606445312,-323.4987965393067,0.0,0.0,0.0,0.0,0.0,0.0,-0.043670654296875,-357.75,-15.721435546875,0.0,0.0,0.0,1,1789162865.0681586,38.99140335166667,-76.93668444333333,-9.568000000000001,0,1,16.941456,6.932689,72.914521,1,1,1789162865.4814062,-0.8944103898427337,0.4458266644801233,0.012614482889857349,-0.033309377077908736,175.9381060408933,-0.40882993164226217,-52.97422396671151,-0.0004014257279586958,-0.0012550662651091224,-0.002701595149162023,0.06992141565322876,0.7117666687393189,-9.68730322927475
2026-09-11T17:41:05.517,2.4392713920000233,-472.2610168457031,-42503.49151611328,-170013.96606445312,-323.4987965393067,0.0,0.0,0.0,0.0,0.0,0.0,-0.043670654296875,-357.75,-15.721435546875,0.0,0.0,0.0,1,1789162865.0681586,38.99140335166667,-76.93668444333333,-9.568000000000001,0,1,16.941456,6.932689,72.914521,1,1,1789162865.509406,-0.8943982806567138,0.4458502106253643,0.012623575279331814,-0.03331592098081438,175.93698039175817,-0.40833974708422033,-52.97727310819569,0.000603883921190038,-0.005330235535590683,-0.0009208357133522083,0.07453054122924804,0.70294068359375,-9.681419239177705
2026-09-11T17:41:05.551,2.472696159999998,-472.2610168457031,-42503.49151611328,-170013.96606445312,-323.4987965393067,0.0,0.0,0.0,0.0,0.0,0.0,-0.043670654296875,-357.75,-15.721435546875,0.0,0.0,0.0,1,1789162865.0681586,38.99140335166667,-76.93668444333333,-9.568000000000001,0,1,16.941456,6.932689,72.914521,1,1,1789162865.5414062,-0.8943952345457578,0.44585394012733376,0.012703089114447785,-0.03331756326205979,175.93274913423778,-0.40029271281274803,-52.978082302466404,0.0016639969088513937,-0.001348441380090819,0.0006414085001079161,0.07305954370498657,0.6962721614837646,-9.684459300727845
2026-09-11T17:41:05.584,2.5061224639999864,-472.2610168457031,-42503.49151611328,-170013.96606445312,-323.4987965393067,0.0,0.0,0.0,0.0,0.0,0.0,-0.043670654296875,-357.75,-15.721435546875,0.0,0.0,0.0,1,1789162865.0681586,38.99140335166667,-76.93668444333333,-9.568000000000001,0,1,16.941456,6.932689,72.914521,1,1,1789162865.581406,-0.8944103696073475,0.4458281527589352,0.012767969009631466,-0.03323142960771307,175.93826174418044,-0.3891218914268107,-52.97507714777194,-0.0004913101844364038,0.0008079129107481752,-0.00011239920382843484,0.06335096004486084,0.6889171738624573,-9.686812896766662
2026-09-11T17:41:05.618,2.5395365439999864,-472.2610168457031,-42503.49151611328,-170013.96606445312,-323.4987965393067,0.0,0.0,0.0,0.0,0.0,0.0,-0.043670654296875,-357.75,-15.721435546875,0.0,0.0,0.0,1,1789162865.0681586,38.99140335166667,-76.93668444333333,-9.568000000000001,0,1,16.941456,6.932689,72.914521,1,1,1789162865.6094062,-0.8943983969726208,0.44585940800473567,0.012687323578228021,-0.03316515651846354,175.94919951164096,-0.39413793174945655,-52.97875684103731,0.00264085769119262,-0.0016392132334730745,-0.0020565214576249184,0.07453054122924804,0.6962721614837646,-9.683674768714905
2026-09-11T17:41:05.651,2.5729489600000193,-472.2610168457031,-42503.49151611328,-170013.96606445312,-323.4987965393067,0.0,0.0,0.0,0.0,0.0,0.0,-0.043670654296875,-357.75,-15.721435546875,0.0,0.0,0.0,1,1789162865.0681586,38.99140335166667,-76.93668444333333,-9.568000000000001,0,1,16.941456,6.932689,72.914521,1,1,1789162865.641406,-0.8944047755142629,0.4458427751548883,0.01266408290651596,-0.03322556822095727,175.94417982624054,-0.3995339635388777,-52.97651531948603,0.0023237313661052506,0.0030794589322187954,-8.744099552491591e-05,0.07227501169204711,0.6992141565322876,-9.67847724412918
2026-09-11T17:41:05.684,2.606370400000003,-472.2610168457031,-42503.49151611328,-170013.96606445312,-323.4987965393067,0.0,0.0,0.0,0.0,0.0,0.0,-0.043670654296875,-357.75,-15.721435546875,0.0,0.0,0.0,1,1789162865.0681586,38.99140335166667,-76.93668444333333,-9.568000000000001,0,1,16.941456,6.932689,72.914521,1,1,1789162865.681406,-0.8943886703981188,0.44587441100622344,0.01258443850509549,-0.033264812953783134,175.94423736658106,-0.40984589669307075,-52.98022074341964,-0.0018008307222077491,-0.0023239058990304497,-0.0010716321607245184,0.08198359535217284,0.7059807451438904,-9.69112782283783
2026-09-11T17:41:05.718,2.639783840000007,-472.2610168457031,-42503.49151611328,-170013.96606445312,-323.4987965393067,0.0,0.0,0.0,0.0,0.0,0.0,-0.043670654296875,-357.75,-15.721435546875,0.0,0.0,0.0,1,1789162865.0681586,38.99140335166667,-76.93668444333333,-9.568000000000001,0,1,16.941456,6.932689,72.914521,1,1,1789162865.7094061,-0.8944034861081912,0.4458355027402237,0.012607234494643304,-0.033379127793934336,175.93132164622136,-0.41318014764548083,-52.97530535520065,0.0030101693609146203,0.0005078908123303499,-0.0007148868616168774,0.07747253627777101,0.7050981466293336,-9.679163709640504
2026-09-11T17:41:05.751,2.67319670400002,-472.2610168457031,-42503.49151611328,-170013.96606445312,-323.4987965393067,0.0,0.0,0.0,0.0,0.0,0.0,-0.043670654296875,-357.75,-15.721435546875,0.0,0.0,0.0,1,1789162865.0681586,38.99140335166667,-76.93668444333333,-9.568000000000001,0,1,16.941456,6.932689,72.914521,1,1,1789162865.7414062,-0.8944185588285559,0.4458052100487855,0.01259421043360854,-0.033384759696023524,175.9313952946139,-0.41466512389347704,-52.971373153398005,0.0020994565572239787,0.001789486082069786,-0.0014833553312699806,0.07678607076644897,0.6985276910209656,-9.688185827789306
2026-09-11T17:41:05.784,2.7066212159999736,-472.2610168457031,-42503.49151611328,-170013.96606445312,-323.4987965393067,0.0,0.0,0.0,0.0,0.0,0.0,-0.043670654296875,-357.75,-15.721435546875,0.0,0.0,0.0,1,1789162865.0681586,38.99140335166667,-76.93668444333333,-9.568000000000001,0,1,16.941456,6.932689,72.914521,1,1,1789162865.7814062,-0.8943992397479459,0.4458567252525468,0.012392029393047035,-0.033289909775990494,175.95148832406306,-0.4307661603969237,-52.97715167799546,0.0005593780252641827,0.0002670353755551324,-0.00018779742751458986,0.08286619386672973,0.6919572354125977,-9.689754891815186
2026-09-11T17:41:05.818,2.7400337280000144,-472.2610168457031,-42503.49151611328,-170013.96606445312,-323.4987965393067,0.0,0.0,0.0,0.0,0.0,0.0,-0.043670654296875,-357.75,-15.721435546875,0.0,0.0,0.0,1,1789162865.0681586,38.99140335166667,-76.93668444333333,-9.568000000000001,0,1,16.941456,6.932689,72.914521,1,1,1789162865.809406,-0.8943621394809447,0.44593985732306984,0.01226538089206353,-0.03321998713606019,175.96517898010046,-0.44054288364505717,-52.987287696991814,0.001754754029955099,0.0001603957582582789,0.00105574966453137,0.07227501169204711,0.7006851540565491,-9.679948241653442
2026-09-11T17:41:05.851,2.773445632000005,-472.2610168457031,-42503.49151611328,-170013.96606445312,-323.4987965393067,0.0,0.0,0.0,0.0,0.0,0.0,-0.043670654296875,-357.75,-15.721435546875,0.0,0.0,0.0,1,1789162865.0681586,38.99140335166667,-76.93668444333333,-9.568000000000001,0,1,16.941456,6.932689,72.914521,1,1,1789162865.841406,-0.8943529911161581,0.44595230806803265,0.012335675786252453,-0.03327307189413225,175.95614334154118,-0.43611157209646045,-52.98915507683029,0.0027502898352926644,0.005127079210658543,-0.000454309204294124,0.07217694519042969,0.706569144153595,-9.687401295776368
2026-09-11T17:41:05.885,2.806870176000018,-472.2610168457031,-42503.49151611328,-170013.96606445312,-323.4987965393067,0.0,0.0,0.0,0.0,0.0,0.0,-0.043670654296875,-357.75,-15.721435546875,0.0,0.0,0.0,1,1789162865.0681586,38.99140335166667,-76.93668444333333,-9.568000000000001,0,1,16.941456,6.932689,72.914521,1,1,1789162865.881406,-0.8943615238474824,0.445927026501128,0.012408848342761455,-0.03335524216488084,175.9439571857654,-0.4327026929946151,-52.98619849274881,0.0004820599394008338,-0.0005988224663592544,0.00026022859147235454,0.08423912488937378,0.7030387500953674,-9.69416788438797
2026-09-11T17:41:05.918,2.8402823039999703,-472.2610168457031,-42503.49151611328,-170013.96606445312,-323.4987965393067,0.0,0.0,0.0,0.0,0.0,0.0,-0.043670654296875,-357.75,-15.721435546875,0.0,0.0,0.0,1,1789162865.0681586,38.99140335166667,-76.93668444333333,-9.568000000000001,0,1,16.941456,6.932689,72.914521,1,1,1789162865.9094062,-0.8943700075904149,0.44590258854996717,0.012496582454176878,-0.03342164678955721,175.93264526172854,-0.4269984888214074,-52.98341647433024,0.0026640705702441446,0.0031709141850232983,0.0017516124373015093,0.07305954370498657,0.6977431590080262,-9.682988303203583
2026-09-11T17:41:05.951,2.8736971839999796,-472.2610168457031,-42503.49151611328,-170013.96606445312,-323.4987965393067,0.0,0.0,0.0,0.0,0.0,0.0,-0.043670654296875,-357.75,-15.721435546875,0.0,0.0,0.0,1,1789162865.0681586,38.99140335166667,-76.93668444333333,-9.568000000000001,0,1,16.941456,6.932689,72.914521,1,1,1789162865.941406,-0.8943783300605679,0.4458912662541221,0.012422072483228573,-0.03337773976150772,175.9409549523012,-0.432336305808354,-52.981670661317104,0.0017437584556675347,0.005136329455694112,-0.0036037558395178916,0.07453054122924804,0.6948992304611207,-9.688970359802246
2026-09-11T17:41:05.985,2.9071160959999816,-472.2610168457031,-42503.49151611328,-170013.96606445312,-323.4987965393067,0.0,0.0,0.0,0.0,0.0,0.0,-0.043670654296875,-357.75,-15.721435546875,0.0,0.0,0.0,1,1789162865.0681586,38.99140335166667,-76.93668444333333,-9.568000000000001,0,1,16.941456,6.932689,72.914521,1,1,1789162865.9814062,-0.8943744028732434,0.4459061036846909,0.012347933231785516,-0.03331220086951037,175.95147840403754,-0.4366482901971632,-52.98328150999411,0.00035657076618244156,-0.0034988615514730324,-0.003259053312249012,0.08208166185379029,0.6948992304611207,-9.688185827789306
2026-09-11T17:41:06.018,2.940528927999992,-472.2610168457031,-42503.49151611328,-170013.96606445312,-323.4987965393067,0.0,0.0,0.0,0.0,0.0,0.0,-0.043670654296875,-357.75,-15.721435546875,0.0,0.0,0.0,1,1789162865.0681586,38.99140335166667,-76.93668444333333,-9.568000000000001,0,1,16.941456,6.932689,72.914521,1,1,1789162866.009406,-0.8943875908402344,0.4458717526229178,0.012414630455347709,-0.03339303092901609,175.9397565442724,-0.43379253087841263,-52.9791382725058,0.0017767451785302274,0.0016831955306233315,0.0008138470302049559,0.08041453132629395,0.7066672106552124,-9.687401295776368
2026-09-11T17:41:06.052,2.9739428479999788,-472.2610168457031,-42503.49151611328,-170013.96606445312,-323.4987965393067,0.0,0.0,0.0,0.0,0.0,0.0,-0.043548583984375,-356.75,-15.677490234375,0.0,0.0,0.0,1,1789162865.0681586,38.99140335166667,-76.93668444333333,-9.568000000000001,0,1,16.941456,6.932689,72.914521,1,1,1789162866.049406,-0.8943717667306837,0.445897938906551,0.012439445872150378,-0.03345790101484349,175.93184289350467,-0.43468661356495814,-52.98257328543946,3.944444109507184e-05,-0.003490134905213061,-0.00010663961729685353,0.07972806581497192,0.7081382081794738,-9.686616763763427
2026-09-11T17:41:06.085,3.0073676800000158,-472.2610168457031,-42503.49151611328,-170013.96606445312,-323.4987965393067,0.0,0.0,0.0,0.0,0.0,0.0,-0.043548583984375,-356.75,-15.677490234375,0.0,0.0,0.0,1,1789162866.0648406,38.991403245,-76.93668447666667,-9.552000000000003,0,1,16.933225,6.932689,72.914521,1,1,1789162866.081406,-0.8943735979373765,0.44588555484984543,0.012538969729221246,-0.03353674890217148,175.91865707164376,-0.42846508945334766,-52.981380366798255,0.0009091420073638462,-0.003192381734822828,0.0009461429875061261,0.07972806581497192,0.7022542180824279,-9.682203771190643
2026-09-11T17:41:06.119,3.040780159999997,-472.2610168457031,-42503.49151611328,-170013.96606445312,-323.4987965393067,0.0,0.0,0.0,0.0,0.0,0.0,-0.043548583984375,-356.75,-15.677490234375,0.0,0.0,0.0,1,1789162866.0648406,38.991403245,-76.93668447666667,-9.552000000000003,0,1,16.933225,6.932689,72.914521,1,1,1789162866.1094062,-0.894355141560149,0.44592828527217054,0.012469063199747993,-0.033486827590388166,175.92737475042495,-0.4332694079428173,-52.98657136541581,0.0014282029269069598,0.00042760566673861073,0.001125911900461542,0.07609960525512696,0.6955856959724427,-9.684459300727845
2026-09-11T17:41:06.152,3.0741934719999904,-472.2610168457031,-42503.49151611328,-170013.96606445312,-323.4987965393067,0.0,0.0,0.0,0.0,0.0,0.0,-0.043548583984375,-356.75,-15.677490234375,0.0,0.0,0.0,1,1789162866.0648406,38.991403245,-76.93668447666667,-9.552000000000003,0,1,16.933225,6.932689,72.914521,1,1,1789162866.1494062,-0.8943281759811788,0.4459937940317139,0.012418642161474697,-0.03335306070273193,175.94371255056515,-0.4318901067540599,-52.99478399747598,0.001843067690106012,-0.0024612633111624036,3.490658503988659e-05,0.08051259782791138,0.6927417674255371,-9.692794953365325
2026-09-11T17:41:06.186,3.107616575999998,-472.2610168457031,-42503.49151611328,-170013.96606445312,-323.4987965393067,0.0,0.0,0.0,0.0,0.0,0.0,-0.043548583984375,-356.75,-15.677490234375,0.0,0.0,0.0,1,1789162866.0648406,38.991403245,-76.93668447666667,-9.552000000000003,0,1,16.933225,6.932689,72.914521,1,1,1789162866.181406,-0.8943389917095531,0.4459746950794246,0.012438780197779966,-0.03331089917648248,175.94700071479988,-0.42758311571287283,-52.992435557161045,0.0027967155933957136,-0.00019582594207376378,-0.001708851870627648,0.07757060277938843,0.6926437009239197,-9.683772835216521
2026-09-11T17:41:06.219,3.1410280000000057,-472.2610168457031,-42503.49151611328,-170013.96606445312,-323.4987965393067,0.0,0.0,0.0,0.0,0.0,0.0,-0.043548583984375,-356.75,-15.677490234375,0.0,0.0,0.0,1,1789162866.0648406,38.991403245,-76.93668447666667,-9.552000000000003,0,1,16.933225,6.932689,72.914521,1,1,1789162866.2094061,-0.8943469896588658,0.445959877163216,0.012469095246053172,-0.03328320465999023,175.94828602785253,-0.42299292144019396,-52.99067296019019,-0.0005941100773788698,0.0033581880137622893,-0.002178519972339322,0.06923495014190674,0.6992141565322876,-9.687401295776368
2026-09-11T17:41:06.252,3.174440319999974,-472.2610168457031,-42503.49151611328,-170013.96606445312,-323.4987965393067,0.0,0.0,0.0,0.0,0.0,0.0,-0.043548583984375,-356.75,-15.677490234375,0.0,0.0,0.0,1,1789162866.0648406,38.991403245,-76.93668447666667,-9.552000000000003,0,1,16.933225,6.932689,72.914521,1,1,1789162866.249406,-0.8943491188568138,0.44594939679700757,0.0124713757405966,-0.033365459438810564,175.93972273208348,-0.42691968584428874,-52.98931773031504,0.00030333822399661444,-0.003206693434689182,-0.0012850859282434249,0.08198359535217284,0.7044116811180116,-9.679948241653442
2026-09-11T17:41:06.286,3.2079054399999904,-472.2610168457031,-42503.49151611328,-170013.96606445312,-323.4987965393067,0.0,0.0,0.0,0.0,0.0,0.0,-0.043548583984375,-356.75,-15.677490234375,0.0,0.0,0.0,1,1789162866.0648406,38.991403245,-76.93668447666667,-9.552000000000003,0,1,16.933225,6.932689,72.914521,1,1,1789162866.2814062,-0.8943579222676905,0.4459251636177028,0.012568499655572442,-0.03341688414488468,175.9294682490941,-0.41948818451788383,-52.98660643385893,0.0025994933879203543,-0.0005539675045830001,-0.00013753194505715318,0.06923495014190674,0.7080401416778564,-9.686616763763427
2026-09-11T17:41:06.319,3.241315552000003,-472.2610168457031,-42503.49151611328,-170013.96606445312,-323.4987965393067,0.0,0.0,0.0,0.0,0.0,0.0,-0.043548583984375,-356.75,-15.677490234375,0.0,0.0,0.0,1,1789162866.0648406,38.991403245,-76.93668447666667,-9.552000000000003,0,1,16.933225,6.932689,72.914521,1,1,1789162866.309406,-0.8943525961054158,0.44593990815041445,0.012520436231038464,-0.03338069554229237,175.93564638418127,-0.4226289219655163,-52.98830317637209,0.0017873916869673928,0.0032609731744262056,-0.002250602070446688,0.0790416003036499,0.6970566934967042,-9.687499362277984
2026-09-11T17:41:06.352,3.274726783999995,-472.2610168457031,-42503.49151611328,-170013.96606445312,-323.4987965393067,0.0,0.0,0.0,0.0,0.0,0.0,-0.043548583984375,-356.75,-15.677490234375,0.0,0.0,0.0,1,1789162866.0648406,38.991403245,-76.93668447666667,-9.552000000000003,0,1,16.933225,6.932689,72.914521,1,1,1789162866.349406,-0.8943921313304559,0.44585971987238093,0.012570122513455111,-0.03337390641628535,175.93376569292502,-0.4168261067850241,-52.978250793194576,0.0019298105539301302,-0.00043650684592378184,-0.002301391151679723,0.07384407571792603,0.6925456344223022,-9.67700624660492
2026-09-11T17:41:06.386,3.308151232,-472.2610168457031,-42503.49151611328,-170013.96606445312,-323.4987965393067,0.0,0.0,0.0,0.0,0.0,0.0,-0.043548583984375,-356.75,-15.677490234375,0.0,0.0,0.0,1,1789162866.0648406,38.991403245,-76.93668447666667,-9.552000000000003,0,1,16.933225,6.932689,72.914521,1,1,1789162866.381406,-0.894397026972123,0.4458507863154293,0.012616546434451597,-0.03334452340952166,175.93440433004773,-0.41052552216506244,-52.97730954511971,0.0016873843208281179,-0.00025761059759436307,0.002232101580375548,0.07305954370498657,0.6955856959724427,-9.689754891815186
2026-09-11T17:41:06.419,3.3415646400000014,-472.2610168457031,-42503.49151611328,-170013.96606445312,-323.4987965393067,0.0,0.0,0.0,0.0,0.0,0.0,-0.043548583984375,-356.75,-15.677490234375,0.0,0.0,0.0,1,1789162866.0648406,38.991403245,-76.93668447666667,-9.552000000000003,0,1,16.933225,6.932689,72.914521,1,1,1789162866.4094062,-0.894369357802584,0.44591231864169634,0.012541837568372365,-0.033292014324584215,175.94364080912578,-0.41577437925200544,-52.9848867074746,3.508111796508603e-05,0.00031956978604016174,0.0008646361114379909,0.08051259782791138,0.6978412255096436,-9.685243832740785
2026-09-11T17:41:06.453,3.3749716479999847,-472.2610168457031,-42503.49151611328,-170013.96606445312,-323.4987965393067,0.0,0.0,0.0,0.0,0.0,0.0,-0.043548583984375,-356.75,-15.677490234375,0.0,0.0,0.0,1,1789162866.0648406,38.991403245,-76.93668447666667,-9.552000000000003,0,1,16.933225,6.932689,72.914521,1,1,1789162866.4494061,-0.894356592367484,0.4459346825691054,0.012580150264458283,-0.033320930211164196,175.93872485350852,-0.41342909005024725,-52.98790004117738,0.0028270843223804154,0.0005071926806295521,0.0028310985796600016,0.06697942060470581,0.7044116811180116,-9.686616763763427
2026-09-11T17:41:06.486,3.4083967039999834,-472.2610168457031,-42503.49151611328,-170013.96606445312,-323.4987965393067,0.0,0.0,0.0,0.0,0.0,0.0,-0.043548583984375,-356.75,-15.677490234375,0.0,0.0,0.0,1,1789162866.0648406,38.991403245,-76.93668447666667,-9.552000000000003,0,1,16.933225,6.932689,72.914521,1,1,1789162866.4814062,-0.8943316209393679,0.44598961445570956,0.012489858659059603,-0.03328992364495762,175.9465488926034,-0.4213437445265963,-52.994562757703314,0.0017776178431562245,0.0016791812733437444,0.0010108947027551156,0.07305954370498657,0.7006851540565491,-9.687401295776368
2026-09-11T17:41:06.520,3.4418089280000004,-472.2610168457031,-42503.49151611328,-170013.96606445312,-323.4987965393067,0.0,0.0,0.0,0.0,0.0,0.0,-0.043548583984375,-356.75,-15.677490234375,0.0,0.0,0.0,1,1789162866.0648406,38.991403245,-76.93668447666667,-9.552000000000003,0,1,16.933225,6.932689,72.914521,1,1,1789162866.509406,-0.8943365988441376,0.4459789024218557,0.012502271931328796,-0.0332950410579699,175.94538400268715,-0.4202851006355228,-52.99324202756231,-0.0023314108148140256,-0.0016029103850315923,-0.003818431337513194,0.07678607076644897,0.6985276910209656,-9.684459300727845
2026-09-11T17:41:06.554,3.4752260479999677,-472.2610168457031,-42503.49151611328,-170013.96606445312,-323.4987965393067,0.0,0.0,0.0,0.0,0.0,0.0,-0.043548583984375,-356.75,-15.677490234375,0.0,0.0,0.0,1,1789162866.0648406,38.991403245,-76.93668447666667,-9.552000000000003,0,1,16.933225,6.932689,72.914521,1,1,1789162866.549406,-0.8943624918455635,0.44592745681518026,0.012594017468736996,-0.033253979643601786,175.9448837355115,-0.408550528128042,-52.987051680908706,0.0022500784716710897,0.0033285174164783857,-0.002644522882621808,0.06933301664352418,0.6903881713867188,-9.679261776142122
2026-09-11T17:41:06.587,3.508654655999976,-472.2610168457031,-42503.49151611328,-170013.96606445312,-323.4987965393067,0.0,0.0,0.0,0.0,0.0,0.0,-0.043548583984375,-356.75,-15.677490234375,0.0,0.0,0.0,1,1789162866.0648406,38.991403245,-76.93668447666667,-9.552000000000003,0,1,16.933225,6.932689,72.914521,1,1,1789162866.581406,-0.8943964552597884,0.4458520681318891,0.012661927921250808,-0.03332551188743608,175.93403647625925,-0.4049086273845229,-52.97766839912004,0.0015056955456955081,0.0020718803550424684,-0.00200363798128949,0.07453054122924804,0.7022542180824279,-9.685930298252105
2026-09-11T17:41:06.620,3.5420803839999735,-472.2610168457031,-42503.49151611328,-170013.96606445312,-323.4987965393067,0.0,0.0,0.0,0.0,0.0,0.0,-0.043548583984375,-356.75,-15.677490234375,0.0,0.0,0.0,1,1789162866.0648406,38.991403245,-76.93668447666667,-9.552000000000003,0,1,16.933225,6.932689,72.914521,1,1,1789162866.6094062,-0.8944012133512242,0.4458452684262671,0.012638677479201468,-0.033297597651250684,175.9380868147862,-0.40583259573827896,-52.97670876923285,-0.0018243926671096726,-0.0029893999428158877,-0.004166624523286063,0.0737460092163086,0.7044116811180116,-9.682890236701965
2026-09-11T17:41:06.653,3.5754931839999813,-472.2610168457031,-42503.49151611328,-170013.96606445312,-323.4987965393067,0.0,0.0,0.0,0.0,0.0,0.0,-0.043548583984375,-356.75,-15.677490234375,0.0,0.0,0.0,1,1789162866.0648406,38.991403245,-76.93668447666667,-9.552000000000003,0,1,16.933225,6.932689,72.914521,1,1,1789162866.6494062,-0.8944167070983716,0.4458126737338235,0.012699819910542719,-0.0332945727686194,175.93525747438812,-0.39926444784713117,-52.97279433419363,0.002819055807821241,0.0015376350710070044,-0.002604554842751138,0.07080401416778564,0.7021561515808106,-9.686616763763427
2026-09-11T17:41:06.687,3.6089144000000033,-472.2610168457031,-42503.49151611328,-170013.96606445312,-323.4987965393067,0.0,0.0,0.0,0.0,0.0,0.0,-0.043548583984375,-356.75,-15.677490234375,0.0,0.0,0.0,1,1789162866.0648406,38.991403245,-76.93668447666667,-9.552000000000003,0,1,16.933225,6.932689,72.914521,1,1,1789162866.681406,-0.8944192075058554,0.4458092207093249,0.012721480717328574,-0.03326535590521768,175.93714754782567,-0.39553489443829914,-52.97245095834501,0.0006206390820091836,7.714355293814937e-05,-0.0006501351463678877,0.07600153875350953,0.6993122230339051,-9.691912354850768
2026-09-11T17:41:06.720,3.64233417600002,-472.2610168457031,-42503.49151611328,-170013.96606445312,-323.4987965393067,0.0,0.0,0.0,0.0,0.0,0.0,-0.043548583984375,-356.75,-15.677490234375,0.0,0.0,0.0,1,1789162866.0648406,38.991403245,-76.93668447666667,-9.552000000000003,0,1,16.933225,6.932689,72.914521,1,1,1789162866.7094061,-0.8944089449635465,0.44583418612233033,0.012760215385608453,-0.03319178448272457,175.94272965327247,-0.38791618240186315,-52.975827076023236,0.00026668630970473357,-0.005720316623411415,-0.0009909979492823803,0.06560648958206176,0.6918591689109802,-9.686714830265046
2026-09-11T17:41:06.754,3.675747424000008,-472.2610168457031,-42503.49151611328,-170013.96606445312,-323.4987965393067,0.0,0.0,0.0,0.0,0.0,0.0,-0.043548583984375,-356.75,-15.677490234375,0.0,0.0,0.0,1,1789162866.0648406,38.991403245,-76.93668447666667,-9.552000000000003,0,1,16.933225,6.932689,72.914521,1,1,1789162866.749406,-0.8944050915106718,0.4458532234378859,0.012771621806662707,-0.03303514955711756,175.9582307640884,-0.37882232568327806,-52.97835124754467,0.0014967943665103371,0.0012646655759950911,-0.0012266173983016147,0.06864655113220215,0.6889171738624573,-9.681517305679321
2026-09-11T17:41:06.787,3.7091672959999755,-472.2610168457031,-42503.49151611328,-170013.96606445312,-323.4987965393067,0.0,0.0,0.0,0.0,0.0,0.0,-0.043548583984375,-356.75,-15.677490234375,0.0,0.0,0.0,1,1789162866.0648406,38.991403245,-76.93668447666667,-9.552000000000003,0,1,16.933225,6.932689,72.914521,1,1,1789162866.7814062,-0.8944161203236473,0.4458286618012611,0.012772457960716509,-0.03306769328715452,175.95483754719132,-0.3802901387990199,-52.975203479537285,-0.00020263272615654167,0.0024589943831348107,-0.0003532546406036523,0.07384407571792603,0.6926437009239197,-9.683772835216521
2026-09-11T17:41:06.824,3.7425919359999966,-472.2610168457031,-42503.49151611328,-170013.96606445312,-323.4987965393067,0.0,0.0,0.0,0.0,0.0,0.0,-0.043548583984375,-356.75,-15.677490234375,0.0,0.0,0.0,1,1789162866.0648406,38.991403245,-76.93668447666667,-9.552000000000003,0,1,16.933225,6.932689,72.914521,1,1,1789162866.8214061,-0.8943965842231487,0.44586403711865935,0.012704065222384674,-0.03314539577438412,175.95037385735037,-0.39143261927283635,-52.979424303398545,0.002984687553835503,0.002436828701634483,0.001937839068489304,0.07747253627777101,0.7066672106552124,-9.684361234226227
2026-09-11T17:41:06.856,3.7760056320000217,-472.2610168457031,-42503.49151611328,-170013.96606445312,-323.4987965393067,0.0,0.0,0.0,0.0,0.0,0.0,-0.043548583984375,-356.75,-15.677490234375,0.0,0.0,0.0,1,1789162866.0648406,38.991403245,-76.93668447666667,-9.552000000000003,0,1,16.933225,6.932689,72.914521,1,1,1789162866.849406,-0.8943840616739394,0.44588106210182066,0.012765565598747178,-0.03323054344309428,175.93849852438657,-0.3895629187233478,-52.981837702435776,-0.00011449359893082802,-0.0005867796945204936,6.475171524898962e-05,0.06992141565322876,0.7102956712150573,-9.68730322927475
2026-09-11T17:41:06.888,3.809436575999996,-472.2610168457031,-42503.49151611328,-170013.96606445312,-323.4987965393067,0.0,0.0,0.0,0.0,0.0,0.0,-0.043548583984375,-356.75,-15.677490234375,0.0,0.0,0.0,1,1789162866.0648406,38.991403245,-76.93668447666667,-9.552000000000003,0,1,16.933225,6.932689,72.914521,1,1,1789162866.881406,-0.8943830354770737,0.4458776053250164,0.012863757671365592,-0.03326665987166119,175.92977071664114,-0.38133281393880286,-52.981798217030295,-0.0011964232022421129,-0.001949009175702068,-0.00041119957176986404,0.06550842308044434,0.6992141565322876,-9.685930298252105
2026-09-11T17:41:06.921,3.842858559999968,-472.2610168457031,-42503.49151611328,-170013.96606445312,-323.4987965393067,0.0,0.0,0.0,0.0,0.0,0.0,-0.04196357727050781,-343.765625,-15.106887817382812,0.030517585575580597,10.986330807209015,328.71569824275724,1,1789162866.0648406,38.991403245,-76.93668447666667,-9.552000000000003,0,1,16.933225,6.932689,72.914521,1,1,1789162866.9094062,-0.8943875507394008,0.44587035884504017,0.012868238904930255,-0.03324064700418104,175.932208322812,-0.3795101405291092,-52.98089644486576,0.0011466813185602744,-0.004268900817452931,-0.0015639895427121185,0.06325289354324341,0.6977431590080262,-9.691225889339448
2026-09-11T17:41:06.954,3.8762705280000205,-472.2610168457031,-42503.49151611328,-170013.96606445312,-323.4987965393067,0.0,0.0,0.0,0.0,0.0,0.0,-0.04148292541503906,-339.828125,-14.933853149414062,0.03051757998764515,10.986328795552254,-6.0207670531896366e-05,1,1789162866.0648406,38.991403245,-76.93668447666667,-9.552000000000003,0,1,16.933225,6.932689,72.914521,1,1,1789162866.9494061,-0.8943531831423103,0.44594181002360933,0.012856940306757197,-0.03321121741268969,175.93583656615698,-0.37948703673659284,-52.98999975716309,-0.00029548424236264,0.0004639085151800928,0.00047333329314086216,0.06923495014190674,0.7088246736907958,-9.693383352375031
2026-09-11T17:41:06.987,3.9096965119999822,-472.2610168457031,-42503.49151611328,-170013.96606445312,-323.4987965393067,0.0,0.0,0.0,0.0,0.0,0.0,-0.04071807861328125,-333.5625,-14.65850830078125,0.0,0.0,-328.67630151336215,1,1789162866.0648406,38.991403245,-76.93668447666667,-9.552000000000003,0,1,16.933225,6.932689,72.914521,1,1,1789162866.9814062,-0.8943378773385414,0.44597977951496015,0.012752493671134615,-0.03315375282750528,175.94709056609182,-0.38742157273899563,-52.994435701801685,-0.0005436700619962337,-0.0031182052416130696,0.0015413002624361924,0.07541313974380492,0.6846022477912903,-9.695050482902527
2026-09-11T17:41:07.021,3.9431162239999935,-472.2610168457031,-42503.49151611328,-170013.96606445312,-323.4987965393067,0.0,0.0,0.0,0.0,0.0,0.0,-0.039920806884765625,-327.03125,-14.371490478515625,0.015258789993822575,5.493164397776127,164.36899270030443,1,1789162866.0648406,38.991403245,-76.93668447666667,-9.552000000000003,0,1,16.933225,6.932689,72.914521,1,1,1789162867.009406,-0.8943311028655679,0.4459949116718976,0.012972267843077848,-0.03304750334050527,175.9467629020558,-0.3595351781124308,-52.99732079475138,0.0013987068625482557,-0.0020509364040185367,0.0029962067268986653,0.04609125576019287,0.6975470260047912,-9.67622171459198
2026-09-11T17:41:07.054,3.9765298240000106,-472.2610168457031,-42503.49151611328,-170013.96606445312,-323.4987965393067,0.0,0.0,0.0,0.0,0.0,0.0,-0.03927040100097656,-321.703125,-14.137344360351562,0.03051757998764515,10.986328795552254,164.39905899912935,1,1789162866.0648406,38.991403245,-76.93668447666667,-9.552000000000003,0,1,16.933225,6.932689,72.914521,1,1,1789162867.049406,-0.894308433708546,0.446040869772528,0.012914928615773915,-0.033063159395063275,175.94810705445667,-0.366419411689633,-53.00295736849908,-0.0003670427416944075,-0.0002879793265790644,0.0018421950254800148,0.06256642803192139,0.6925456344223022,-9.69269688686371
2026-09-11T17:41:07.088,4.009955584000011,-472.2610168457031,-42503.49151611328,-170013.96606445312,-323.4987965393067,0.0,0.0,0.0,0.0,0.0,0.0,-0.03853607177734375,-315.6875,-13.87298583984375,0.015258789993822575,5.493164397776127,-164.33925205518477,1,1789162866.0648406,38.991403245,-76.93668447666667,-9.552000000000003,0,1,16.933225,6.932689,72.914521,1,1,1789162867.081406,-0.8942884164082848,0.44607717583446915,0.013029684474832425,-0.033069756575953624,175.941575691936,-0.3551636539587804,-53.008085046700145,-0.0007115707360380881,-0.0014219197415997803,0.0026810002639884897,0.05805536895751953,0.6984296245193482,-9.69269688686371
2026-09-11T17:41:07.121,4.04337584000001,-472.2610168457031,-42503.49151611328,-170013.96606445312,-323.4987965393067,0.0,0.0,0.0,0.0,0.0,0.0,-0.03797340393066406,-311.078125,-13.670425415039062,0.015258789993822575,5.493164397776127,0.0,1,1789162866.0648406,38.991403245,-76.93668447666667,-9.552000000000003,0,1,16.933225,6.932689,72.914521,1,1,1789162867.1094062,-0.894271921871474,0.4461044462881102,0.013094703237573668,-0.03312222065923314,175.93287708309842,-0.351310640415162,-53.011837239563164,0.002243446220513511,0.0009527752386637045,0.004085990311843925,0.07070594766616821,0.7044116811180116,-9.69112782283783
2026-09-11T17:41:07.154,4.076785888000018,-472.2610168457031,-42503.49151611328,-170013.96606445312,-323.4987965393067,0.0,0.0,0.0,0.0,0.0,0.0,-0.037689208984375,-308.75,-13.568115234375,0.0,0.0,-164.41653713801608,1,1789162866.0648406,38.991403245,-76.93668447666667,-9.552000000000003,0,1,16.933225,6.932689,72.914521,1,1,1789162867.1494062,-0.894254617766951,0.44612770788412176,0.013116456101121136,-0.03326718262629619,175.91689793046433,-0.3566067071753558,-53.01487190516159,-0.0012690288991250769,-0.0024836035255879313,-2.4434609527920612e-05,0.07815900178909302,0.7059807451438904,-9.700836406497956
2026-09-11T17:41:07.188,4.110210880000011,-472.2610168457031,-42503.49151611328,-170013.96606445312,-323.4987965393067,0.0,0.0,0.0,0.0,0.0,0.0,-0.0371856689453125,-304.625,-13.3868408203125,0.015258789993822575,5.493164397776127,164.34302804850978,1,1789162866.0648406,38.991403245,-76.93668447666667,-9.552000000000003,0,1,16.933225,6.932689,72.914521,1,1,1789162867.181406,-0.8942715160190291,0.44608412241719625,0.013236225263423574,-0.03334986814191876,175.90226952367973,-0.34836821280027136,-53.00978394925653,-0.0008222246106145286,-0.003543018381548489,-0.00017121679962064373,0.07453054122924804,0.6955856959724427,-9.682988303203583
2026-09-11T17:41:07.222,4.143630655999971,-472.2610168457031,-42503.49151611328,-170013.96606445312,-323.4987965393067,0.0,0.0,0.0,0.0,0.0,0.0,-0.036712646484375,-300.75,-13.216552734375,0.0,0.0,-164.36867792838436,1,1789162866.0648406,38.991403245,-76.93668447666667,-9.552000000000003,0,1,16.933225,6.932689,72.914521,1,1,1789162867.2214062,-0.8942517362374283,0.44612999921003665,0.013098463540126937,-0.03332095878100866,175.9123008316709,-0.36121281170021724,-53.01507580312712,0.0007675958050271061,-0.00013631021458075714,0.003417529208330097,0.07305954370498657,0.6933301664352417,-9.686714830265046
2026-09-11T17:41:07.255,4.177042655999969,-472.2610168457031,-42503.49151611328,-170013.96606445312,-323.4987965393067,0.0,0.0,0.0,0.0,0.0,0.0,-0.036590576171875,-299.75,-13.172607421875,0.015258789993822575,5.493164397776127,164.40693157477503,1,1789162866.0648406,38.991403245,-76.93668447666667,-9.552000000000003,0,1,16.933225,6.932689,72.914521,1,1,1789162867.249406,-0.894243665015709,0.44614513599811084,0.013013894074332276,-0.033368005117503735,175.91180517467913,-0.37235423826633773,-53.016642848822784,-0.0009862855603019955,-0.0062215751845841865,0.0018936822384138475,0.0985568341255188,0.692055301914215,-9.687499362277984
2026-09-11T17:41:07.288,4.210493056000018,-472.2610168457031,-42503.49151611328,-170013.96606445312,-323.4987965393067,0.0,0.0,0.0,0.0,0.0,0.0,-0.036224365234375,-296.75,-13.040771484375,0.0,0.0,-164.21819762298907,1,1789162867.2744098,38.991403131666665,-76.93668451833334,-9.544000000000004,0,1,16.933225,6.932689,72.93159999999999,1,1,1789162867.2814062,-0.8942310938631048,0.44617582372721976,0.012949578218007737,-0.033319566529402274,175.92007859275535,-0.3766043809502607,-53.020310584519834,0.0005269149011770881,-0.006693861280173852,0.001358913355602785,0.0753150732421875,0.6911727033996582,-9.686028364753723
2026-09-11T17:41:07.324,4.24391903999998,-472.2610168457031,-42503.49151611328,-170013.96606445312,-323.4987965393067,0.0,0.0,0.0,0.0,0.0,0.0,-0.036102294921875,-295.75,-12.996826171875,0.0,0.0,0.0,1,1789162867.2744098,38.991403131666665,-76.93668451833334,-9.544000000000004,0,1,16.933225,6.932689,72.93159999999999,1,1,1789162867.3214061,-0.8942484437380174,0.4461325491762573,0.013144818624422797,-0.0333569060459643,175.90624187085285,-0.35831500642677755,-53.01559042657117,-0.00025551620249196987,-0.0013224359742361035,0.0006459463561631014,0.07747253627777101,0.7044116811180116,-9.679948241653442
2026-09-11T17:41:07.356,4.277331039999979,-472.2610168457031,-42503.49151611328,-170013.96606445312,-323.4987965393067,0.0,0.0,0.0,0.0,0.0,0.0,-0.036102294921875,-295.75,-12.996826171875,0.0,0.0,0.0,1,1789162867.2744098,38.991403131666665,-76.93668451833334,-9.544000000000004,0,1,16.933225,6.932689,72.93159999999999,1,1,1789162867.349406,-0.8942394356831075,0.44614857366972627,0.013077638291118446,-0.03341043636879025,175.90419171342197,-0.3680108752090068,-53.01734261070325,0.001081929603311285,-0.004345520771615482,-0.0009740682555380353,0.07443247472763062,0.706569144153595,-9.682105704689025
2026-09-11T17:41:07.389,4.3107556159999945,-472.2610168457031,-42503.49151611328,-170013.96606445312,-323.4987965393067,0.0,0.0,0.0,0.0,0.0,0.0,-0.036102294921875,-295.75,-12.996826171875,0.0,0.0,0.0,1,1789162867.2744098,38.991403131666665,-76.93668451833334,-9.544000000000004,0,1,16.933225,6.932689,72.93159999999999,1,1,1789162867.381406,-0.8942529051375915,0.4461129717602429,0.01320956402095806,-0.03347335505440981,175.89097243448987,-0.3575516934854075,-53.0133328727848,0.0017004742902180753,-0.002905973204570559,-0.0007586946258419351,0.0654103565788269,0.7116686022377013,-9.686616763763427
2026-09-11T17:41:07.422,4.344173280000007,-472.2610168457031,-42503.49151611328,-170013.96606445312,-323.4987965393067,0.0,0.0,0.0,0.0,0.0,0.0,-0.036102294921875,-295.75,-12.996826171875,0.0,0.0,0.0,1,1789162867.2744098,38.991403131666665,-76.93668451833334,-9.544000000000004,0,1,16.933225,6.932689,72.93159999999999,1,1,1789162867.421406,-0.8942666866565925,0.44606726088681775,0.01326484913286804,-0.03369177464387993,175.86571197239647,-0.3628548721835193,-53.00766681531975,0.0002624975194999472,-0.0012742648868810601,-0.002177996373563724,0.07276534420013428,0.7264766439819336,-9.687989694786072
2026-09-11T17:41:07.455,4.377583872000002,-472.2610168457031,-42503.49151611328,-170013.96606445312,-323.4987965393067,0.0,0.0,0.0,0.0,0.0,0.0,-0.036102294921875,-295.75,-12.996826171875,0.0,0.0,0.0,1,1789162867.2744098,38.991403131666665,-76.93668451833334,-9.544000000000004,0,1,16.933225,6.932689,72.93159999999999,1,1,1789162867.4494061,-0.894250080922386,0.4461044568914116,0.013326708688541494,-0.03361554919163974,175.87038515318096,-0.3527879271803218,-53.012711179660805,0.00029845130209103034,-0.004245164339625808,0.001195725070541315,0.053544309883117674,0.7042155481147766,-9.682105704689025
2026-09-11T17:41:07.489,4.411004928000011,-472.2610168457031,-42503.49151611328,-170013.96606445312,-323.4987965393067,0.0,0.0,0.0,0.0,0.0,0.0,-0.035980224609375,-294.75,-12.952880859375,0.0,0.0,0.0,1,1789162867.2744098,38.991403131666665,-76.93668451833334,-9.544000000000004,0,1,16.933225,6.932689,72.93159999999999,1,1,1789162867.4814062,-0.8942409865496034,0.4461488200952159,0.013138751325631668,-0.03334158838511161,175.90813058801245,-0.35822704902155794,-53.01765068682746,0.0011712904610133945,-0.0032543409232686266,0.0005508259119294104,0.0762957382583618,0.6684212750244141,-9.693677551879883
2026-09-11T17:41:07.523,4.444426016000023,-472.2610168457031,-42503.49151611328,-170013.96606445312,-323.4987965393067,0.0,0.0,0.0,0.0,0.0,0.0,-0.035980224609375,-294.75,-12.952880859375,0.0,0.0,0.0,1,1789162867.2744098,38.991403131666665,-76.93668451833334,-9.544000000000004,0,1,16.933225,6.932689,72.93159999999999,1,1,1789162867.5214062,-0.8942305452552332,0.44618702741866784,0.012852513084716268,-0.033221700787715386,175.93509124879722,-0.38159066551659554,-53.021360637289725,-0.0008468337530676487,-0.0002731440279371126,-0.0019648916718952164,0.08727918643951416,0.6979392920112609,-9.69269688686371
2026-09-11T17:41:07.556,4.477848864000009,-472.2610168457031,-42503.49151611328,-170013.96606445312,-323.4987965393067,0.0,0.0,0.0,0.0,0.0,0.0,-0.035980224609375,-294.75,-12.952880859375,0.0,0.0,0.0,1,1789162867.2744098,38.991403131666665,-76.93668451833334,-9.544000000000004,0,1,16.933225,6.932689,72.93159999999999,1,1,1789162867.549406,-0.8942386976827165,0.44616960324827887,0.01294718786403723,-0.03319950346625692,175.93251857032988,-0.3706756689638557,-53.01953455573623,0.0012451178883727547,0.0017006488231432746,0.00029007372168145755,0.04383572622299194,0.6983315580177306,-9.688185827789306
2026-09-11T17:41:07.589,4.511264095999991,-472.2610168457031,-42503.49151611328,-170013.96606445312,-323.4987965393067,0.0,0.0,0.0,0.0,0.0,0.0,-0.035980224609375,-294.75,-12.952880859375,0.0,0.0,0.0,1,1789162867.2744098,38.991403131666665,-76.93668451833334,-9.544000000000004,0,1,16.933225,6.932689,72.93159999999999,1,1,1789162867.581406,-0.8942441075593267,0.4461697128840016,0.013043542660252714,-0.033014078743789296,175.9466167678265,-0.35131366479517573,-53.01999969766526,0.0019252726978749451,0.002665815899496139,0.00108960905202006,0.04844485179901123,0.6762665951538085,-9.683184436206817
2026-09-11T17:41:07.623,4.544684959999984,-472.2610168457031,-42503.49151611328,-170013.96606445312,-323.4987965393067,0.0,0.0,0.0,0.0,0.0,0.0,-0.035980224609375,-294.75,-12.952880859375,0.0,0.0,0.0,1,1789162867.2744098,38.991403131666665,-76.93668451833334,-9.544000000000004,0,1,16.933225,6.932689,72.93159999999999,1,1,1789162867.621406,-0.8942407633968105,0.44618437689485735,0.012760824461823115,-0.03301696917483118,175.9607888657597,-0.3804933437987375,-53.020689962497066,-1.0995574287564276e-05,0.0019233528356977514,-9.826203688728075e-05,0.09708583660125733,0.6868577773284913,-9.679359842643738
2026-09-11T17:41:07.656,4.578103616000021,-472.2610168457031,-42503.49151611328,-170013.96606445312,-323.4987965393067,0.0,0.0,0.0,0.0,0.0,0.0,-0.035980224609375,-294.75,-12.952880859375,0.0,0.0,0.0,1,1789162867.2744098,38.991403131666665,-76.93668451833334,-9.544000000000004,0,1,16.933225,6.932689,72.93159999999999,1,1,1789162867.6494062,-0.8942589818079753,0.44614063298487855,0.012497459883780527,-0.033214794174713465,175.95394079324845,-0.4174038522612388,-53.01394253879991,0.0028317967113608,0.0064690628725169825,-0.001618094749523943,0.1224850605201721,0.6959779619789124,-9.694952416400909
2026-09-11T17:41:07.689,4.611525760000006,-472.2610168457031,-42503.49151611328,-170013.96606445312,-323.4987965393067,0.0,0.0,0.0,0.0,0.0,0.0,-0.035980224609375,-294.75,-12.952880859375,0.0,0.0,0.0,1,1789162867.2744098,38.991403131666665,-76.93668451833334,-9.544000000000004,0,1,16.933225,6.932689,72.93159999999999,1,1,1789162867.681406,-0.8942739217790956,0.4460704018680342,0.011888937795262237,-0.033970613200631335,175.90745907959234,-0.5181119457811237,-53.002203845374495,0.0022343705084031406,0.0034752996065711087,-0.006779033347671175,0.1759313039016724,0.7640361141014098,-9.675633315582274
2026-09-11T17:41:07.723,4.644951359999993,-472.2610168457031,-42503.49151611328,-170013.96606445312,-323.4987965393067,0.0,0.0,0.0,0.0,0.0,0.0,-0.03704261779785156,-303.453125,-13.335342407226562,-0.0762939527630806,-27.465822994709015,-821.7002236226074,1,1789162867.2744098,38.991403131666665,-76.93668451833334,-9.544000000000004,0,1,16.933225,6.932689,72.93159999999999,1,1,1789162867.7214062,-0.8943531273002698,0.44588091341200636,0.012045580071933196,-0.034316158640399906,175.86387747411115,-0.5188682693205139,-52.97848174362631,0.0006422811647339132,-6.213372137099813e-05,-0.010435323597674096,0.10208722818374634,0.7084324076843261,-9.703876468048096
2026-09-11T17:41:07.756,4.678372767999974,-472.2610168457031,-42503.49151611328,-170013.96606445312,-323.4987965393067,0.0,0.0,0.0,0.0,0.0,0.0,-0.04063606262207031,-332.890625,-14.628982543945312,-0.1373291164636612,-49.43848192691803,-657.4426467078068,1,1789162867.2744098,38.991403131666665,-76.93668451833334,-9.544000000000004,0,1,16.933225,6.932689,72.93159999999999,1,1,1789162867.749406,-0.8944195746178829,0.44576438244155486,0.011758420653972408,-0.034197652413419634,175.89064664852665,-0.5416977029388472,-52.96242607506074,0.004064697294969595,0.0034197981363576894,-0.011970864273578708,0.09188831201553345,0.6847003142929077,-9.695835014915467
2026-09-11T17:41:07.789,4.711787583999978,-472.2610168457031,-42503.49151611328,-170013.96606445312,-323.4987965393067,0.0,0.0,0.0,0.0,0.0,0.0,-0.044525146484375,-364.75,-16.029052734375,-0.0915527492761612,-32.95898973941803,493.179198936723,1,1789162867.2744098,38.991403131666665,-76.93668451833334,-9.544000000000004,0,1,16.933225,6.932689,72.93159999999999,1,1,1789162867.7814062,-0.8945286249828028,0.4455454177461676,0.012530073253795671,-0.033923694905242406,175.87922760251678,-0.44760349326349563,-52.93770782386917,0.0021629865419965726,-0.004501727739668974,-0.010630451408047062,-0.048542918300628665,0.7321645010757447,-9.682596037197113
2026-09-11T17:41:07.823,4.745212543999969,-472.2610168457031,-42503.49151611328,-170013.96606445312,-323.4987965393067,0.0,0.0,0.0,0.0,0.0,0.0,-0.04495429992675781,-368.265625,-16.183547973632812,0.0,0.0,986.0592126191675,1,1789162867.2744098,38.991403131666665,-76.93668451833334,-9.544000000000004,0,1,16.933225,6.932689,72.93159999999999,1,1,1789162867.8214061,-0.894552539186266,0.4455104638596704,0.013643032447216371,-0.03331739624564935,175.88459912985894,-0.30239011757813605,-52.93813609103264,-0.00015411257295109928,-0.0378598566671862,-0.0011006046263076243,0.009414384155273438,0.6950953634643554,-9.679163709640504
2026-09-11T17:41:07.856,4.778631328000017,-472.2610168457031,-42503.49151611328,-170013.96606445312,-323.4987965393067,0.0,0.0,0.0,0.0,0.0,0.0,-0.04482269287109375,-367.1875,-16.13616943359375,0.0457763709127903,16.479493528604507,493.1206811289351,1,1789162867.2744098,38.991403131666665,-76.93668451833334,-9.544000000000004,0,1,16.933225,6.932689,72.93159999999999,1,1,1789162867.849406,-0.8945111564221598,0.44562136106523237,0.013859620523335779,-0.03285277031863667,175.9212595243653,-0.25695077945021494,-52.95334886478185,0.0022455406156159045,-0.029121167635375787,0.0026905995748744585,0.10169496217727662,0.6766588611602784,-9.684655433731079
2026-09-11T17:41:07.890,4.812043136,-472.2610168457031,-42503.49151611328,-170013.96606445312,-323.4987965393067,0.0,0.0,0.0,0.0,0.0,0.0,-0.044769287109375,-366.75,-16.116943359375,0.0,0.0,-493.2236390384235,1,1789162867.2744098,38.991403131666665,-76.93668451833334,-9.544000000000004,0,1,16.933225,6.932689,72.93159999999999,1,1,1789162867.881406,-0.8944798120061073,0.44569617701124836,0.013548436905398729,-0.03282108420661167,175.94043785273124,-0.28756052674334587,-52.9615882980936,0.002586927017305995,-0.013134824351733725,-0.0049054223956552625,0.10591182174682617,0.712060868244171,-9.697109879436493
2026-09-11T17:41:07.923,4.845465504000003,-472.2610168457031,-42503.49151611328,-170013.96606445312,-323.4987965393067,0.0,0.0,0.0,0.0,0.0,0.0,-0.04498291015625,-368.5,-16.19384765625,0.0,0.0,0.0,1,1789162867.2744098,38.991403131666665,-76.93668451833334,-9.544000000000004,0,1,16.933225,6.932689,72.93159999999999,1,1,1789162867.921406,-0.8945066913448796,0.4456340019123092,0.014630921910962826,-0.03246616088932548,175.92152377246123,-0.15820160082434948,-52.95839125211704,0.0015311773527746254,-0.0007777187146886733,-0.0014515903388836837,-0.044718324737548824,0.7109821367263793,-9.700738339996338
2026-09-11T17:41:07.957,4.8788841279999815,-472.2610168457031,-42503.49151611328,-170013.96606445312,-323.4987965393067,0.0,0.0,0.0,0.0,0.0,0.0,-0.04495429992675781,-368.265625,-16.183547973632812,0.0,0.0,0.0,1,1789162867.2744098,38.991403131666665,-76.93668451833334,-9.544000000000004,0,1,16.933225,6.932689,72.93159999999999,1,1,1789162867.9494061,-0.8944723635396284,0.4457307653739811,0.014364281474123504,-0.032201600592020915,175.96232516248614,-0.17243663880158416,-52.96963205803134,0.0011630874135290213,0.012932715224352784,0.0032012829140079992,0.0291257509803772,0.653417100276947,-9.710348857154846
2026-09-11T17:41:07.991,4.912306591999993,-472.2610168457031,-42503.49151611328,-170013.96606445312,-323.4987965393067,0.0,0.0,0.0,0.0,0.0,0.0,-0.04495429992675781,-368.265625,-16.183547973632812,0.0,0.0,0.0,1,1789162867.2744098,38.991403131666665,-76.93668451833334,-9.544000000000004,0,1,16.933225,6.932689,72.93159999999999,1,1,1789162867.9814062,-0.8944723372929961,0.4457728362335929,0.013740717690402445,-0.031890578094724606,176.02613298085055,-0.22061927090485073,-52.97237546466217,0.0009196139828758122,0.023952549588519778,0.00020053833105414847,0.07433440822601318,0.6249778148078918,-9.694854349899293
2026-09-11T17:41:08.024,4.945726783999987,-472.2610168457031,-42503.49151611328,-170013.96606445312,-323.4987965393067,0.0,0.0,0.0,0.0,0.0,0.0,-0.04495429992675781,-368.265625,-16.183547973632812,0.0,0.0,0.0,1,1789162867.2744098,38.991403131666665,-76.93668451833334,-9.544000000000004,0,1,16.933225,6.932689,72.93159999999999,1,1,1789162868.0214062,-0.8944905056483224,0.4457590060167208,0.013154967444570988,-0.031821230201324935,176.0631885614151,-0.2770383732633776,-52.96815936862232,0.001952325301280857,0.022223975497344596,0.0001090830782496456,0.038736268138885505,0.6769530606651306,-9.703386135540008
2026-09-11T17:41:08.057,4.979147296000008,-472.2610168457031,-42503.49151611328,-170013.96606445312,-323.4987965393067,0.0,0.0,0.0,0.0,0.0,0.0,-0.04495429992675781,-368.265625,-16.183547973632812,0.0,0.0,0.0,1,1789162867.2744098,38.991403131666665,-76.93668451833334,-9.544000000000004,0,1,16.933225,6.932689,72.93159999999999,1,1,1789162868.049406,-0.8944819462746522,0.4457694100472381,0.012718915067137113,-0.03209221173996211,176.05766798495586,-0.3356275771633561,-52.967634960303904,0.0013845696956071016,0.018945374497473248,0.002757445685225841,0.13160524517059327,0.6797969892120362,-9.680144374656678
2026-09-11T17:41:08.090,5.012567680000018,-472.2610168457031,-42503.49151611328,-170013.96606445312,-323.4987965393067,0.0,0.0,0.0,0.0,0.0,0.0,-0.04495429992675781,-368.265625,-16.183547973632812,0.0,0.0,0.0,1,1789162868.0657043,38.99140304833333,-76.93668455666666,-9.535000000000004,0,1,16.933225,6.932689,72.93159999999999,1,1,1789162868.081406,-0.8944763878699253,0.4457585295602671,0.01256625561583924,-0.032456341248468495,176.0280934781896,-0.36984361856698844,-52.96552945304018,0.000631285590446349,0.009374512478311944,-0.0001291543646475804,0.05128878034591675,0.7056865456390381,-9.682105704689025
2026-09-11T17:41:08.124,5.045992479999995,-472.2610168457031,-42503.49151611328,-170013.96606445312,-323.4987965393067,0.0,0.0,0.0,0.0,0.0,0.0,-0.04495429992675781,-368.265625,-16.183547973632812,0.0,0.0,0.0,1,1789162868.0657043,38.99140304833333,-76.93668455666666,-9.535000000000004,0,1,16.933225,6.932689,72.93159999999999,1,1,1789162868.121406,-0.8944478063848784,0.44577817771685285,0.012513381486823074,-0.032990198673034564,175.97601073988847,-0.40264872013689124,-52.96768682612841,0.002311164995490891,-0.00178215569921141,-0.0012699015637510742,0.11699333642959595,0.7400098212051391,-9.671318389511107
2026-09-11T17:41:08.157,5.079412128000001,-472.2610168457031,-42503.49151611328,-170013.96606445312,-323.4987965393067,0.0,0.0,0.0,0.0,0.0,0.0,-0.04495429992675781,-368.265625,-16.183547973632812,0.0,0.0,0.0,1,1789162868.0657043,38.99140304833333,-76.93668455666666,-9.535000000000004,0,1,16.933225,6.932689,72.93159999999999,1,1,1789162868.1494062,-0.8944410838427941,0.44576229661000827,0.01267635667978646,-0.03332315165805764,175.93350082631414,-0.4029015588963972,-52.966242325992006,8.866272600131195e-05,-0.004471708076534671,-0.0005796238445873169,0.07413827522277831,0.7434421487617493,-9.690833623332978
2026-09-11T17:41:08.191,5.112838688000011,-472.2610168457031,-42503.49151611328,-170013.96606445312,-323.4987965393067,0.0,0.0,0.0,0.0,0.0,0.0,-0.04495429992675781,-368.265625,-16.183547973632812,0.0,0.0,0.0,1,1789162868.0657043,38.99140304833333,-76.93668455666666,-9.535000000000004,0,1,16.933225,6.932689,72.93159999999999,1,1,1789162868.181406,-0.8944326577149624,0.44574258245717635,0.013033923613792634,-0.033673250995201846,175.87928411431264,-0.3840719471087011,-52.96513662203835,0.00016563174601426188,-0.007392516579747182,-0.0031805134959092666,0.08070873083114624,0.7656051781272888,-9.68612643125534
2026-09-11T17:41:08.224,5.146261760000016,-472.2610168457031,-42503.49151611328,-170013.96606445312,-323.4987965393067,0.0,0.0,0.0,0.0,0.0,0.0,-0.04495429992675781,-368.265625,-16.183547973632812,0.0,0.0,0.0,1,1789162868.0657043,38.99140304833333,-76.93668455666666,-9.535000000000004,0,1,16.933225,6.932689,72.93159999999999,1,1,1789162868.2214062,-0.8944261401095661,0.4457001863023569,0.013468191150470706,-0.03423202661078371,175.7997183435878,-0.36794667589590974,-52.961443125645886,0.0015168656529082718,-0.009773843811168246,-0.0038723620113998193,0.04481639123916626,0.7607999195480346,-9.676417847595216
2026-09-11T17:41:08.257,5.1796792960000175,-472.2610168457031,-42503.49151611328,-170013.96606445312,-323.4987965393067,0.0,0.0,0.0,0.0,0.0,0.0,-0.04495429992675781,-368.265625,-16.183547973632812,0.0,0.0,0.0,1,1789162868.0657043,38.99140304833333,-76.93668455666666,-9.535000000000004,0,1,16.933225,6.932689,72.93159999999999,1,1,1789162868.249406,-0.8944035647290663,0.44577232009395845,0.013629261629290195,-0.03381634612770265,175.83418044516446,-0.33052180598338216,-52.97147281127299,-0.0005222025121967034,-0.014163172347008786,-0.0007763224512870778,0.019319100818634034,0.6759723956489564,-9.682399904193879
2026-09-11T17:41:08.291,5.213103839999974,-472.2610168457031,-42503.49151611328,-170013.96606445312,-323.4987965393067,0.0,0.0,0.0,0.0,0.0,0.0,-0.044769287109375,-366.75,-16.116943359375,0.0,0.0,0.0,1,1789162868.0657043,38.99140304833333,-76.93668455666666,-9.535000000000004,0,1,16.933225,6.932689,72.93159999999999,1,1,1789162868.2814062,-0.8944067205748719,0.44583352116009817,0.01343247824168813,-0.03299481972640252,175.9285794013814,-0.30895155256259693,-52.978631468434884,-0.0010320131867042471,-0.00847950763788925,-0.0007634070148223197,0.05040618183135986,0.6093852410507202,-9.7128985861969
2026-09-11T17:41:08.324,5.246525952000013,-472.2610168457031,-42503.49151611328,-170013.96606445312,-323.4987965393067,0.0,0.0,0.0,0.0,0.0,0.0,-0.044769287109375,-366.75,-16.116943359375,0.0,0.0,0.0,1,1789162868.0657043,38.99140304833333,-76.93668455666666,-9.535000000000004,0,1,16.933225,6.932689,72.93159999999999,1,1,1789162868.3214061,-0.8944232076120479,0.4458537129842387,0.013081112100608756,-0.03241105998506065,176.00646072509582,-0.3151903930735526,-52.97985290879085,0.00226857896174223,0.008585798189335705,-0.0014566517937144676,0.05079844783782959,0.6660676789855956,-9.703484202041626
2026-09-11T17:41:08.358,5.279943488000015,-472.2610168457031,-42503.49151611328,-170013.96606445312,-323.4987965393067,0.0,0.0,0.0,0.0,0.0,0.0,-0.044769287109375,-366.75,-16.116943359375,0.0,0.0,0.0,1,1789162868.0657043,38.99140304833333,-76.93668455666666,-9.535000000000004,0,1,16.933225,6.932689,72.93159999999999,1,1,1789162868.349406,-0.894430032959196,0.4458476127173944,0.013292830297572738,-0.03221991678281673,176.0152516851993,-0.28369162450266816,-52.9799977504518,-0.0010168288222118964,0.009648005572099454,0.0005345943498858631,-0.030204482498168945,0.6771491936683655,-9.68612643125534
2026-09-11T17:41:08.391,5.313361983999982,-472.2610168457031,-42503.49151611328,-170013.96606445312,-323.4987965393067,0.0,0.0,0.0,0.0,0.0,0.0,-0.044769287109375,-366.75,-16.116943359375,0.0,0.0,0.0,1,1789162868.0657043,38.99140304833333,-76.93668455666666,-9.535000000000004,0,1,16.933225,6.932689,72.93159999999999,1,1,1789162868.381406,-0.8944131551867344,0.44589989768745036,0.012923515413606444,-0.032114978134606495,176.04492013457516,-0.316400736136676,-52.985170600631164,-0.001385965959008697,0.011359824502455491,0.0010183996185386913,0.11758173543930055,0.6546919647979736,-9.683380569210053
2026-09-11T17:41:08.425,5.346786559999998,-472.2610168457031,-42503.49151611328,-170013.96606445312,-323.4987965393067,0.0,0.0,0.0,0.0,0.0,0.0,-0.044769287109375,-366.75,-16.116943359375,0.0,0.0,0.0,1,1789162868.0657043,38.99140304833333,-76.93668455666666,-9.535000000000004,0,1,16.933225,6.932689,72.93159999999999,1,1,1789162868.421406,-0.894398075426471,0.44590992983222555,0.01252910478751192,-0.032549019703642885,176.0205438758534,-0.3790629202007832,-52.98472714182256,0.0018638371082047446,0.016702102809884937,-0.0010166542892866971,0.05109264734268189,0.7329490330886841,-9.67886951013565
2026-09-11T17:41:08.458,5.380207455999994,-472.2610168457031,-42503.49151611328,-170013.96606445312,-323.4987965393067,0.0,0.0,0.0,0.0,0.0,0.0,-0.044769287109375,-366.75,-16.116943359375,0.0,0.0,0.0,1,1789162868.0657043,38.99140304833333,-76.93668455666666,-9.535000000000004,0,1,16.933225,6.932689,72.93159999999999,1,1,1789162868.4494061,-0.8943798841392716,0.44591607196469246,0.012610006681931135,-0.032931251753978055,175.97718266875194,-0.39035207371779146,-52.98574800813008,-0.0007579964941411373,0.009743824148033943,-0.001171814059788993,0.07786480228424071,0.7486396733474732,-9.683282502708435
2026-09-11T17:41:08.492,5.413629984000011,-472.2610168457031,-42503.49151611328,-170013.96606445312,-323.4987965393067,0.0,0.0,0.0,0.0,0.0,0.0,-0.044769287109375,-366.75,-16.116943359375,0.0,0.0,0.0,1,1789162868.0657043,38.99140304833333,-76.93668455666666,-9.535000000000004,0,1,16.933225,6.932689,72.93159999999999,1,1,1789162868.489406,-0.8943642784095416,0.4459003237967159,0.012584379412218955,-0.033571895057824104,175.9127356617247,-0.42567711895680693,-52.9834500543657,0.0009574876276440892,0.009038711130228234,-6.876597252857659e-05,0.08316039337158203,0.7449131462860107,-9.668278327960968
2026-09-11T17:41:08.525,5.4470500159999915,-472.2610168457031,-42503.49151611328,-170013.96606445312,-323.4987965393067,0.0,0.0,0.0,0.0,0.0,0.0,-0.044769287109375,-366.75,-16.116943359375,0.0,0.0,0.0,1,1789162868.0657043,38.99140304833333,-76.93668455666666,-9.535000000000004,0,1,16.933225,6.932689,72.93159999999999,1,1,1789162868.5214062,-0.8943367883548115,0.4459396805612847,0.012328401881192741,-0.033875076430264384,175.89472437895145,-0.4675957513223611,-52.98732587055423,-0.00010314895879286488,0.0009161233243718236,-0.002541199390903744,0.10738281927108764,0.726574710483551,-9.654941283740998
2026-09-11T17:41:08.558,5.480467808000014,-472.2610168457031,-42503.49151611328,-170013.96606445312,-323.4987965393067,0.0,0.0,0.0,0.0,0.0,0.0,-0.044769287109375,-366.75,-16.116943359375,0.0,0.0,0.0,1,1789162868.0657043,38.99140304833333,-76.93668455666666,-9.535000000000004,0,1,16.933225,6.932689,72.93159999999999,1,1,1789162868.549406,-0.8943398245367444,0.4459370231596556,0.012323510831966655,-0.033831652396302356,175.89942976741108,-0.4658633473234817,-52.98697906909788,-0.0003618067539384245,-0.007607541143592883,-0.0019346974758357143,0.06550842308044434,0.6955856959724427,-9.69799247795105
2026-09-11T17:41:08.592,5.5138910719999785,-472.2610168457031,-42503.49151611328,-170013.96606445312,-323.4987965393067,0.0,0.0,0.0,0.0,0.0,0.0,-0.044769287109375,-366.75,-16.116943359375,0.0,0.0,0.0,1,1789162868.0657043,38.99140304833333,-76.93668455666666,-9.535000000000004,0,1,16.933225,6.932689,72.93159999999999,1,1,1789162868.589406,-0.8943204176748812,0.44600928863485323,0.012488979470395662,-0.033327621773028115,175.94273428938706,-0.42345169872929866,-52.99706615446934,0.0005035274892003641,-0.0038545596530294764,0.0013320352851220723,0.08286619386672973,0.6861713118171693,-9.70407260105133
2026-09-11T17:41:08.625,5.547304896000014,-472.2610168457031,-42503.49151611328,-170013.96606445312,-323.4987965393067,0.0,0.0,0.0,0.0,0.0,0.0,-0.044769287109375,-366.75,-16.116943359375,0.0,0.0,0.0,1,1789162868.0657043,38.99140304833333,-76.93668455666666,-9.535000000000004,0,1,16.933225,6.932689,72.93159999999999,1,1,1789162868.621406,-0.8943468952831302,0.4459758556355174,0.012586751940295493,-0.0330263646680587,175.96863666168133,-0.3978695277403133,-52.99327683501319,0.0003967133389783111,-0.001709200936478047,-0.00027995081201989046,0.06217416202545166,0.6513577037429811,-9.702797736530304
2026-09-11T17:41:08.658,5.580722368000011,-472.2610168457031,-42503.49151611328,-170013.96606445312,-323.4987965393067,0.0,0.0,0.0,0.0,0.0,0.0,-0.044769287109375,-366.75,-16.116943359375,0.0,0.0,0.0,1,1789162868.0657043,38.99140304833333,-76.93668455666666,-9.535000000000004,0,1,16.933225,6.932689,72.93159999999999,1,1,1789162868.6494062,-0.8943606013625952,0.4459674115018685,0.012501037325644237,-0.03280101636296283,175.99614202338282,-0.3950860756672491,-52.991901959659955,0.0007093018080104956,-0.0024048891763229865,-0.0020629791758572974,0.07325567670822143,0.6697942060470581,-9.680242441158295
2026-09-11T17:41:08.693,5.614150144000007,-472.2610168457031,-42503.49151611328,-170013.96606445312,-323.4987965393067,0.0,0.0,0.0,0.0,0.0,0.0,-0.044769287109375,-366.75,-16.116943359375,0.0,0.0,0.0,1,1789162868.0657043,38.99140304833333,-76.93668455666666,-9.535000000000004,0,1,16.933225,6.932689,72.93159999999999,1,1,1789162868.6894062,-0.8943569094778713,0.4459324417566203,0.012500605930571567,-0.03337230452842384,175.9375178206029,-0.42419775787777464,-52.98726757845549,0.0007049384848805098,0.006114761034362134,-0.0022750366799746085,0.10699055326461791,0.7627612495803833,-9.672691320533753
2026-09-11T17:41:08.725,5.647562751999999,-472.2610168457031,-42503.49151611328,-170013.96606445312,-323.4987965393067,0.0,0.0,0.0,0.0,0.0,0.0,-0.04573249816894531,-374.640625,-16.463699340820312,-0.0457763709127903,-16.479493528604507,-493.2118297562555,1,1789162868.0657043,38.99140304833333,-76.93668455666666,-9.535000000000004,0,1,16.933225,6.932689,72.93159999999999,1,1,1789162868.7214062,-0.8943586816657109,0.44588223789647974,0.012694183193589512,-0.033918080291286706,175.87158350901967,-0.43205055171697626,-52.9814976410155,0.000975115453089232,0.007360577054435686,-0.005410171615332022,0.06354709304809569,0.7647225796127318,-9.679359842643738
2026-09-11T17:41:08.759,5.680980384000009,-472.2610168457031,-42503.49151611328,-170013.96606445312,-323.4987965393067,0.0,0.0,0.0,0.0,0.0,0.0,-0.04800605773925781,-393.265625,-17.282180786132812,-0.0610351637005806,-21.972658932209015,-164.37925355102703,1,1789162868.0657043,38.99140304833333,-76.93668455666666,-9.535000000000004,0,1,16.933225,6.932689,72.93159999999999,1,1,1789162868.749406,-0.8943701402929886,0.44585070561727086,0.012398896831271454,-0.03413894858148371,175.86399149645345,-0.473460034284455,-52.97615157956059,0.0012039281180256886,0.004980297020565819,-0.005377533958319729,0.1502378804779053,0.7019600185775757,-9.674750717067718
2026-09-11T17:41:08.792,5.7144011519999935,-472.2610168457031,-42503.49151611328,-170013.96606445312,-323.4987965393067,0.0,0.0,0.0,0.0,0.0,0.0,-0.0501556396484375,-410.875,-18.0560302734375,-0.0610351637005806,-21.972658932209015,0.0,1,1789162868.0657043,38.99140304833333,-76.93668455666666,-9.535000000000004,0,1,16.933225,6.932689,72.93159999999999,1,1,1789162868.789406,-0.8944089365120348,0.4457987843148923,0.012231475139405128,-0.033859846524891865,175.90116749506083,-0.47610335476927657,-52.968897826287076,0.00034348079679248405,0.00106185831691335,-0.006939429105929454,0.01686743827819824,0.6906823708915711,-9.683772835216521
2026-09-11T17:41:08.826,5.747849728000006,-472.2610168457031,-42503.49151611328,-170013.96606445312,-323.4987965393067,0.0,0.0,0.0,0.0,0.0,0.0,-0.05285453796386719,-432.984375,-19.027633666992188,-0.1068115308880806,-38.452151119709015,-492.6814279775038,1,1789162868.0657043,38.99140304833333,-76.93668455666666,-9.535000000000004,0,1,16.933225,6.932689,72.93159999999999,1,1,1789162868.8214061,-0.8944246733443206,0.44579871448514324,0.011892506576741771,-0.03356453729192733,175.94880024587798,-0.4957380091560381,-52.967589417697305,0.00011152653920243765,0.0028897416425270116,-0.005732010329399777,0.13925443229675294,0.6657734794807435,-9.674260384559632
2026-09-11T17:41:08.859,5.781267936000006,-472.2610168457031,-42503.49151611328,-170013.96606445312,-323.4987965393067,0.0,0.0,0.0,0.0,0.0,0.0,-0.05766105651855469,-472.359375,-20.757980346679688,-0.1831054836511612,-65.91797411441803,-821.8819810657891,1,1789162868.0657043,38.99140304833333,-76.93668455666666,-9.535000000000004,0,1,16.933225,6.932689,72.93159999999999,1,1,1789162868.849406,-0.8944550741130819,0.4457548988749499,0.01138099679851518,-0.03351363057348851,175.98013586757185,-0.5453580209014173,-52.959932272589896,0.002396860661763813,0.005452932182005883,-0.006752504343040862,0.11601267141342163,0.6605759548950195,-9.696031147918701
2026-09-11T17:41:08.893,5.814690527999971,-472.2610168457031,-42503.49151611328,-170013.96606445312,-323.4987965393067,0.0,0.0,0.0,0.0,0.0,0.0,-0.06417655944824219,-525.734375,-23.103561401367188,-0.1678466945886612,-60.42481005191803,164.35481911473823,1,1789162868.0657043,38.99140304833333,-76.93668455666666,-9.535000000000004,0,1,16.933225,6.932689,72.93159999999999,1,1,1789162868.8894062,-0.8945687220813274,0.44556403343910267,0.011017630054458636,-0.03313767353394546,176.03716987394748,-0.5625307775464172,-52.9342102736627,-0.00033964107243809655,0.009459510012884066,-0.010565874225723273,0.1441577573776245,0.6136021006202698,-9.687499362277984
2026-09-11T17:41:08.926,5.84821750399999,-472.2610168457031,-42503.49151611328,-170013.96606445312,-323.4987965393067,0.0,0.0,0.0,0.0,0.0,0.0,-0.0677947998046875,-555.375,-24.4061279296875,-0.1373291164636612,-49.43848192691803,327.6862227298357,1,1789162868.0657043,38.99140304833333,-76.93668455666666,-9.535000000000004,0,1,16.933225,6.932689,72.93159999999999,1,1,1789162868.921406,-0.8947150970252151,0.44528225071279687,0.011115022930630096,-0.03294037978769136,176.05227901388744,-0.5412225647059944,-52.89861557253039,0.0007005751617505239,0.00039968039870670147,-0.013843428028043425,0.011669913692474367,0.6775414596748351,-9.712310187187196
2026-09-11T17:41:08.959,5.881638592000002,-472.2610168457031,-42503.49151611328,-170013.96606445312,-323.4987965393067,0.0,0.0,0.0,0.0,0.0,0.0,-0.07069587707519531,-579.140625,-25.450515747070312,-0.0915527492761612,-32.95898973941803,493.0866459971132,1,1789162868.0657043,38.99140304833333,-76.93668455666666,-9.535000000000004,0,1,16.933225,6.932689,72.93159999999999,1,1,1789162868.9494061,-0.8947906653805314,0.4450935612357114,0.012100907338459907,-0.03309010329333844,175.98649337750223,-0.4469589382738696,-52.87837732510093,0.0033368949968879584,-0.002485523387765125,-0.00653451271946677,0.012552512207031252,0.776098293800354,-9.67622171459198
2026-09-11T17:41:08.994,5.915060159999996,-472.2610168457031,-42503.49151611328,-170013.96606445312,-323.4987965393067,0.0,0.0,0.0,0.0,0.0,0.0,-0.07353973388671875,-602.4375,-26.47430419921875,-0.0762939602136612,-27.46582567691803,164.3598547650708,1,1789162868.0657043,38.99140304833333,-76.93668455666666,-9.535000000000004,0,1,16.933225,6.932689,72.93159999999999,1,1,1789162868.989406,-0.8948449956012782,0.44489234488045404,0.012329365122300245,-0.03422312185936466,175.85839000753177,-0.4804575855681704,-52.85323284442634,-0.0009505063106361119,-0.005013109210503313,-0.009317614744696927,0.09483030706405639,0.7848262124443055,-9.685243832740785
2026-09-11T17:41:09.026,5.9484736,-472.2610168457031,-42503.49151611328,-170013.96606445312,-323.4987965393067,0.0,0.0,0.0,0.0,0.0,0.0,-0.07667922973632812,-628.15625,-27.604522705078125,-0.1068115383386612,-38.45215380191803,-328.7996723773044,1,1789162868.0657043,38.99140304833333,-76.93668455666666,-9.535000000000004,0,1,16.933225,6.932689,72.93159999999999,1,1,1789162869.0214062,-0.894888454300466,0.44479043258428724,0.012891833014747292,-0.03420418224026234,175.8315996603179,-0.4213501415850654,-52.84258876731799,0.0009546951008408982,0.00168668618912732,-0.005553288613995558,0.023339827384948733,0.7225539839172362,-9.70142480550766
2026-09-11T17:41:09.060,5.981894624000006,-472.2610168457031,-42503.49151611328,-170013.96606445312,-323.4987965393067,0.0,0.0,0.0,0.0,0.0,0.0,-0.07972335815429688,-653.09375,-28.700408935546875,-0.0915527492761612,-32.95898973941803,164.36253007983817,1,1789162868.0657043,38.99140304833333,-76.93668455666666,-9.535000000000004,0,1,16.933225,6.932689,72.93159999999999,1,1,1789162869.049406,-0.8949100659544824,0.444757294768712,0.012656216463430804,-0.034157616840047554,175.84838030225757,-0.4429779950207796,-52.83736092460324,0.0029215066349133085,0.00047577675409365424,-0.005770931171719251,0.12170052850723266,0.7032348830986023,-9.67543718257904
2026-09-11T17:41:09.093,6.01531926399997,-472.2610168457031,-42503.49151611328,-170013.96606445312,-323.4987965393067,0.0,0.0,0.0,0.0,0.0,0.0,-0.08458900451660156,-692.953125,-30.452041625976562,-0.2136230617761612,-76.90430223941803,-1314.7579899154334,1,1789162869.0663078,38.991402916666665,-76.936684595,-9.532000000000004,0,1,16.924996,6.932689,72.93159999999999,1,1,1789162869.089406,-0.894957706034501,0.4446818375731249,0.012052001821797213,-0.03411036490775372,175.8839966823244,-0.5021727499053408,-52.82519214274879,0.0003251548396465436,0.0008674286382411818,-0.010487508942308727,0.12032759748458861,0.686367444820404,-9.691323955841064
2026-09-11T17:41:09.126,6.048731935999967,-472.2610168457031,-42503.49151611328,-170013.96606445312,-323.4987965393067,0.0,0.0,0.0,0.0,0.0,0.0,-0.09617996215820312,-787.90625,-34.624786376953125,-0.5035400986671448,-181.27443552017212,-3123.6691660206893,1,1789162869.0663078,38.991402916666665,-76.936684595,-9.532000000000004,0,1,16.924996,6.932689,72.93159999999999,1,1,1789162869.121406,-0.8950170017494643,0.44461564088318845,0.011125259778984264,-0.033730209846381184,175.9702335460203,-0.5775148211465623,-52.81309696271351,-2.7925268031909274e-06,0.006346191693176581,-0.013629450661748919,0.1530818090248108,0.6143866326332093,-9.67622171459198
2026-09-11T17:41:09.160,6.082150815999967,-472.2610168457031,-42503.49151611328,-170013.96606445312,-323.4987965393067,0.0,0.0,0.0,0.0,0.0,0.0,-0.10442924499511719,-855.484375,-37.59452819824219,0.0762939527630806,27.465822994709015,6246.177565342876,1,1789162869.0663078,38.991402916666665,-76.936684595,-9.532000000000004,0,1,16.924996,6.932689,72.93159999999999,1,1,1789162869.1494062,-0.895159378877571,0.4443657018682742,0.010452005044041179,-0.03345990139251492,176.03212627508825,-0.6316669340232631,-52.77860428836845,0.0033700562526758513,0.011377277794975434,-0.01671955610240488,0.1847572890472412,0.588202876701355,-9.698973142967224
2026-09-11T17:41:09.194,6.115579391999972,-472.2610168457031,-42503.49151611328,-170013.96606445312,-323.4987965393067,0.0,0.0,0.0,0.0,0.0,0.0,-0.10660934448242188,-873.34375,-38.379364013671875,-0.1220703274011612,-43.94531786441803,-2136.2304173266266,1,1789162869.0663078,38.991402916666665,-76.936684595,-9.532000000000004,0,1,16.924996,6.932689,72.93159999999999,1,1,1789162869.1894062,-0.8953717604174772,0.44397947402665916,0.010825349902824048,-0.03277879023698667,176.0828395576569,-0.5569692931007381,-52.730944610005594,0.0013102186694721432,-0.010546152005175736,-0.018261903562392268,-0.06864655113220215,0.7070594766616821,-9.697796344947815
2026-09-11T17:41:09.227,6.148991647999992,-472.2610168457031,-42503.49151611328,-170013.96606445312,-323.4987965393067,0.0,0.0,0.0,0.0,0.0,0.0,-0.10953140258789062,-897.28125,-39.431304931640625,-0.1068115383386612,-38.45215380191803,164.40566187738935,1,1789162869.0663078,38.991402916666665,-76.936684595,-9.532000000000004,0,1,16.924996,6.932689,72.93159999999999,1,1,1789162869.2214062,-0.8954286672103798,0.4438019604484698,0.012265427372167306,-0.03311919581323584,175.9744946682869,-0.4257744421062481,-52.71389387602925,0.0018161896196252994,-0.018478673455489966,-0.011280062955639351,0.04589512275695801,0.825621877117157,-9.670631923999785
2026-09-11T17:41:09.260,6.182411103999982,-472.2610168457031,-42503.49151611328,-170013.96606445312,-323.4987965393067,0.0,0.0,0.0,0.0,0.0,0.0,-0.11358833312988281,-930.515625,-40.89179992675781,-0.1068115383386612,-38.45215380191803,0.0,1,1789162869.0663078,38.991402916666665,-76.936684595,-9.532000000000004,0,1,16.924996,6.932689,72.93159999999999,1,1,1789162869.249406,-0.8954321345381974,0.4437414009348966,0.012277928042173177,-0.03382475448091378,175.90132952894476,-0.4601350470603778,-52.705993748882506,0.0018130480269717096,-0.0017496925751243155,-0.00934449281517764,0.10395049171447754,0.7737446977615356,-9.666611197433472
2026-09-11T17:41:09.294,6.215835232000018,-472.2610168457031,-42503.49151611328,-170013.96606445312,-323.4987965393067,0.0,0.0,0.0,0.0,0.0,0.0,-0.11696052551269531,-958.140625,-42.10578918457031,-0.1068115383386612,-38.45215380191803,0.0,1,1789162869.0663078,38.991402916666665,-76.936684595,-9.532000000000004,0,1,16.924996,6.932689,72.93159999999999,1,1,1789162869.289406,-0.8954993260572603,0.4436121122074898,0.012795255238316554,-0.03354895493436807,175.90329578340533,-0.3924310659298106,-52.69171878174608,0.0013503612422680127,-0.005747194693892128,-0.01051438701278944,0.017553903789520264,0.7003909545516968,-9.702405470523834
2026-09-11T17:41:09.327,6.249248448000003,-472.2610168457031,-42503.49151611328,-170013.96606445312,-323.4987965393067,0.0,0.0,0.0,0.0,0.0,0.0,-0.12084388732910156,-989.953125,-43.50379943847656,-0.1220703274011612,-43.94531786441803,-164.40093831442042,1,1789162869.0663078,38.991402916666665,-76.936684595,-9.532000000000004,0,1,16.924996,6.932689,72.93159999999999,1,1,1789162869.3214061,-0.8955180714434208,0.44359127894918815,0.012334635602466035,-0.03349653300021267,175.93209878080518,-0.4369281931709424,-52.68714253953592,0.00302866985098576,-0.005671971003131172,-0.0053955108496152706,0.17799070043563842,0.6852887133026123,-9.679359842643738
2026-09-11T17:41:09.360,6.282666239999969,-472.2610168457031,-42503.49151611328,-170013.96606445312,-323.4987965393067,0.0,0.0,0.0,0.0,0.0,0.0,-0.1257171630859375,-1029.875,-45.2581787109375,-0.1831054836511612,-65.91797411441803,-657.5137055740337,1,1789162869.0663078,38.991402916666665,-76.936684595,-9.532000000000004,0,1,16.924996,6.932689,72.93159999999999,1,1,1789162869.349406,-0.8955529675029398,0.443526661559895,0.011958545608000205,-0.033555566887692,175.94512225791385,-0.4782279336866673,-52.67731472408073,0.0029028316119169687,-0.0036475636037429497,-0.01094862493068563,0.0985568341255188,0.6927417674255371,-9.672495187530517
2026-09-11T17:41:09.394,6.316089311999974,-472.2610168457031,-42503.49151611328,-170013.96606445312,-323.4987965393067,0.0,0.0,0.0,0.0,0.0,0.0,-0.1352062225341797,-1107.609375,-48.67424011230469,-0.3356933891773224,-120.84962010383606,-1643.5247480964565,1,1789162869.0663078,38.991402916666665,-76.936684595,-9.532000000000004,0,1,16.924996,6.932689,72.93159999999999,1,1,1789162869.3894062,-0.895633663736241,0.4434045045885125,0.01158844934284054,-0.03314352930576711,176.0062153953535,-0.4946961706285999,-52.66033753437165,0.002174505715059735,0.006066589947007091,-0.014360045486633746,0.12375992504119872,0.6340979994583129,-9.68730322927475
2026-09-11T17:41:09.427,6.349502975999997,-472.2610168457031,-42503.49151611328,-170013.96606445312,-323.4987965393067,0.0,0.0,0.0,0.0,0.0,0.0,-0.13913536071777344,-1139.796875,-50.08872985839844,-0.1525879204273224,-54.93165135383606,1972.784808931931,1,1789162869.0663078,38.991402916666665,-76.936684595,-9.532000000000004,0,1,16.924996,6.932689,72.93159999999999,1,1,1789162869.421406,-0.8957804908286886,0.44314655292571464,0.010775873673290531,-0.03289871467622925,176.07251013331424,-0.5645025760608976,-52.6242547978323,0.0036939893618459984,0.00747611785091771,-0.019990826719417848,0.096105171585083,0.6236048837852477,-9.699365408973694
2026-09-11T17:41:09.461,6.382924000000003,-472.2610168457031,-42503.49151611328,-170013.96606445312,-323.4987965393067,0.0,0.0,0.0,0.0,0.0,0.0,-0.14366531372070312,-1176.90625,-51.719512939453125,-0.015258789993822575,-5.493164397776127,1479.2630817072172,1,1789162869.0663078,38.991402916666665,-76.936684595,-9.532000000000004,0,1,16.924996,6.932689,72.93159999999999,1,1,1789162869.4494061,-0.8959028481578165,0.44289684462574097,0.011881046703444913,-0.03254707993822839,176.05239786409405,-0.43209854701986095,-52.59683479262543,0.003252770126941832,-0.006045296930132759,-0.013477083418049814,-0.05678050443649292,0.7253979124641418,-9.665434399414062
2026-09-11T17:41:09.494,6.416347391999977,-472.2610168457031,-42503.49151611328,-170013.96606445312,-323.4987965393067,0.0,0.0,0.0,0.0,0.0,0.0,-0.14566802978515625,-1193.3125,-52.44049072265625,-0.015258789993822575,-5.493164397776127,0.0,1,1789162869.0663078,38.991402916666665,-76.936684595,-9.532000000000004,0,1,16.924996,6.932689,72.93159999999999,1,1,1789162869.489406,-0.8958974957539151,0.4428351839843772,0.013349051047336365,-0.032961792480419555,175.9352015847413,-0.3022091400810343,-52.59493566438256,0.0027612854095802287,-0.011569264012694811,-0.0006822492046045834,0.012552512207031252,0.7723717667388915,-9.668082194957734
2026-09-11T17:41:09.528,6.449767199999997,-472.2610168457031,-42503.49151611328,-170013.96606445312,-323.4987965393067,0.0,0.0,0.0,0.0,0.0,0.0,-0.1459064483642578,-1195.265625,-52.52632141113281,0.0,0.0,164.36852054245705,1,1789162869.0663078,38.991402916666665,-76.936684595,-9.532000000000004,0,1,16.924996,6.932689,72.93159999999999,1,1,1789162869.5214062,-0.895822262795271,0.4429861134058095,0.013580822276111541,-0.03288370533076402,175.93150584859077,-0.2751378975605435,-52.61522439677744,0.0018202038769048862,-0.0070607294889430605,-0.004427027647683617,0.027164420948028564,0.716571927318573,-9.679752108650208
2026-09-11T17:41:09.561,6.483200000000011,-472.2610168457031,-42503.49151611328,-170013.96606445312,-323.4987965393067,0.0,0.0,0.0,0.0,0.0,0.0,-0.14499282836914062,-1187.78125,-52.197418212890625,0.0305175818502903,10.986329466104507,328.60931379064453,1,1789162869.0663078,38.991402916666665,-76.936684595,-9.532000000000004,0,1,16.924996,6.932689,72.93159999999999,1,1,1789162869.549406,-0.8957856770946055,0.44308168750178917,0.013729046469514887,-0.032529251386463585,175.9604367924539,-0.24234266552385403,-52.62813341363754,-0.0005703735995517469,-0.008052600102851437,-0.002662674306842549,0.028929617977142334,0.6791105237007141,-9.70407260105133
2026-09-11T17:41:09.595,6.516621664000013,-472.2610168457031,-42503.49151611328,-170013.96606445312,-323.4987965393067,0.0,0.0,0.0,0.0,0.0,0.0,-0.14351463317871094,-1175.671875,-51.66526794433594,0.0610351637005806,21.972658932209015,328.7188054461852,1,1789162869.0663078,38.991402916666665,-76.936684595,-9.532000000000004,0,1,16.924996,6.932689,72.93159999999999,1,1,1789162869.589406,-0.8956921664589123,0.44331983940808095,0.013584306438789231,-0.0319144097534398,176.03104752744582,-0.22699892558686902,-52.65804440793529,0.0016575391906190147,-0.007868991465541634,0.006658780162208767,0.018730701808929443,0.6474350436782836,-9.707308795604707
