timestamp,time_s,drive_pos_turns,drive_encoder_count,drive_wheel_angle_deg,drive_distance_m,drive_distance_since_start_m,drive_velocity_turns_s,drive_velocity_mps,drive_velocity_mph,drive_acceleration_mps2,drive_iq_A,steer_pos_turns,steer_encoder_count,steer_angle_deg,steer_velocity_turns_s,steer_velocity_deg_s,steer_acceleration_deg_s2,gps_received,gps_ros_stamp_s,gps_latitude_deg,gps_longitude_deg,gps_altitude_m,gps_status,gps_service,gps_cov_x_m2,gps_cov_y_m2,gps_cov_z_m2,gps_covariance_type,imu_received,imu_ros_stamp_s,imu_qx,imu_qy,imu_qz,imu_qw,imu_roll_deg,imu_pitch_deg,imu_yaw_deg,imu_gyro_x_rad_s,imu_gyro_y_rad_s,imu_gyro_z_rad_s,imu_accel_x_mps2,imu_accel_y_mps2,imu_accel_z_mps2
2026-09-11T17:37:54.054,7.616000004873058e-06,0.0,0.0,0.0,0.0,0.0,0.0,0.0,0.0,0.0,0.0,0.0,0.0,0.0,0.0,0.0,0.0,1,1789162674.0460622,38.99142746166667,-76.936662995,-12.653000000000002,0,1,8.526399999999999,6.6564000000000005,59.320804,1,1,1789162674.0433705,-0.8533842088167343,0.520072782429961,-0.02853587242801931,-0.021104433244393667,179.63589426140064,-4.051655545627897,-62.705382170398146,-0.00013700834628155485,0.0001260127719939906,0.0008452629567408538,0.6993122230339051,0.06433162506103515,-9.69073555683136
2026-09-11T17:37:54.089,0.03343785600000615,0.0,0.0,0.0,0.0,0.0,0.0,0.0,0.0,0.0,0.0,0.0,0.0,0.0,0.0,0.0,0.0,1,1789162674.0460622,38.99142746166667,-76.936662995,-12.653000000000002,0,1,8.526399999999999,6.6564000000000005,59.320804,1,1,1789162674.0823705,-0.8533720834469274,0.5200924759710239,-0.02855328600813899,-0.021085859952056564,179.63884924343358,-4.0522609617891145,-62.708136592350854,0.0012103858362580674,0.00014782938764391971,0.0010396926354130222,0.7009793535614014,0.06482195756912232,-9.688970359802246
2026-09-11T17:37:54.122,0.0668546240000012,0.0,0.0,0.0,0.0,0.0,0.0,0.0,0.0,0.0,0.0,0.0,0.0,0.0,0.0,0.0,0.0,1,1789162674.0460622,38.99142746166667,-76.936662995,-12.653000000000002,0,1,8.526399999999999,6.6564000000000005,59.320804,1,1,1789162674.1113706,-0.8533900534928989,0.5200641022347005,-0.028513782614688014,-0.021111853713125264,179.63380515892788,-4.049931389211761,-62.704115120249995,-0.0011657054074070128,0.0011859512267301468,-0.0008890707209659115,0.7007832205581664,0.06492002407073974,-9.691716221847535
2026-09-11T17:37:54.155,0.10025593599999638,0.0,0.0,0.0,0.0,0.0,0.0,0.0,0.0,0.0,0.0,0.0,0.0,0.0,0.0,0.0,0.0,1,1789162674.0460622,38.99142746166667,-76.936662995,-12.653000000000002,0,1,8.526399999999999,6.6564000000000005,59.320804,1,1,1789162674.1513705,-0.8534017963503807,0.5200438786903983,-0.028539713645295076,-0.021100307287672895,179.63639080822236,-4.051773216059379,-62.70151981290173,0.0016203636775515356,0.0013543754995475998,-0.00019233528356977513,0.6997044890403747,0.0675678196144104,-9.69416788438797
2026-09-11T17:37:54.189,0.13365814400000886,0.0,0.0,0.0,0.0,0.0,0.0,0.0,0.0,0.0,0.0,0.0,0.0,0.0,0.0,0.0,0.0,1,1789162674.0460622,38.99142746166667,-76.936662995,-12.653000000000002,0,1,8.526399999999999,6.6564000000000005,59.320804,1,1,1789162674.1833706,-0.8533862757927736,0.5200678813299516,-0.028586974762389094,-0.02107244578710157,179.64206094889474,-4.05474922602345,-62.70498740031212,0.0004742059577668593,0.0006096435077216194,0.002689028778547664,0.6998025555419922,0.06511615707397461,-9.69073555683136
2026-09-11T17:37:54.222,0.16706374399998936,0.0,0.0,0.0,0.0,0.0,0.0,0.0,0.0,0.0,0.0,0.0,0.0,0.0,0.0,0.0,0.0,1,1789162674.0460622,38.99142746166667,-76.936662995,-12.653000000000002,0,1,8.526399999999999,6.6564000000000005,59.320804,1,1,1789162674.2103705,-0.853378631430119,0.5200817838606513,-0.028572732409564646,-0.021058216387704495,179.6426701650689,-4.0525113680207125,-62.70683335349363,-0.001281071670963838,-0.0008532914713000278,-4.118977034706618e-05,0.6948011639595031,0.06560648958206176,-9.690147157821656
2026-09-11T17:37:54.256,0.20046883199998433,0.0,0.0,0.0,0.0,0.0,0.0,0.0,0.0,0.0,0.0,0.0,0.0,0.0,0.0,0.0,0.0,1,1789162674.0460622,38.99142746166667,-76.936662995,-12.653000000000002,0,1,8.526399999999999,6.6564000000000005,59.320804,1,1,1789162674.2503705,-0.8533576555908805,0.520116199264207,-0.028610928864593432,-0.0210063242119327,179.65020311268623,-4.053169700273781,-62.71171925735381,0.001065872574192937,0.000762708883121522,0.0012014846570728964,0.7002928880500794,0.06393935905456542,-9.694658216896057
2026-09-11T17:37:54.290,0.23388246400000412,0.0,0.0,0.0,0.0,0.0,0.0,0.0,0.0,0.0,0.0,0.0,0.0,0.0,0.0,0.0,0.0,1,1789162674.0460622,38.99142746166667,-76.936662995,-12.653000000000002,0,1,8.526399999999999,6.6564000000000005,59.320804,1,1,1789162674.2833705,-0.8533364797272232,0.5201494920932164,-0.02864108192376693,-0.021001111117164618,179.65267535856907,-4.055824856121389,-62.71632211024399,0.0008033750546929899,0.00030647981665020424,0.003340734721242346,0.7025484175872803,0.062468361530303954,-9.693677551879883
2026-09-11T17:37:54.323,0.2673194879999983,0.0,0.0,0.0,0.0,0.0,0.0,0.0,0.0,0.0,0.0,0.0,0.0,0.0,0.0,0.0,0.0,1,1789162674.0460622,38.99142746166667,-76.936662995,-12.653000000000002,0,1,8.526399999999999,6.6564000000000005,59.320804,1,1,1789162674.3113706,-0.8533255930869841,0.5201679988549018,-0.02862685495674412,-0.021004483457566378,179.6515822636671,-4.054640544384418,-62.71874869666591,-0.0013168509206297216,-0.0015664330036649107,-0.0006855653301833727,0.7012735530662537,0.0654103565788269,-9.694952416400909
2026-09-11T17:37:54.357,0.3007419839999841,0.0,0.0,0.0,0.0,0.0,0.0,0.0,0.0,0.0,0.0,0.0,0.0,0.0,0.0,0.0,0.0,1,1789162674.0460622,38.99142746166667,-76.936662995,-12.653000000000002,0,1,8.526399999999999,6.6564000000000005,59.320804,1,1,1789162674.3513706,-0.8533446460836729,0.5201406267651583,-0.028529332192933177,-0.021040926626573975,179.64204947706148,-4.047254488303766,-62.71461730722418,0.0006258750697651666,0.0025214771703562077,0.00046041785667610415,0.6959779619789124,0.06658715459823608,-9.692893019866943
2026-09-11T17:37:54.391,0.3341661439999939,0.0,0.0,0.0,0.0,0.0,0.0,0.0,0.0,0.0,0.0,0.0,0.0,0.0,0.0,0.0,0.0,1,1789162674.0460622,38.99142746166667,-76.936662995,-12.653000000000002,0,1,8.526399999999999,6.6564000000000005,59.320804,1,1,1789162674.3833706,-0.8533395988757564,0.5201431415929616,-0.0286684185728495,-0.020994356882247368,179.65494159913553,-4.058096050390019,-62.7155875873048,0.0009543460349904993,0.0030246555937061734,-0.0018751817483427075,0.7032348830986023,0.06364515954971313,-9.692206554355622
2026-09-11T17:37:54.423,0.3675857599999972,0.0,0.0,0.0,0.0,0.0,0.0,0.0,0.0,0.0,0.0,0.0,0.0,0.0,0.0,0.0,0.0,1,1789162674.0460622,38.99142746166667,-76.936662995,-12.653000000000002,0,1,8.526399999999999,6.6564000000000005,59.320804,1,1,1789162674.4113705,-0.8533543045719981,0.5201222225644029,-0.028601718637308645,-0.021005859994281714,179.64972657683862,-4.052242583938966,-62.712494954820485,-0.0014480996803796953,-0.0027146851185519804,-0.0015107570005262916,0.6957818289756775,0.06335096004486084,-9.688676160297394
2026-09-11T17:37:54.457,0.40099964799998133,0.0,0.0,0.0,0.0,0.0,0.0,0.0,0.0,0.0,0.0,0.0,0.0,0.0,0.0,0.0,0.0,1,1789162674.0460622,38.99142746166667,-76.936662995,-12.653000000000002,0,1,8.526399999999999,6.6564000000000005,59.320804,1,1,1789162674.4513705,-0.853379761524621,0.5200826013580493,-0.02853174772362847,-0.021047796955045432,179.64124492320158,-4.047876600833437,-62.70681006563138,0.0012109094350336658,0.0020448277516365563,-0.0003352777493081107,0.6990180235290527,0.0641354920578003,-9.693677551879883
2026-09-11T17:37:54.490,0.4344225920000042,0.0,0.0,0.0,0.0,0.0,0.0,0.0,0.0,0.0,0.0,0.0,0.0,0.0,0.0,0.0,0.0,1,1789162674.0460622,38.99142746166667,-76.936662995,-12.653000000000002,0,1,8.526399999999999,6.6564000000000005,59.320804,1,1,1789162674.4833705,-0.8533743502901446,0.5200879745949762,-0.028580662606578072,-0.021068048640963438,179.64221013386626,-4.053877175218353,-62.70767442854613,-0.000180990643431812,0.002935469268929263,0.0012337732482347915,0.7020580850791931,0.06492002407073974,-9.691912354850768
2026-09-11T17:37:54.524,0.46784364799998457,0.0,0.0,0.0,0.0,0.0,0.0,0.0,0.0,0.0,0.0,0.0,0.0,0.0,0.0,0.0,0.0,1,1789162674.0460622,38.99142746166667,-76.936662995,-12.653000000000002,0,1,8.526399999999999,6.6564000000000005,59.320804,1,1,1789162674.5113704,-0.853375469469028,0.5200870880257547,-0.028564373855425394,-0.021066692280820212,179.6413650066202,-4.052200801069903,-62.707496179824375,0.00045884706034930923,-0.002219884275611588,-0.001136034810123109,0.6988218905258179,0.06433162506103515,-9.690931689834594
2026-09-11T17:37:54.557,0.5012735679999878,0.0,0.0,0.0,0.0,0.0,0.0,0.0,0.0,0.0,0.0,0.0,0.0,0.0,0.0,0.0,0.0,1,1789162674.0460622,38.99142746166667,-76.936662995,-12.653000000000002,0,1,8.526399999999999,6.6564000000000005,59.320804,1,1,1789162674.5513706,-0.8533967718273261,0.5200526578320643,-0.028560602297578886,-0.021058844054316645,179.64174495027805,-4.05134874951998,-62.70286995655821,-0.00028204520712228365,0.0011213740444063567,-0.00045413467136892456,0.7014696860694885,0.06492002407073974,-9.695148549404145
2026-09-11T17:37:54.590,0.5346970559999988,0.0,0.0,0.0,0.0,0.0,0.0,0.0,0.0,0.0,0.0,0.0,0.0,0.0,0.0,0.0,0.0,1,1789162674.0460622,38.99142746166667,-76.936662995,-12.653000000000002,0,1,8.526399999999999,6.6564000000000005,59.320804,1,1,1789162674.5823705,-0.8534001276222378,0.520047043725853,-0.028598773353021936,-0.02100963229215574,179.6488232216144,-4.05214834754885,-62.70236791636942,-0.0006028367236388415,-0.0004576253298729132,-0.0027511624999186617,0.6964682944869995,0.06825428512573242,-9.692206554355622
2026-09-11T17:37:54.623,0.5681172799999956,0.0,0.0,0.0,0.0,0.0,0.0,0.0,0.0,0.0,0.0,0.0,0.0,0.0,0.0,0.0,0.0,1,1789162674.0460622,38.99142746166667,-76.936662995,-12.653000000000002,0,1,8.526399999999999,6.6564000000000005,59.320804,1,1,1789162674.6113706,-0.8534042640526301,0.5200387196436403,-0.028613919195849612,-0.02102702538272046,179.64798442823354,-4.054665806258057,-62.70126862669747,-9.128071987930345e-05,-0.0036004397139391023,-0.0010442304914682074,0.7030387500953674,0.06325289354324341,-9.699463475475312
2026-09-11T17:37:54.659,0.6015367359999857,0.0,0.0,0.0,0.0,0.0,0.0,0.0,0.0,0.0,0.0,0.0,0.0,0.0,0.0,0.0,0.0,1,1789162674.0460622,38.99142746166667,-76.936662995,-12.653000000000002,0,1,8.526399999999999,6.6564000000000005,59.320804,1,1,1789162674.6513705,-0.853413435358685,0.5200229159308303,-0.028640292432689306,-0.021009733588366337,179.65118052582855,-4.0562103878919045,-62.69928238668603,-0.0012133528959864578,-0.0003899065548955332,-0.0012826424672906327,0.6982334915161132,0.06433162506103515,-9.68995102481842
2026-09-11T17:37:54.691,0.6349466879999852,0.0,0.0,0.0,0.0,0.0,0.0,0.0,0.0,0.0,0.0,0.0,0.0,0.0,0.0,0.0,0.0,1,1789162674.0460622,38.99142746166667,-76.936662995,-12.653000000000002,0,1,8.526399999999999,6.6564000000000005,59.320804,1,1,1789162674.6833706,-0.8534404262708397,0.5199822448657949,-0.028558147115253382,-0.021031786997766606,179.6439152568429,-4.049464678002474,-62.69345326955754,-0.0016083209057127746,-0.002637367032688631,-0.0031070351344003057,0.6969586269950866,0.06776395261764527,-9.69112782283783
2026-09-11T17:37:54.726,0.6683706560000076,0.0,0.0,0.0,0.0,0.0,0.0,0.0,0.0,0.0,0.0,0.0,0.0,0.0,0.0,0.0,0.0,1,1789162674.0460622,38.99142746166667,-76.936662995,-12.653000000000002,0,1,8.526399999999999,6.6564000000000005,59.320804,1,1,1789162674.7223706,-0.853463839991652,0.5199431673834286,-0.028541983563426847,-0.021069686572350373,179.6390487965116,-4.050126079049803,-62.688055782609155,0.0019493582415524666,0.0029293606165472826,-0.0010688396339213276,0.7037252156066895,0.06423355855941773,-9.696717613430023
2026-09-11T17:37:54.757,0.7017810239999847,0.0,0.0,0.0,0.0,0.0,0.0,0.0,0.0,0.0,0.0,0.0,0.0,0.0,0.0,0.0,0.0,1,1789162674.0460622,38.99142746166667,-76.936662995,-12.653000000000002,0,1,8.526399999999999,6.6564000000000005,59.320804,1,1,1789162674.7513704,-0.853487612156358,0.5199059831860395,-0.028481834440983216,-0.02110567814291037,179.63174955408505,-4.046366201909311,-62.682750446118085,-0.0012280136617032105,-0.0012864821916450202,-0.0015573572915545404,0.7040194151115418,0.06590068908691407,-9.69720794593811
2026-09-11T17:37:54.791,0.7351983679999989,0.0,0.0,0.0,0.0,0.0,0.0,0.0,0.0,0.0,0.0,0.0,0.0,0.0,0.0,0.0,0.0,1,1789162674.0460622,38.99142746166667,-76.936662995,-12.653000000000002,0,1,8.526399999999999,6.6564000000000005,59.320804,1,1,1789162674.7833705,-0.8535024060355525,0.5198830099857112,-0.028471370174082262,-0.02108743465028485,179.63280329257327,-4.044243344968464,-62.67966233941122,-0.0017125170620568362,-0.002500184153481877,-0.00216385920662257,0.6972528264999389,0.06678328760147095,-9.694658216896057
2026-09-11T17:37:54.824,0.7686208000000079,0.0,0.0,0.0,0.0,0.0,0.0,0.0,0.0,0.0,0.0,0.0,0.0,0.0,0.0,0.0,0.0,1,1789162674.0460622,38.99142746166667,-76.936662995,-12.653000000000002,0,1,8.526399999999999,6.6564000000000005,59.320804,1,1,1789162674.8113706,-0.85349522545369,0.5198909169012179,-0.02859222319546425,-0.021019501043231716,179.64672195099962,-4.052031132184365,-62.68133235464824,0.0012594295882391083,-0.000290248254606657,-0.0013521065715200072,0.6970566934967042,0.06531229007720947,-9.692893019866943
2026-09-11T17:37:54.858,0.8020309439999949,0.0,0.0,0.0,0.0,0.0,0.0,0.0,0.0,0.0,0.0,0.0,0.0,0.0,0.0,0.0,0.0,1,1789162674.0460622,38.99142746166667,-76.936662995,-12.653000000000002,0,1,8.526399999999999,6.6564000000000005,59.320804,1,1,1789162674.8513706,-0.8535093477217525,0.5198667094444835,-0.02859988988286179,-0.02103435431958531,179.64560910552365,-4.053657847733653,-62.67807499586397,-0.0020050342446910857,-0.002846108411227153,-0.0022774801409274005,0.6995083560371399,0.0675678196144104,-9.695638881912231
2026-09-11T17:37:54.891,0.8354414080000083,0.0,0.0,0.0,0.0,0.0,0.0,0.0,0.0,0.0,0.0,0.0,0.0,0.0,0.0,0.0,0.0,1,1789162674.0460622,38.99142746166667,-76.936662995,-12.653000000000002,0,1,8.526399999999999,6.6564000000000005,59.320804,1,1,1789162674.8833706,-0.8535426816048152,0.5198155680385007,-0.028500858067817884,-0.02108001406712195,179.63497258229586,-4.046659955970085,-62.6707244232292,-0.0006743952229706089,-0.0024022711824449954,-0.0022741640153486112,0.6972528264999389,0.0672736201095581,-9.688676160297394
2026-09-11T17:37:54.925,0.8688627839999867,0.0,0.0,0.0,0.0,0.0,0.0,0.0,0.0,0.0,0.0,0.0,0.0,0.0,0.0,0.0,0.0,1,1789162674.0460622,38.99142746166667,-76.936662995,-12.653000000000002,0,1,8.526399999999999,6.6564000000000005,59.320804,1,1,1789162674.9233706,-0.853537155947405,0.5198190701881831,-0.028652681010665353,-0.02101146251000579,179.6507809615006,-4.0574434444964576,-62.67192254231013,-0.00042289327775822606,0.0008806931405563387,-0.0015514231720977596,0.7022542180824279,0.06737168661117554,-9.692206554355622
2026-09-11T17:37:54.958,0.902271968000008,0.0,0.0,0.0,0.0,0.0,0.0,0.0,0.0,0.0,0.0,0.0,0.0,0.0,0.0,0.0,0.0,1,1789162674.0460622,38.99142746166667,-76.936662995,-12.653000000000002,0,1,8.526399999999999,6.6564000000000005,59.320804,1,1,1789162674.9513705,-0.8535563805575757,0.5197901302767451,-0.028589661083596393,-0.021032283648246088,179.64483659511973,-4.052500692298868,-62.66774658432316,-0.001196772268092512,-0.0034794883967758958,-0.001959481151214034,0.6982334915161132,0.06639102159500122,-9.69720794593811
2026-09-11T17:37:54.991,0.9356935039999996,0.0,0.0,0.0,0.0,0.0,0.0,0.0,0.0,0.0,0.0,0.0,0.0,0.0,0.0,0.0,0.0,1,1789162674.0460622,38.99142746166667,-76.936662995,-12.653000000000002,0,1,8.526399999999999,6.6564000000000005,59.320804,1,1,1789162674.9833705,-0.8535683066366856,0.519771617316712,-0.02856375617528421,-0.021040997374407972,179.64234658212857,-4.050475282018776,-62.66514052006827,0.0006920230484157516,-0.0015751596499248824,-0.0005148721293383271,0.6995083560371399,0.06364515954971313,-9.688185827789306
2026-09-11T17:37:55.024,0.9691033919999938,0.0,0.0,0.0,0.0,0.0,0.0,0.0,0.0,0.0,0.0,0.0,0.0,0.0,0.0,0.0,0.0,1,1789162674.0460622,38.99142746166667,-76.936662995,-12.653000000000002,0,1,8.526399999999999,6.6564000000000005,59.320804,1,1,1789162675.0113704,-0.8535726028130706,0.5197651198686055,-0.02853843004769182,-0.021061574141249133,179.63878544992002,-4.049218902682357,-62.66412601997778,0.001013861762483506,0.0014976670311363342,0.001912008195559788,0.6992141565322876,0.06658715459823608,-9.692402687358856
2026-09-11T17:37:55.058,1.0025279040000044,0.0,0.0,0.0,0.0,0.0,0.0,0.0,0.0,0.0,0.0,0.0,0.0,0.0,0.0,0.0,0.0,1,1789162675.0508022,38.99142751666667,-76.93666296666666,-12.637000000000004,0,1,8.526399999999999,6.6564000000000005,59.336209000000004,1,1,1789162675.0513706,-0.8535443361055393,0.5198100131037681,-0.028587633174203514,-0.021032446569813533,179.64479400503913,-4.052320058306078,-62.670411152644405,0.00028920105705546045,-0.002581167430774414,0.0017046630804228619,0.6985276910209656,0.06609682209014893,-9.693677551879883
2026-09-11T17:37:55.092,1.0359378240000012,0.0,0.0,0.0,0.0,0.0,0.0,0.0,0.0,0.0,0.0,0.0,0.0,0.0,0.0,0.0,0.0,1,1789162675.0508022,38.99142751666667,-76.93666296666666,-12.637000000000004,0,1,8.526399999999999,6.6564000000000005,59.336209000000004,1,1,1789162675.0823705,-0.853563789872715,0.5197816689413364,-0.028483512607010143,-0.021084656986845286,179.6333201054375,-4.045223391996924,-62.666091918952255,0.0007260569688296411,-0.0038524652579270836,2.303834612632515e-05,0.6999986885452271,0.06776395261764527,-9.688872293300628
2026-09-11T17:37:55.125,1.0693617599999925,0.0,0.0,0.0,0.0,0.0,0.0,0.0,0.0,0.0,0.0,0.0,0.0,0.0,0.0,0.0,0.0,1,1789162675.0508022,38.99142751666667,-76.93666296666666,-12.637000000000004,0,1,8.526399999999999,6.6564000000000005,59.336209000000004,1,1,1789162675.1233706,-0.8536048637856749,0.5197180951535292,-0.028362330569784884,-0.02115221728510844,179.6191559553835,-4.037354330420877,-62.656942303813416,-0.001491907444604753,-0.0012634438455186952,-0.0014252358671785694,0.6995083560371399,0.06295869403839112,-9.695246615905761
2026-09-11T17:37:55.158,1.1027748479999957,0.0,0.0,0.0,0.0,0.0,0.0,0.0,0.0,0.0,0.0,0.0,0.0,0.0,0.0,0.0,0.0,1,1789162675.0508022,38.99142751666667,-76.93666296666666,-12.637000000000004,0,1,8.526399999999999,6.6564000000000005,59.336209000000004,1,1,1789162675.1513705,-0.8536235958931371,0.5196865918918223,-0.028369220922267995,-0.021161050224324306,179.61855240644624,-4.038541816868135,-62.65271469342579,0.000467224640758882,-0.0014575244583404645,-0.0018697712276615254,0.6999986885452271,0.06639102159500122,-9.692402687358856
2026-09-11T17:37:55.191,1.136185375999986,0.0,0.0,0.0,0.0,0.0,0.0,0.0,0.0,0.0,0.0,0.0,0.0,0.0,0.0,0.0,0.0,1,1789162675.0508022,38.99142751666667,-76.93666296666666,-12.637000000000004,0,1,8.526399999999999,6.6564000000000005,59.336209000000004,1,1,1789162675.1833706,-0.8536034385273416,0.5197172052780721,-0.028480299162641456,-0.021072940750061653,179.6339706601407,-4.044182370637525,-62.65744048305865,0.0012695524979006753,-0.00040945424251786973,0.001360135086079181,0.6955856959724427,0.06266449453353881,-9.689460692310334
2026-09-11T17:37:55.225,1.1695938880000085,0.0,0.0,0.0,0.0,0.0,0.0,0.0,0.0,0.0,0.0,0.0,0.0,0.0,0.0,0.0,0.0,1,1789162675.0508022,38.99142751666667,-76.93666296666666,-12.637000000000004,0,1,8.526399999999999,6.6564000000000005,59.336209000000004,1,1,1789162675.2233706,-0.8535788667246972,0.5197555148024243,-0.02855116627485358,-0.021027458662287776,179.64284498179236,-4.048428095674163,-62.66295776838701,-0.0008164650240829474,-0.001007404044251127,0.000765501409924713,0.6982334915161132,0.06462582456588746,-9.692206554355622
2026-09-11T17:37:55.258,1.203003424000002,0.0,0.0,0.0,0.0,0.0,0.0,0.0,0.0,0.0,0.0,0.0,0.0,0.0,0.0,0.0,0.0,1,1789162675.0508022,38.99142751666667,-76.93666296666666,-12.637000000000004,0,1,8.526399999999999,6.6564000000000005,59.336209000000004,1,1,1789162675.2513704,-0.853576712277562,0.5197578918781429,-0.028564219857997442,-0.021038427501146997,179.64256096225694,-4.050361710454117,-62.66330297216764,0.0014142402928910053,-0.00198217043148996,-0.00045622906647131776,0.7012735530662537,0.0641354920578003,-9.695736948413849
2026-09-11T17:37:55.292,1.2364162879999867,0.0,0.0,0.0,0.0,0.0,0.0,0.0,0.0,0.0,0.0,0.0,0.0,0.0,0.0,0.0,0.0,1,1789162675.0508022,38.99142751666667,-76.93666296666666,-12.637000000000004,0,1,8.526399999999999,6.6564000000000005,59.336209000000004,1,1,1789162675.2823706,-0.85358516015166,0.5197433406203246,-0.028585630852373357,-0.021026078057070515,179.6449816105779,-4.051716443362306,-62.66145548656257,0.0017678439993450564,0.0007253588371288434,0.0003679154063204047,0.7007832205581664,0.06295869403839112,-9.690931689834594
2026-09-11T17:37:55.325,1.2698264960000074,0.0,0.0,0.0,0.0,0.0,0.0,0.0,0.0,0.0,0.0,0.0,0.0,0.0,0.0,0.0,0.0,1,1789162675.0508022,38.99142751666667,-76.93666296666666,-12.637000000000004,0,1,8.526399999999999,6.6564000000000005,59.336209000000004,1,1,1789162675.3233705,-0.8535533323385218,0.5197917675810916,-0.028712318827570728,-0.020948268574592126,179.6604090605294,-4.059505097370773,-62.66861889140649,-0.0011501719770642632,-0.002135061273964663,-0.0009782570457428218,0.6985276910209656,0.06560648958206176,-9.691422022342682
2026-09-11T17:37:55.359,1.3032439680000039,0.0,0.0,0.0,0.0,0.0,0.0,0.0,0.0,0.0,0.0,0.0,0.0,0.0,0.0,0.0,0.0,1,1789162675.0508022,38.99142751666667,-76.93666296666666,-12.637000000000004,0,1,8.526399999999999,6.6564000000000005,59.336209000000004,1,1,1789162675.3513706,-0.8535439583653002,0.5198049958869616,-0.028783793445810592,-0.020903842324305418,179.6690979411551,-4.06386154624708,-62.670768792652794,0.00209910749137358,-0.00014259339988793672,-0.0016144295580947548,0.6985276910209656,0.06364515954971313,-9.687205162773132
2026-09-11T17:37:55.395,1.3366563840000083,0.0,0.0,0.0,0.0,0.0,0.0,0.0,0.0,0.0,0.0,0.0,0.0,0.0,0.0,0.0,0.0,1,1789162675.0508022,38.99142751666667,-76.93666296666666,-12.637000000000004,0,1,8.526399999999999,6.6564000000000005,59.336209000000004,1,1,1789162675.3913705,-0.8535652692497585,0.5197710980836109,-0.02875059465089804,-0.02092223780488397,179.66514933496288,-4.061693631223474,-62.6660443394703,-0.0011826351011513577,-0.003984761215228254,-0.002010095699521869,0.6995083560371399,0.0616838295173645,-9.688185827789306
2026-09-11T17:37:55.428,1.3700671679999914,0.0,0.0,0.0,0.0,0.0,0.0,0.0,0.0,0.0,0.0,0.0,0.0,0.0,0.0,0.0,0.0,1,1789162675.0508022,38.99142751666667,-76.93666296666666,-12.637000000000004,0,1,8.526399999999999,6.6564000000000005,59.336209000000004,1,1,1789162675.4233706,-0.8535723075893736,0.5197609292796055,-0.02871170168540809,-0.020941114996115926,179.66092651314742,-4.059005817156747,-62.66448693415654,-0.00011938052083641214,-0.0011397000015522971,-0.0008354891129296856,0.6990180235290527,0.06707748710632323,-9.695148549404145
2026-09-11T17:37:55.461,1.4034774079999863,0.0,0.0,0.0,0.0,0.0,0.0,0.0,0.0,0.0,0.0,0.0,0.0,0.0,0.0,0.0,0.0,1,1789162675.0508022,38.99142751666667,-76.93666296666666,-12.637000000000004,0,1,8.526399999999999,6.6564000000000005,59.336209000000004,1,1,1789162675.4513705,-0.8535682630335705,0.519767142188039,-0.028739875935312336,-0.020913100553367,179.66538569581874,-4.06009736333196,-62.6654914271608,0.0012662363723218862,0.0012229522068724265,2.548180707911721e-05,0.6954876294708252,0.06482195756912232,-9.69073555683136
2026-09-11T17:37:55.493,1.4368884799999933,0.0,0.0,0.0,0.0,0.0,0.0,0.0,0.0,0.0,0.0,0.0,0.0,0.0,0.0,0.0,0.0,1,1789162675.0508022,38.99142751666667,-76.93666296666666,-12.637000000000004,0,1,8.526399999999999,6.6564000000000005,59.336209000000004,1,1,1789162675.4833705,-0.8535603167171985,0.519780138819461,-0.028712467706441567,-0.020952021684420057,179.65999466144712,-4.059738855288096,-62.66704812025367,3.979350694547071e-05,0.0014559536620136696,0.0013444271228112321,0.7025484175872803,0.06492002407073974,-9.692402687358856
2026-09-11T17:37:55.526,1.4703122559999997,0.0,0.0,0.0,0.0,0.0,0.0,0.0,0.0,0.0,0.0,0.0,0.0,0.0,0.0,0.0,0.0,1,1789162675.0508022,38.99142751666667,-76.93666296666666,-12.637000000000004,0,1,8.526399999999999,6.6564000000000005,59.336209000000004,1,1,1789162675.5233705,-0.8535513168829862,0.5197962354442826,-0.028702643156839104,-0.020932781494183435,179.66137027282582,-4.057635651377143,-62.66921624314081,1.0821041362364843e-05,-0.0032197834040791394,0.0007991862644882035,0.6980373585128784,0.06482195756912232,-9.690147157821656
2026-09-11T17:37:55.560,1.503732671999984,0.0,0.0,0.0,0.0,0.0,0.0,0.0,0.0,0.0,0.0,0.0,0.0,0.0,0.0,0.0,0.0,1,1789162675.0508022,38.99142751666667,-76.93666296666666,-12.637000000000004,0,1,8.526399999999999,6.6564000000000005,59.336209000000004,1,1,1789162675.5513706,-0.8535317551155607,0.5198261564939688,-0.028778022216162175,-0.02088385671719931,179.67081298522254,-4.062112621846428,-62.673634799314996,0.0019404570623672956,0.001815666020849701,0.0007545058356371486,0.7017638855743408,0.06344902654647827,-9.691912354850768
2026-09-11T17:37:55.593,1.53714201599999,0.0,0.0,0.0,0.0,0.0,0.0,0.0,0.0,0.0,0.0,0.0,0.0,0.0,0.0,0.0,0.0,1,1789162675.0508022,38.99142751666667,-76.93666296666666,-12.637000000000004,0,1,8.526399999999999,6.6564000000000005,59.336209000000004,1,1,1789162675.5833704,-0.8535342903284305,0.5198227018212908,-0.02874639555812157,-0.020909773962721253,179.66636609690414,-4.060559299686341,-62.67299209555914,0.0004953244417159907,0.002631956512007449,0.0005279620987282846,0.6977431590080262,0.06678328760147095,-9.687891628284454
2026-09-11T17:37:55.626,1.5705535680000082,0.0,0.0,0.0,0.0,0.0,0.0,0.0,0.0,0.0,0.0,0.0,0.0,0.0,0.0,0.0,0.0,1,1789162675.0508022,38.99142751666667,-76.93666296666666,-12.637000000000004,0,1,8.526399999999999,6.6564000000000005,59.336209000000004,1,1,1789162675.6223705,-0.8535667174280025,0.5197731075119927,-0.028618895637341234,-0.020993675690785554,179.65028696536558,-4.053054840661903,-62.66565414393813,0.0007394960040699973,0.00019041542139258135,-0.0008190830179609388,0.6970566934967042,0.06678328760147095,-9.690441357326508
2026-09-11T17:37:55.660,1.6039659839999842,0.0,0.0,0.0,0.0,0.0,0.0,0.0,0.0,0.0,0.0,0.0,0.0,0.0,0.0,0.0,0.0,1,1789162675.0508022,38.99142751666667,-76.93666296666666,-12.637000000000004,0,1,8.526399999999999,6.6564000000000005,59.336209000000004,1,1,1789162675.6503706,-0.8535615120786628,0.5197814361300137,-0.028625403341824025,-0.020990236685780986,179.65105253060148,-4.053490584604339,-62.6668059973427,-0.0001488765851951163,0.0005019566928735692,0.0018790214726970953,0.705000080127716,0.06442969156265259,-9.69642341392517
2026-09-11T17:37:55.693,1.6373748160000048,0.0,0.0,0.0,0.0,0.0,0.0,0.0,0.0,0.0,0.0,0.0,0.0,0.0,0.0,0.0,0.0,1,1789162675.0508022,38.99142751666667,-76.93666296666666,-12.637000000000004,0,1,8.526399999999999,6.6564000000000005,59.336209000000004,1,1,1789162675.6833706,-0.8535373457524315,0.5198165549647297,-0.02870993370242975,-0.02098781306607644,179.6565083813088,-4.061639604363155,-62.67185518974924,-2.1293016874330818e-05,0.0017631316103646716,0.0014364059743913332,0.7002928880500794,0.0641354920578003,-9.692991086368561
2026-09-11T17:37:55.726,1.670782815999985,0.0,0.0,0.0,0.0,0.0,0.0,0.0,0.0,0.0,0.0,0.0,0.0,0.0,0.0,0.0,0.0,1,1789162675.0508022,38.99142751666667,-76.93666296666666,-12.637000000000004,0,1,8.526399999999999,6.6564000000000005,59.336209000000004,1,1,1789162675.7233706,-0.8535249358030058,0.5198380104453633,-0.0286884956901542,-0.020990404324762766,179.6550755307376,-4.059703092734334,-62.67465154940762,0.0016306611201383021,8.901179185171081e-05,0.0014974924982111347,0.6977431590080262,0.06609682209014893,-9.688185827789306
2026-09-11T17:37:55.760,1.704191839999993,0.0,0.0,0.0,0.0,0.0,0.0,0.0,0.0,0.0,0.0,0.0,0.0,0.0,0.0,0.0,0.0,1,1789162675.0508022,38.99142751666667,-76.93666296666666,-12.637000000000004,0,1,8.526399999999999,6.6564000000000005,59.336209000000004,1,1,1789162675.7513704,-0.8535272619096832,0.5198340942716649,-0.028657158642641293,-0.02103556199028697,179.64875781608566,-4.059325368023895,-62.673906539328804,-0.00040334559013588953,0.002946639376142027,0.0008185594191853405,0.7004890210533141,0.06688135410308838,-9.69269688686371
2026-09-11T17:37:55.793,1.7376037119999808,0.0,0.0,0.0,0.0,0.0,0.0,0.0,0.0,0.0,0.0,0.0,0.0,0.0,0.0,0.0,0.0,1,1789162675.0508022,38.99142751666667,-76.93666296666666,-12.637000000000004,0,1,8.526399999999999,6.6564000000000005,59.336209000000004,1,1,1789162675.7833705,-0.8535353434650697,0.5198210233202071,-0.028634355747899284,-0.021061691318626206,179.64477167696643,-4.058644836379038,-62.672005320662194,-0.0007042403531797119,-0.000711919801888487,0.0002001892652037496,0.6993122230339051,0.06511615707397461,-9.691422022342682
2026-09-11T17:37:55.826,1.771014431999987,0.0,0.0,0.0,0.0,0.0,0.0,0.0,0.0,0.0,0.0,0.0,0.0,0.0,0.0,0.0,0.0,1,1789162675.0508022,38.99142751666667,-76.93666296666666,-12.637000000000004,0,1,8.526399999999999,6.6564000000000005,59.336209000000004,1,1,1789162675.8233705,-0.8535400788460477,0.5198119526463539,-0.028675048729130535,-0.02103828105737862,179.64945484117604,-4.061230633256333,-62.670992604548296,0.0006087708430956222,0.001659284519871009,-0.00044872415068774213,0.7007832205581664,0.06511615707397461,-9.691912354850768
2026-09-11T17:37:55.860,1.8044265279999934,0.0,0.0,0.0,0.0,0.0,0.0,0.0,0.0,0.0,0.0,0.0,0.0,0.0,0.0,0.0,0.0,1,1789162675.0508022,38.99142751666667,-76.93666296666666,-12.637000000000004,0,1,8.526399999999999,6.6564000000000005,59.336209000000004,1,1,1789162675.8503706,-0.8535462882620802,0.5198041058289093,-0.028645054510282045,-0.02102108963724224,179.6493103087644,-4.057264449792076,-62.66986083831609,-0.0002483603525587931,-0.0011072368774652027,-0.0001562069680534925,0.6980373585128784,0.06364515954971313,-9.691422022342682
2026-09-11T17:37:55.893,1.8378354239999908,0.0,0.0,0.0,0.0,0.0,0.0,0.0,0.0,0.0,0.0,0.0,0.0,0.0,0.0,0.0,0.0,1,1789162675.0508022,38.99142751666667,-76.93666296666666,-12.637000000000004,0,1,8.526399999999999,6.6564000000000005,59.336209000000004,1,1,1789162675.8833706,-0.853554164933069,0.5197924392337884,-0.02860098792134825,-0.021049729944170703,179.64381422429926,-4.054651426085809,-62.66806198143804,-0.0006806784082777885,-0.00045902159327450867,-0.0003654719453676126,0.6982334915161132,0.06825428512573242,-9.690147157821656
2026-09-11T17:37:55.927,1.871242943999988,0.0,0.0,0.0,0.0,0.0,0.0,0.0,0.0,0.0,0.0,0.0,0.0,0.0,0.0,0.0,0.0,1,1789162675.0508022,38.99142751666667,-76.93666296666666,-12.637000000000004,0,1,8.526399999999999,6.6564000000000005,59.336209000000004,1,1,1789162675.9233706,-0.8535450703873788,0.5198064326068401,-0.028624907309602567,-0.021040440096916954,179.6462207093098,-4.056446046008129,-62.67005443257259,0.0020275489920418125,0.0016786576745681462,0.0009492845801597158,0.7035290826034546,0.06344902654647827,-9.693677551879883
2026-09-11T17:37:55.960,1.9046541760000082,0.0,0.0,0.0,0.0,0.0,0.0,0.0,0.0,0.0,0.0,0.0,0.0,0.0,0.0,0.0,0.0,1,1789162675.0508022,38.99142751666667,-76.93666296666666,-12.637000000000004,0,1,8.526399999999999,6.6564000000000005,59.336209000000004,1,1,1789162675.9513705,-0.8535578929522636,0.5197867217631591,-0.02858202295690405,-0.02106549836322864,179.64110814395218,-4.053731795743291,-62.66718680590355,-0.0009536479032897017,-0.0007466518540031741,-0.001222254075171629,0.7007832205581664,0.06393935905456542,-9.691716221847535
2026-09-11T17:37:55.994,1.9380768959999841,0.0,0.0,0.0,0.0,0.0,0.0,0.0,0.0,0.0,0.0,0.0,0.0,0.0,0.0,0.0,0.0,1,1789162675.0508022,38.99142751666667,-76.93666296666666,-12.637000000000004,0,1,8.526399999999999,6.6564000000000005,59.336209000000004,1,1,1789162675.9833705,-0.8535648785066285,0.5197756339814489,-0.0285966170233111,-0.02103620673908456,179.6447987146531,-4.053409905138693,-62.66581593897792,-0.00014521139376592822,-0.001215447291088851,-0.0014493214108560913,0.6977431590080262,0.0672736201095581,-9.693383352375031
2026-09-11T17:37:56.027,1.9714965119999874,0.0,0.0,0.0,0.0,0.0,0.0,0.0,0.0,0.0,0.0,0.0,0.0,0.0,0.0,0.0,0.0,1,1789162675.0508022,38.99142751666667,-76.93666296666666,-12.637000000000004,0,1,8.526399999999999,6.6564000000000005,59.336209000000004,1,1,1789162676.0223706,-0.8535310688501897,0.5198247365907873,-0.028749217128273306,-0.020986668394070176,179.65900709320275,-4.065422166589128,-62.67310813488271,0.0010229374745938766,0.0025398031275021484,0.0003722787294503905,0.6980373585128784,0.06707748710632323,-9.693677551879883
2026-09-11T17:37:56.060,2.004915232000002,0.0,0.0,0.0,0.0,0.0,0.0,0.0,0.0,0.0,0.0,0.0,0.0,0.0,0.0,0.0,0.0,1,1789162676.0478396,38.99142754333333,-76.93666301666667,-12.626000000000001,0,1,8.526399999999999,6.6564000000000005,59.35161599999999,1,1,1789162676.0513706,-0.853543116933636,0.5198064631920016,-0.02869176880596015,-0.02102785680522095,179.65144961083453,-4.062244374509968,-62.67034145243006,-0.0016077973069371762,-0.0029705503868943488,-0.0018203784098300858,0.7042155481147766,0.06521422357559203,-9.69720794593811
2026-09-11T17:37:56.094,2.0383251840000014,0.0,0.0,0.0,0.0,0.0,0.0,0.0,0.0,0.0,0.0,0.0,0.0,0.0,0.0,0.0,0.0,1,1789162676.0478396,38.99142754333333,-76.93666301666667,-12.626000000000001,0,1,8.526399999999999,6.6564000000000005,59.35161599999999,1,1,1789162676.0833704,-0.8535387943169671,0.5198141928792724,-0.02872061064497526,-0.020972791931173202,179.65860755159255,-4.061788603706576,-62.67161146200231,-0.0004550073359949217,-0.002894454031507396,-0.0008806931405563387,0.6970566934967042,0.06433162506103515,-9.691716221847535
2026-09-11T17:37:56.127,2.071743712,0.0,0.0,0.0,0.0,0.0,0.0,0.0,0.0,0.0,0.0,0.0,0.0,0.0,0.0,0.0,0.0,1,1789162676.0478396,38.99142754333333,-76.93666301666667,-12.626000000000001,0,1,8.526399999999999,6.6564000000000005,59.35161599999999,1,1,1789162676.1233706,-0.8535504868007867,0.5197956812762834,-0.02862791293203061,-0.021082191769846513,179.64225645803697,-4.059225742918355,-62.66852940609297,7.522369076095559e-05,0.0023828980277478583,0.00118193696945056,0.7030387500953674,0.06707748710632323,-9.692402687358856
2026-09-11T17:37:56.160,2.1051546559999963,0.0,0.0,0.0,0.0,0.0,0.0,0.0,0.0,0.0,0.0,0.0,0.0,0.0,0.0,0.0,0.0,1,1789162676.0478396,38.99142754333333,-76.93666301666667,-12.626000000000001,0,1,8.526399999999999,6.6564000000000005,59.35161599999999,1,1,1789162676.1513705,-0.853553530038275,0.5197916825715809,-0.02858997469290821,-0.02110903682462484,179.6373390447173,-4.057109010378812,-62.66778874319453,-0.0014180800172453928,-0.0038035960388712424,-0.0009786061115932207,0.7024503510856628,0.06619488859176635,-9.697404078941345
2026-09-11T17:37:56.194,2.138564831999986,0.0,0.0,0.0,0.0,0.0,0.0,0.0,0.0,0.0,0.0,0.0,0.0,0.0,0.0,0.0,0.0,1,1789162676.0478396,38.99142754333333,-76.93666301666667,-12.626000000000001,0,1,8.526399999999999,6.6564000000000005,59.35161599999999,1,1,1789162676.1833706,-0.8535414971162762,0.5198099266520396,-0.028672340704247363,-0.02103448913205662,179.6496550617327,-4.060738436061457,-62.67071821217267,-0.0006272713331667621,-0.0009414305985257414,-0.0016196655458507376,0.6990180235290527,0.06580262258529664,-9.691422022342682
2026-09-11T17:37:56.227,2.171976736000005,0.0,0.0,0.0,0.0,0.0,0.0,0.0,0.0,0.0,0.0,0.0,0.0,0.0,0.0,0.0,0.0,1,1789162676.0478396,38.99142754333333,-76.93666301666667,-12.626000000000001,0,1,8.526399999999999,6.6564000000000005,59.35161599999999,1,1,1789162676.2233706,-0.8535521237455607,0.5197931272141931,-0.028642837699284798,-0.021058603915391456,179.64544827189516,-4.05927988335917,-62.66829459691806,-3.5779249665883756e-05,-0.00018535396656179777,-0.0001879719604397893,0.7024503510856628,0.06590068908691407,-9.699463475475312
2026-09-11T17:37:56.261,2.205400607999991,0.0,0.0,0.0,0.0,0.0,0.0,0.0,0.0,0.0,0.0,0.0,0.0,0.0,0.0,0.0,0.0,1,1789162676.0478396,38.99142754333333,-76.93666301666667,-12.626000000000001,0,1,8.526399999999999,6.6564000000000005,59.35161599999999,1,1,1789162676.2513704,-0.8535533847776285,0.5197898417687458,-0.02864596533581797,-0.02108431641421439,179.64309904917883,-4.061118149105223,-62.66780864713637,0.0002228785454796759,-0.0020134118251006585,-0.0002790781473938933,0.7012735530662537,0.06658715459823608,-9.692893019866943
2026-09-11T17:37:56.294,2.2388106239999956,0.0,0.0,0.0,0.0,0.0,0.0,0.0,0.0,0.0,0.0,0.0,0.0,0.0,0.0,0.0,0.0,1,1789162676.0478396,38.99142754333333,-76.93666301666667,-12.626000000000001,0,1,8.526399999999999,6.6564000000000005,59.35161599999999,1,1,1789162676.2833705,-0.8535457299618642,0.5198035136898429,-0.02864886350616198,-0.02105318596713666,179.64638890340694,-4.059551300808239,-62.66972559957494,0.00017400932642383464,-0.002296504229774139,-0.0003923500158483253,0.7012735530662537,0.0654103565788269,-9.690931689834594
2026-09-11T17:37:56.327,2.2722211839999886,0.0,0.0,0.0,0.0,0.0,0.0,0.0,0.0,0.0,0.0,0.0,0.0,0.0,0.0,0.0,0.0,1,1789162676.0478396,38.99142754333333,-76.93666301666667,-12.626000000000001,0,1,8.526399999999999,6.6564000000000005,59.35161599999999,1,1,1789162676.3223705,-0.8535450102170367,0.5198047004014126,-0.02861726871034585,-0.021095992646854987,179.64031057617112,-4.059009975602609,-62.669671020267224,-0.0011760028499937791,-0.001278279144160647,0.0002373647782712288,0.7017638855743408,0.06639102159500122,-9.695638881912231
2026-09-11T17:37:56.361,2.3056410559999847,0.0,0.0,0.0,0.0,0.0,0.0,0.0,0.0,0.0,0.0,0.0,0.0,0.0,0.0,0.0,0.0,1,1789162676.0478396,38.99142754333333,-76.93666301666667,-12.626000000000001,0,1,8.526399999999999,6.6564000000000005,59.35161599999999,1,1,1789162676.3513706,-0.8535248246233123,0.5198347721324347,-0.02872042698069832,-0.02103141716124047,179.65294815752986,-4.065275114284458,-62.67424875385455,-0.0003017674276698196,-0.0018404496962280206,0.0002495820830351891,0.7012735530662537,0.061978029022216795,-9.699169275970458
2026-09-11T17:37:56.397,2.3390522239999996,0.0,0.0,0.0,0.0,0.0,0.0,0.0,0.0,0.0,0.0,0.0,0.0,0.0,0.0,0.0,0.0,1,1789162676.0478396,38.99142754333333,-76.93666301666667,-12.626000000000001,0,1,8.526399999999999,6.6564000000000005,59.35161599999999,1,1,1789162676.3903706,-0.8535312589921573,0.5198263835433508,-0.028693998816634377,-0.021013693807015895,179.6530661184836,-4.061626289613717,-62.67305872813115,-0.00016545721308906244,-0.0008930849782454984,-0.0021671753322013592,0.7002928880500794,0.06393935905456542,-9.695442748908997
2026-09-11T17:37:56.431,2.372465599999998,0.0,0.0,0.0,0.0,0.0,0.0,0.0,0.0,0.0,0.0,0.0,0.0,0.0,0.0,0.0,0.0,1,1789162676.0478396,38.99142754333333,-76.93666301666667,-12.626000000000001,0,1,8.526399999999999,6.6564000000000005,59.35161599999999,1,1,1789162676.4233706,-0.8535390674382723,0.5198124010181128,-0.028693180131887878,-0.021043514875326505,179.65002740363443,-4.0633187981950485,-62.671110751949236,-0.0017948966027509685,-0.0007686430025783028,-0.0017680185322702558,0.7012735530662537,0.0654103565788269,-9.69416788438797
2026-09-11T17:37:56.464,2.405876895999995,0.0,0.0,0.0,0.0,0.0,0.0,0.0,0.0,0.0,0.0,0.0,0.0,0.0,0.0,0.0,0.0,1,1789162676.0478396,38.99142754333333,-76.93666301666667,-12.626000000000001,0,1,8.526399999999999,6.6564000000000005,59.35161599999999,1,1,1789162676.4513705,-0.8535123298267655,0.5198528873171637,-0.02880436899547441,-0.02097586013652878,179.6634968310849,-4.0701904335363865,-62.67712797020311,0.0012313297872819995,-0.0012517501395303333,0.0005827654372409067,0.6995083560371399,0.06805815212249756,-9.692893019866943
2026-09-11T17:37:56.495,2.4392873600000087,0.0,0.0,0.0,0.0,0.0,0.0,0.0,0.0,0.0,0.0,0.0,0.0,0.0,0.0,0.0,0.0,1,1789162676.0478396,38.99142754333333,-76.93666301666667,-12.626000000000001,0,1,8.526399999999999,6.6564000000000005,59.35161599999999,1,1,1789162676.4913704,-0.8535187866966586,0.5198454681882796,-0.028711063015253443,-0.021024861961651143,179.6530821377948,-4.063971396240303,-62.675665061677456,-0.0016090190374135724,-0.00041503929612425155,-0.0008443902921148566,0.7009793535614014,0.06442969156265259,-9.696227280921935
2026-09-11T17:37:56.528,2.4726978239999937,0.0,0.0,0.0,0.0,0.0,0.0,0.0,0.0,0.0,0.0,0.0,0.0,0.0,0.0,0.0,0.0,1,1789162676.0478396,38.99142754333333,-76.93666301666667,-12.626000000000001,0,1,8.526399999999999,6.6564000000000005,59.35161599999999,1,1,1789162676.5233705,-0.8535266479019441,0.5198358829004874,-0.028658198598401338,-0.02101484769005289,179.65085891997768,-4.058192611024979,-62.67419624054897,-0.0005497787143782138,-0.0017877407528177917,-0.0011498229112138641,0.6972528264999389,0.06511615707397461,-9.697894411449433
2026-09-11T17:37:56.561,2.5061167679999983,0.0,0.0,0.0,0.0,0.0,0.0,0.0,0.0,0.0,0.0,0.0,0.0,0.0,0.0,0.0,0.0,1,1789162676.0478396,38.99142754333333,-76.93666301666667,-12.626000000000001,0,1,8.526399999999999,6.6564000000000005,59.35161599999999,1,1,1789162676.5513706,-0.8535373078945568,0.5198205008273616,-0.028592919609192316,-0.021051268368578523,179.64331482218714,-4.0539646401052245,-62.671799953597755,0.001401673922276646,-0.00033964107243809655,0.001076344549704903,0.6985276910209656,0.06462582456588746,-9.698482810459137
2026-09-11T17:37:56.596,2.5395262399999865,0.0,0.0,0.0,0.0,0.0,0.0,0.0,0.0,0.0,0.0,0.0,0.0,0.0,0.0,0.0,0.0,1,1789162676.0478396,38.99142754333333,-76.93666301666667,-12.626000000000001,0,1,8.526399999999999,6.6564000000000005,59.35161599999999,1,1,1789162676.5913706,-0.8535217831719355,0.5198442398821648,-0.028639527637291887,-0.021031152347094833,179.64818477043005,-4.0573397472145105,-62.67521267518254,-0.0009613273519984767,-0.0017008233560684741,0.00031869712141416453,0.7014696860694885,0.06639102159500122,-9.69269688686371
2026-09-11T17:37:56.628,2.5729424639999934,0.0,0.0,0.0,0.0,0.0,0.0,0.0,0.0,0.0,0.0,0.0,0.0,0.0,0.0,0.0,0.0,1,1789162676.0478396,38.99142754333333,-76.93666301666667,-12.626000000000001,0,1,8.526399999999999,6.6564000000000005,59.35161599999999,1,1,1789162676.6233706,-0.8534896395942367,0.5198926188345807,-0.028781731942374007,-0.02094545041336377,179.6653143368726,-4.066175289468247,-62.68244857524215,-0.00028728119487826664,-0.0020875883183104176,-0.0006291911953439558,0.7025484175872803,0.06393935905456542,-9.696913746433257
2026-09-11T17:37:56.662,2.606350784,0.0,0.0,0.0,0.0,0.0,0.0,0.0,0.0,0.0,0.0,0.0,0.0,0.0,0.0,0.0,0.0,1,1789162676.0478396,38.99142754333333,-76.93666301666667,-12.626000000000001,0,1,8.526399999999999,6.6564000000000005,59.35161599999999,1,1,1789162676.6503706,-0.8535104879247485,0.5198608180256439,-0.028678454856067584,-0.02102672373991547,179.65102413464095,-4.060895010286408,-62.67759961687209,0.001354899098323198,0.001196772268092512,0.00017819811662862106,0.701567752571106,0.06442969156265259,-9.69269688686371
2026-09-11T17:37:56.696,2.639758655999998,0.0,0.0,0.0,0.0,0.0,0.0,0.0,0.0,0.0,0.0,0.0,0.0,0.0,0.0,0.0,0.0,1,1789162676.0478396,38.99142754333333,-76.93666301666667,-12.626000000000001,0,1,8.526399999999999,6.6564000000000005,59.35161599999999,1,1,1789162676.6913705,-0.853522193846311,0.5198425710414819,-0.028656058370203612,-0.021033218095331874,179.64896219690934,-4.059081307620157,-62.675046947067166,4.415683007545654e-05,-0.0031452578450189813,-0.0019137535248117824,0.6954876294708252,0.06697942060470581,-9.683380569210053
2026-09-11T17:37:56.729,2.6731696639999996,0.0,0.0,0.0,0.0,0.0,0.0,0.0,0.0,0.0,0.0,0.0,0.0,0.0,0.0,0.0,0.0,1,1789162676.0478396,38.99142754333333,-76.93666301666667,-12.626000000000001,0,1,8.526399999999999,6.6564000000000005,59.35161599999999,1,1,1789162676.7233706,-0.8535432447481838,0.5198098786383932,-0.02860032020537844,-0.02106278943612608,179.6425771765222,-4.055372096874407,-62.67037511469606,-0.0007148868616168774,-0.002158797751791786,-0.0023144811210696805,0.7045097476196289,0.06619488859176635,-9.69642341392517
2026-09-11T17:37:56.762,2.7065923520000013,0.0,0.0,0.0,0.0,0.0,0.0,0.0,0.0,0.0,0.0,0.0,0.0,0.0,0.0,0.0,0.0,1,1789162676.0478396,38.99142754333333,-76.93666301666667,-12.626000000000001,0,1,8.526399999999999,6.6564000000000005,59.35161599999999,1,1,1789162676.7513704,-0.8535618702060971,0.5197804042215278,-0.02854454131974486,-0.021110998991534582,179.6343783547309,-4.0527711823765316,-62.666095804582525,0.0008564330639536176,0.0018444639535076075,3.490658503988659e-05,0.6970566934967042,0.06658715459823608,-9.690637490329742
2026-09-11T17:37:56.796,2.740000320000007,0.0,0.0,0.0,0.0,0.0,0.0,0.0,0.0,0.0,0.0,0.0,0.0,0.0,0.0,0.0,0.0,1,1789162676.0478396,38.99142754333333,-76.93666301666667,-12.626000000000001,0,1,8.526399999999999,6.6564000000000005,59.35161599999999,1,1,1789162676.7913706,-0.853542790778704,0.5198072451127841,-0.02865762160439892,-0.021068292810247777,179.64544919581468,-4.061311538244173,-62.67022756564235,-0.0005599016240397809,-0.0014913838458291545,0.000583289036016505,0.6957818289756775,0.06482195756912232,-9.691912354850768
2026-09-11T17:37:56.829,2.773438655999996,0.0,0.0,0.0,0.0,0.0,0.0,0.0,0.0,0.0,0.0,0.0,0.0,0.0,0.0,0.0,0.0,1,1789162676.0478396,38.99142754333333,-76.93666301666667,-12.626000000000001,0,1,8.526399999999999,6.6564000000000005,59.35161599999999,1,1,1789162676.8223705,-0.8535321013136357,0.5198234825439002,-0.028696234009025476,-0.02104816326334651,179.6498070922705,-4.06389966061431,-62.672601870529775,0.0010564477962321677,-0.000997630200439959,8.325220532012952e-05,0.7007832205581664,0.06737168661117554,-9.69269688686371
2026-09-11T17:37:56.862,2.806848831999986,0.0,0.0,0.0,0.0,0.0,0.0,0.0,0.0,0.0,0.0,0.0,0.0,0.0,0.0,0.0,0.0,1,1789162676.0478396,38.99142754333333,-76.93666301666667,-12.626000000000001,0,1,8.526399999999999,6.6564000000000005,59.35161599999999,1,1,1789162676.8513706,-0.8535215301948363,0.5198401908092146,-0.028689887116640708,-0.021072823506556447,179.64709026737555,-4.06475557793839,-62.674769600235486,0.000963072681250471,0.0025572564200220917,0.0017734290529514384,0.7022542180824279,0.06933301664352418,-9.692108487854004
2026-09-11T17:37:56.896,2.840260064000006,0.0,0.0,0.0,0.0,0.0,0.0,0.0,0.0,0.0,0.0,0.0,0.0,0.0,0.0,0.0,0.0,1,1789162676.0478396,38.99142754333333,-76.93666301666667,-12.626000000000001,0,1,8.526399999999999,6.6564000000000005,59.35161599999999,1,1,1789162676.8913705,-0.8535279417336497,0.5198294513291304,-0.028635078690741902,-0.021152457993094818,179.63595788840772,-4.064132174794571,-62.672942391599335,0.0009414305985257414,-0.0010442304914682074,-0.0008363617775556827,0.7009793535614014,0.06933301664352418,-9.69416788438797
2026-09-11T17:37:56.929,2.8736708159999864,0.0,0.0,0.0,0.0,0.0,0.0,0.0,0.0,0.0,0.0,0.0,0.0,0.0,0.0,0.0,0.0,1,1789162676.0478396,38.99142754333333,-76.93666301666667,-12.626000000000001,0,1,8.526399999999999,6.6564000000000005,59.35161599999999,1,1,1789162676.9233706,-0.8535201966397361,0.5198407395909063,-0.028678265221138755,-0.02112904383903537,179.6408875791536,-4.06697040889239,-62.67467581856901,0.0004548328030697223,0.0002780309498426967,-0.0005984734005088557,0.6967624939918519,0.06462582456588746,-9.693481418876647
2026-09-11T17:37:56.963,2.907081024000007,0.0,0.0,0.0,0.0,0.0,0.0,0.0,0.0,0.0,0.0,0.0,0.0,0.0,0.0,0.0,0.0,1,1789162676.0478396,38.99142754333333,-76.93666301666667,-12.626000000000001,0,1,8.526399999999999,6.6564000000000005,59.35161599999999,1,1,1789162676.9513705,-0.853526004384884,0.5198328688752211,-0.028668505051104444,-0.021101305501485337,179.64298573274232,-4.064356919424527,-62.67364128373642,-0.0005050982855271589,0.0020689132953140782,0.0007630579489719209,0.6999986885452271,0.06344902654647827,-9.695442748908997
2026-09-11T17:37:56.997,2.940508512000008,0.0,0.0,0.0,0.0,0.0,0.0,0.0,0.0,0.0,0.0,0.0,0.0,0.0,0.0,0.0,0.0,1,1789162676.0478396,38.99142754333333,-76.93666301666667,-12.626000000000001,0,1,8.526399999999999,6.6564000000000005,59.35161599999999,1,1,1789162676.9903705,-0.8535029095296092,0.5198702418143356,-0.02871317623211922,-0.021053945261141002,179.6504758717015,-4.065923009063387,-62.678939716576984,0.0013650220079847652,-0.0015200072455618615,0.0018263125292868664,0.6988218905258179,0.0579573024559021,-9.688970359802246
2026-09-11T17:37:57.029,2.9739193599999965,0.0,0.0,0.0,0.0,0.0,0.0,0.0,0.0,0.0,0.0,0.0,0.0,0.0,0.0,0.0,0.0,1,1789162676.0478396,38.99142754333333,-76.93666301666667,-12.626000000000001,0,1,8.526399999999999,6.6564000000000005,59.35161599999999,1,1,1789162677.0233705,-0.8534994294180528,0.5198777069586015,-0.028711232116176797,-0.021013303902428976,179.65437890445148,-4.063311706937039,-62.68002478035573,0.0017098990681788447,0.0007339109504636155,0.00222843638894636,0.6942127649497987,0.06374322605133056,-9.626501998271943
2026-09-11T17:37:57.063,3.007352511999983,0.0,0.0,0.0,0.0,0.0,0.0,0.0,0.0,0.0,0.0,0.0,0.0,0.0,0.0,0.0,0.0,1,1789162677.0476542,38.99142755,-76.93666303666667,-12.613000000000003,0,1,15.563024999999998,6.671889000000001,60.94924900000001,1,1,1789162677.0513706,-0.8535112903432444,0.5198492903188454,-0.028694841781304672,-0.021255556138305043,179.62951808406015,-4.076142647051961,-62.67561103566142,-0.00027872908154349447,0.002581167430774414,0.0002881538595042638,0.6796008562088013,0.0806106643295288,-9.62356000322342
2026-09-11T17:37:57.096,3.040764639999992,0.0,0.0,0.0,0.0,0.0,0.0,0.0,0.0,0.0,0.0,0.0,0.0,0.0,0.0,0.0,0.0,1,1789162677.0476542,38.99142755,-76.93666303666667,-12.613000000000003,0,1,15.563024999999998,6.671889000000001,60.94924900000001,1,1,1789162677.0903695,-0.853491477671937,0.5198868043249071,-0.028632542186260795,-0.02121758134569536,179.62969655200354,-4.067792376542129,-62.68049989600266,0.0006798057436517913,0.0025202554398798117,0.0027365017342019095,0.7562888604736328,0.060507031497955326,-9.660040741825103
2026-09-11T17:37:57.130,3.0741830719999825,0.0,0.0,0.0,0.0,0.0,0.0,0.0,0.0,0.0,0.0,0.0,0.0,0.0,0.0,0.0,0.0,1,1789162677.0476542,38.99142755,-76.93666303666667,-12.613000000000003,0,1,15.563024999999998,6.671889000000001,60.94924900000001,1,1,1789162677.1233697,-0.8534696754612338,0.5199025605726512,-0.028960079858028075,-0.021263921386083243,179.64480568656566,-4.102641794497805,-62.68377182146234,0.0017458528507699278,0.0036526250585737327,0.000342259066316088,0.6789143906974793,0.057074703941345215,-9.683968968219757
2026-09-11T17:37:57.163,3.107593695999981,0.0,0.0,0.0,0.0,0.0,0.0,0.0,0.0,0.0,0.0,0.0,0.0,0.0,0.0,0.0,0.0,1,1789162677.0476542,38.99142755,-76.93666303666667,-12.613000000000003,0,1,15.563024999999998,6.671889000000001,60.94924900000001,1,1,1789162677.1503696,-0.8534731312950417,0.5199135973170222,-0.0287215576320452,-0.021178706511464803,179.63895503861096,-4.074203209732171,-62.68452661279386,0.00013892820845874863,0.005274035933676465,0.0006960373056953386,0.6586146248626709,0.08806371845245362,-9.689264559307098
2026-09-11T17:37:57.196,3.141004415999987,0.0,0.0,0.0,0.0,0.0,0.0,0.0,0.0,0.0,0.0,0.0,0.0,0.0,0.0,0.0,0.0,1,1789162677.0476542,38.99142755,-76.93666303666667,-12.613000000000003,0,1,15.563024999999998,6.671889000000001,60.94924900000001,1,1,1789162677.1903696,-0.8534356916004501,0.5199574964364513,-0.0288794803200599,-0.021393873385683153,179.6275150072713,-4.102523113925794,-62.69055984338069,0.00043458698374658803,0.00731659475728543,0.0006794566778013925,0.7255940454673767,0.05815343545913697,-9.682792170200347
2026-09-11T17:37:57.230,3.1744137919999957,0.0,0.0,0.0,0.0,0.0,0.0,0.0,0.0,0.0,0.0,0.0,0.0,0.0,0.0,0.0,0.0,1,1789162677.0476542,38.99142755,-76.93666303666667,-12.613000000000003,0,1,15.563024999999998,6.671889000000001,60.94924900000001,1,1,1789162677.2233696,-0.8534094660996054,0.5199944943990839,-0.02920771712110602,-0.021093084809984338,179.67679699182682,-4.116739932140837,-62.69747239808195,0.0008712683625955693,0.00807616204775336,0.002045874949187753,0.6781298586845398,0.018142302799224855,-9.70936819213867
2026-09-11T17:37:57.263,3.207825471999996,0.0,0.0,0.0,0.0,0.0,0.0,0.0,0.0,0.0,0.0,0.000152587890625,1.25,0.054931640625,0.0,0.0,0.0,1,1789162677.0476542,38.99142755,-76.93666303666667,-12.613000000000003,0,1,15.563024999999998,6.671889000000001,60.94924900000001,1,1,1789162677.2503695,-0.8534091519487739,0.5199954777208252,-0.02919915851021325,-0.02109340328777358,179.6762588495521,-4.115921146075668,-62.69757040395134,-0.0008030259888425911,0.00453401633083087,-0.0001876228945893904,0.7364794271469116,0.07050981466293335,-9.69269688686371
2026-09-11T17:37:57.297,3.2412343039999882,0.0,0.0,0.0,0.0,0.0,0.0,0.0,0.0,0.0,0.0,0.000385284423828125,3.15625,0.138702392578125,0.015258789993822575,5.493164397776127,164.42252149902825,1,1789162677.0476542,38.99142755,-76.93666303666667,-12.613000000000003,0,1,15.563024999999998,6.671889000000001,60.94924900000001,1,1,1789162677.2913697,-0.8534304292110185,0.519952190345563,-0.029235419353359215,-0.0212488236564182,179.66298372784206,-4.1287272792643295,-62.6915474199915,0.0003956661414271145,0.0020987584255231814,-0.0002670353755551324,0.6701864720535278,0.044620258235931395,-9.704857133064271
2026-09-11T17:37:57.330,3.2746440319999977,0.0,0.0,0.0,0.0,0.0,0.0,0.0,0.0,0.0,0.0,0.000762939453125,6.25,0.274658203125,0.0,0.0,-164.41811192759727,1,1789162677.0476542,38.99142755,-76.93666303666667,-12.613000000000003,0,1,15.563024999999998,6.671889000000001,60.94924900000001,1,1,1789162677.3233695,-0.8534507365518328,0.5199213399232709,-0.02914615859772204,-0.021310607934101652,179.65144256409855,-4.123658529349423,-62.68691432328677,0.001390329282138683,-0.0022560125911278706,6.527531402458792e-05,0.7682529736709596,0.08139519634246827,-9.705543598575591
2026-09-11T17:37:57.363,3.3080540480000025,0.0,0.0,0.0,0.0,0.0,0.0,0.0,0.0,0.0,0.0,0.000762939453125,6.25,0.274658203125,0.0,0.0,0.0,1,1789162677.0476542,38.99142755,-76.93666303666667,-12.613000000000003,0,1,15.563024999999998,6.671889000000001,60.94924900000001,1,1,1789162677.3513696,-0.853468048580011,0.5198817523770518,-0.029113737375266444,-0.021625075593809735,179.61848814711192,-4.139223435717098,-62.680766575103924,-0.0014280283939817604,-0.0041099013225962475,-0.0021863739539732963,0.7077459421730041,0.09532063957214355,-9.683674768714905
2026-09-11T17:37:57.397,3.341466048000001,0.0,0.0,0.0,0.0,0.0,0.0,0.0,0.0,0.0,0.0,0.000762939453125,6.25,0.274658203125,0.0,0.0,0.0,1,1789162677.0476542,38.99142755,-76.93666303666667,-12.613000000000003,0,1,15.563024999999998,6.671889000000001,60.94924900000001,1,1,1789162677.3913696,-0.8534846555646591,0.5198730729823275,-0.028838512064224327,-0.021546947011315102,179.6096554153679,-4.107603499765568,-62.67871463550182,-0.00033126349202852376,0.0020552997271485224,0.00021537362969610026,0.7004890210533141,0.0675678196144104,-9.693677551879883
2026-09-11T17:37:57.430,3.3748764799999833,0.0,0.0,0.0,0.0,0.0,0.0,0.0,0.0,0.0,0.0,0.000762939453125,6.25,0.274658203125,0.0,0.0,0.0,1,1789162677.0476542,38.99142755,-76.93666303666667,-12.613000000000003,0,1,15.563024999999998,6.671889000000001,60.94924900000001,1,1,1789162677.4233696,-0.8534695395121061,0.5198893813140445,-0.029055619282091577,-0.02146036602735119,179.6311967997218,-4.12371046734142,-62.68193398130094,-0.0007290240285580315,0.0034210198668340854,0.000409977841293468,0.7205926538848877,0.049817782821655276,-9.690833623332978
2026-09-11T17:37:57.463,3.4082880320000015,0.0,0.0,0.0,0.0,0.0,0.0,0.0,0.0,0.0,0.0,0.000762939453125,6.25,0.274658203125,0.0,0.0,0.0,1,1789162677.0476542,38.99142755,-76.93666303666667,-12.613000000000003,0,1,15.563024999999998,6.671889000000001,60.94924900000001,1,1,1789162677.4513695,-0.8534735287441224,0.519890600784457,-0.028966750156781063,-0.021392202653922537,179.63257257097604,-4.110941478071165,-62.68190595983261,-0.0008145451619057536,0.0034805355943270918,0.0008049458510197849,0.6835235162734985,0.06648908809661865,-9.69416788438797
2026-09-11T17:37:57.497,3.4416998079999814,0.0,0.0,0.0,0.0,0.0,0.0,0.0,0.0,0.0,0.0,0.000762939453125,6.25,0.274658203125,0.0,0.0,0.0,1,1789162677.0476542,38.99142755,-76.93666303666667,-12.613000000000003,0,1,15.563024999999998,6.671889000000001,60.94924900000001,1,1,1789162677.4913695,-0.8534670936750047,0.5198919705540294,-0.02911812434207066,-0.021410133166059376,179.63986918203597,-4.126837160388449,-62.68263582666693,0.00010192722831646884,0.0072111768704649715,0.0006787585461005948,0.7210829863929749,0.05099458084106445,-9.684361234226227
2026-09-11T17:37:57.530,3.4751118080000083,0.0,0.0,0.0,0.0,0.0,0.0,0.0,0.0,0.0,0.0,0.000762939453125,6.25,0.274658203125,0.0,0.0,0.0,1,1789162677.0476542,38.99142755,-76.93666303666667,-12.613000000000003,0,1,15.563024999999998,6.671889000000001,60.94924900000001,1,1,1789162677.5223696,-0.8534569843887281,0.5198986174341175,-0.02927945013816808,-0.021431686536483863,179.64743158091616,-4.14392578727795,-62.68410962247438,-0.0015498523757709647,0.005815088001794707,0.0012103858362580674,0.7295167055320739,0.06364515954971313,-9.692010421352387
2026-09-11T17:37:57.564,3.5085309119999977,0.0,0.0,0.0,0.0,0.0,0.0,0.0,0.0,0.0,0.0,0.000885009765625,7.25,0.318603515625,0.0,0.0,0.0,1,1789162677.0476542,38.99142755,-76.93666303666667,-12.613000000000003,0,1,15.563024999999998,6.671889000000001,60.94924900000001,1,1,1789162677.5513697,-0.8534515759432503,0.5198999178388761,-0.029322767283729,-0.021555933520418652,179.63784817486862,-4.155579889145605,-62.68417601355131,-0.00036494834659201434,0.0053344243257954695,0.0013325588838976707,0.7271631094932556,0.07149047967910767,-9.702405470523834
2026-09-11T17:37:57.597,3.541942175999992,0.0,0.0,0.0,0.0,0.0,0.0,0.0,0.0,0.0,0.0,0.000885009765625,7.25,0.318603515625,0.0,0.0,0.0,1,1789162677.0476542,38.99142755,-76.93666303666667,-12.613000000000003,0,1,15.563024999999998,6.671889000000001,60.94924900000001,1,1,1789162677.5913696,-0.8534609686737874,0.5198795782443537,-0.02924228014002322,-0.021782748382283088,179.61070462007925,-4.161216677694281,-62.68061990686591,-0.000985587428601198,0.008496437331633596,-0.00015498523757709649,0.7107860037231446,0.09787036861419678,-9.692206554355622
2026-09-11T17:37:57.630,3.575326528000005,0.0,0.0,0.0,0.0,0.0,0.0,0.0,0.0,0.0,0.0,0.000885009765625,7.25,0.318603515625,0.0,0.0,0.0,1,1789162677.0476542,38.99142755,-76.93666303666667,-12.613000000000003,0,1,15.563024999999998,6.671889000000001,60.94924900000001,1,1,1789162677.6233697,-0.8534364116692762,0.5198951083387483,-0.0294994420589383,-0.022026131769386288,179.6022939940046,-4.2009281150216715,-62.68316213868547,-0.0008309512568745003,0.005495343682829346,0.000175754655675829,0.7147086637878418,0.07453054122924804,-9.679850175151826
2026-09-11T17:37:57.663,3.6087360639999986,0.0,0.0,0.0,0.0,0.0,0.0,0.0,0.0,0.0,0.0,0.000885009765625,7.25,0.318603515625,0.0,0.0,0.0,1,1789162677.0476542,38.99142755,-76.93666303666667,-12.613000000000003,0,1,15.563024999999998,6.671889000000001,60.94924900000001,1,1,1789162677.6513696,-0.8534295138077905,0.5199069548997142,-0.02953397245636114,-0.021967423145464498,179.6101715311151,-4.20081363866235,-62.685023079485646,0.0006871361265101676,-0.0009260717011081914,0.0011793189755725686,0.7383426906776428,0.05462304140090943,-9.68730322927475
2026-09-11T17:37:57.698,3.642145503999984,0.0,0.0,0.0,0.0,0.0,0.0,0.0,0.0,0.0,0.0,0.000885009765625,7.25,0.318603515625,0.0,0.0,0.0,1,1789162677.0476542,38.99142755,-76.93666303666667,-12.613000000000003,0,1,15.563024999999998,6.671889000000001,60.94924900000001,1,1,1789162677.6913695,-0.8534298902773709,0.5198988431145375,-0.029831535800144044,-0.02174154504916428,179.6500616878714,-4.216480285496251,-62.6856213391941,-0.001799958057581752,-0.007000341096824057,-0.0015247196345422461,0.7233385159301758,0.027458620452880857,-9.679261776142122
2026-09-11T17:37:57.731,3.6755516479999812,0.0,0.0,0.0,0.0,0.0,0.0,0.0,0.0,0.0,0.0,0.000885009765625,7.25,0.318603515625,0.0,0.0,0.0,1,1789162677.0476542,38.99142755,-76.93666303666667,-12.613000000000003,0,1,15.563024999999998,6.671889000000001,60.94924900000001,1,1,1789162677.7233696,-0.853458308030036,0.5198743566074653,-0.029625420779757515,-0.021491957568000028,179.6620855945732,-4.181395655420448,-62.68207434442792,-0.0012438961578963587,-0.008339183166028906,-0.0009532988374393028,0.7194158558654785,0.050210048828125006,-9.681811505184173
2026-09-11T17:37:57.764,3.7089620159999868,0.0,0.0,0.0,0.0,0.0,0.0,0.0,0.0,0.0,0.0,0.000885009765625,7.25,0.318603515625,0.0,0.0,0.0,1,1789162677.0476542,38.99142755,-76.93666303666667,-12.613000000000003,0,1,15.563024999999998,6.671889000000001,60.94924900000001,1,1,1789162677.7513695,-0.853468009789101,0.5198596256828778,-0.029592786434350732,-0.02150797160449977,179.65849278803333,-4.179148668189617,-62.67992854770078,0.0013791591749259193,-0.005837777282070633,-0.00018046704465621367,0.7216713854026795,0.06462582456588746,-9.707701061611175
2026-09-11T17:37:57.797,3.742371775999999,0.0,0.0,0.0,0.0,0.0,0.0,0.0,0.0,0.0,0.0,0.000885009765625,7.25,0.318603515625,0.0,0.0,0.0,1,1789162677.0476542,38.99142755,-76.93666303666667,-12.613000000000003,0,1,15.563024999999998,6.671889000000001,60.94924900000001,1,1,1789162677.7913697,-0.8535067618450047,0.5198092553047967,-0.029285079255273665,-0.021608556576951245,179.62999499377753,-4.154988285174963,-62.67172247944386,-0.001327846494917286,-0.0037676422562801593,-0.0006279694648675597,0.7222597844123839,0.09208444501876832,-9.704661000061035
2026-09-11T17:37:57.831,3.775780287999993,0.0,0.0,0.0,0.0,0.0,0.0,0.0,0.0,0.0,0.0,0.000885009765625,7.25,0.318603515625,0.0,0.0,0.0,1,1789162677.0476542,38.99142755,-76.93666303666667,-12.613000000000003,0,1,15.563024999999998,6.671889000000001,60.94924900000001,1,1,1789162677.8233695,-0.8535007577391769,0.519818654680958,-0.029173286325181944,-0.02177021243164506,179.60751272762062,-4.153683515608662,-62.672190036709395,-0.0005572836301617894,0.0006565928646002668,-0.0012477358822507462,0.7077459421730041,0.096105171585083,-9.698875076465606
2026-09-11T17:37:57.864,3.8091902079999898,0.0,0.0,0.0,0.0,0.0,0.0,0.0,0.0,0.0,0.0,0.000885009765625,7.25,0.318603515625,0.0,0.0,0.0,1,1789162677.0476542,38.99142755,-76.93666303666667,-12.613000000000003,0,1,15.563024999999998,6.671889000000001,60.94924900000001,1,1,1789162677.8503697,-0.8535127620318662,0.5198013788837808,-0.0290797897408888,-0.021837064543581457,179.5952876647819,-4.148504531214562,-62.669357134692696,0.0011981685314941073,0.005281540849460041,0.0006939429105929454,0.7071575431632995,0.0715885461807251,-9.694364017391205
2026-09-11T17:37:57.897,3.8426016319999974,0.0,0.0,0.0,0.0,0.0,0.0,0.0,0.0,0.0,0.0,0.000885009765625,7.25,0.318603515625,0.0,0.0,0.0,1,1789162677.0476542,38.99142755,-76.93666303666667,-12.613000000000003,0,1,15.563024999999998,6.671889000000001,60.94924900000001,1,1,1789162677.8913696,-0.853510123837168,0.5197907165588664,-0.02937876287897643,-0.021793755490578125,179.61734788588237,-4.175200897333982,-62.66917999603863,-0.0006496115475922895,0.004985183942471404,-0.001998227460608308,0.7160815948104858,0.053544309883117674,-9.70181707151413
2026-09-11T17:37:57.930,3.8760116159999995,0.0,0.0,0.0,0.0,0.0,0.0,0.0,0.0,0.0,0.0,0.000885009765625,7.25,0.318603515625,0.0,0.0,0.0,1,1789162677.0476542,38.99142755,-76.93666303666667,-12.613000000000003,0,1,15.563024999999998,6.671889000000001,60.94924900000001,1,1,1789162677.9233696,-0.8534957538367693,0.5198232308315207,-0.02937473395455532,-0.02158545518592172,179.63768601180905,-4.162397905742953,-62.67400327440963,-0.00021101030656611445,0.0035761796373363812,0.002249380339970292,0.7096092057037353,0.051681046352386475,-9.689264559307098
2026-09-11T17:37:57.965,3.909422879999994,0.0,0.0,0.0,0.0,0.0,0.0,0.0,0.0,0.0,0.0,0.000885009765625,7.25,0.318603515625,0.0,0.0,0.0,1,1789162677.0476542,38.99142755,-76.93666303666667,-12.613000000000003,0,1,15.563024999999998,6.671889000000001,60.94924900000001,1,1,1789162677.9633696,-0.8534680842481092,0.5198374244771143,-0.029857152177647027,-0.021675602568411386,179.6577533019498,-4.215031071444714,-62.67761559408711,-0.0006359979794267337,0.0034677946907875337,0.00132959182416928,0.7478551413345337,0.04216859569549561,-9.694364017391205
2026-09-11T17:37:57.998,3.942845119999987,0.0,0.0,0.0,0.0,0.0,0.0,0.0,0.0,0.0,0.0,0.000885009765625,7.25,0.318603515625,0.0,0.0,0.0,1,1789162677.0476542,38.99142755,-76.93666303666667,-12.613000000000003,0,1,15.563024999999998,6.671889000000001,60.94924900000001,1,1,1789162677.9913695,-0.8534855541484024,0.5198202372351811,-0.029664860757518174,-0.02166392986029463,179.64731890188426,-4.195493712565079,-62.67456654567427,0.00016632987771505962,-0.002896722959534989,-7.208209810736581e-05,0.7081382081794738,0.07943386631011963,-9.691323955841064
2026-09-11T17:37:58.031,3.9762564799999893,0.0,0.0,0.0,0.0,0.0,0.0,0.0,0.0,0.0,0.0,0.000885009765625,7.25,0.318603515625,0.0,0.0,0.0,1,1789162677.0476542,38.99142755,-76.93666303666667,-12.613000000000003,0,1,15.563024999999998,6.671889000000001,60.94924900000001,1,1,1789162678.0233696,-0.853511364556579,0.5197775448319515,-0.02949405768803472,-0.021903310761848267,179.61343332291958,-4.193021451547078,-62.6676131091047,-0.000990823416357181,-0.007519751082217569,-0.0014021975210522443,0.7443247472763062,0.08227779485702515,-9.677300446109772
2026-09-11T17:37:58.065,4.009677343999982,0.0,0.0,0.0,0.0,0.0,0.0,0.0,0.0,0.0,0.0,0.000885009765625,7.25,0.318603515625,0.0,0.0,0.0,1,1789162678.0529156,38.99142725666667,-76.936663015,-12.624000000000002,0,1,15.555136,6.671889000000001,60.964864,1,1,1789162678.0633695,-0.853555575792179,0.5197118477774076,-0.029387785990989332,-0.021882238194989464,179.60882585272012,-4.1813253304468345,-62.65841338119119,-0.0011793189755725686,-0.008049633043123047,-0.0023064526065105064,0.7079420751762391,0.06933301664352418,-9.693383352375031
2026-09-11T17:37:58.098,4.043086463999998,0.0,0.0,0.0,0.0,0.0,0.0,0.0,0.0,0.0,0.0,0.000885009765625,7.25,0.318603515625,0.0,0.0,0.0,1,1789162678.0529156,38.99142725666667,-76.936663015,-12.624000000000002,0,1,15.555136,6.671889000000001,60.964864,1,1,1789162678.0913696,-0.8535876245490529,0.5196705671634275,-0.029127133543080202,-0.02196084999061387,179.5853432269246,-4.160460365230064,-62.65167745877841,0.0005159193268895238,-0.005859768430645762,-0.0007042403531797119,0.7076478756713868,0.08639658792495727,-9.66474793390274
2026-09-11T17:37:58.131,4.076504479999983,0.0,0.0,0.0,0.0,0.0,0.0,0.0,0.0,0.0,0.0,0.000885009765625,7.25,0.318603515625,0.0,0.0,0.0,1,1789162678.0529156,38.99142725666667,-76.936663015,-12.624000000000002,0,1,15.555136,6.671889000000001,60.964864,1,1,1789162678.1233697,-0.8535924796557658,0.5196773180892578,-0.029025438430232833,-0.021745980378233075,179.60036635336945,-4.137691006960353,-62.652674365338,0.00022654373690886398,-0.0003899065548955332,-3.804817769347639e-05,0.6726381345939636,0.04775838628768921,-9.69760021194458
2026-09-11T17:37:58.164,4.109916255999991,0.0,0.0,0.0,0.0,0.0,0.0,0.0,0.0,0.0,0.0,0.000885009765625,7.25,0.318603515625,0.0,0.0,0.0,1,1789162678.0529156,38.99142725666667,-76.936663015,-12.624000000000002,0,1,15.555136,6.671889000000001,60.964864,1,1,1789162678.1513696,-0.8535921069540368,0.5196772719249427,-0.029152555511535134,-0.021591120803803977,179.62314289456896,-4.140909951289132,-62.65350425388322,0.0009962339370383634,0.008015948188559557,0.0005345943498858631,0.7267708434867859,0.05364237638473511,-9.706328130588531
2026-09-11T17:37:58.198,4.143439103999981,0.0,0.0,0.0,0.0,0.0,0.0,0.0,0.0,0.0,0.0,0.000885009765625,7.25,0.318603515625,0.0,0.0,0.0,1,1789162678.0529156,38.99142725666667,-76.936663015,-12.624000000000002,0,1,15.555136,6.671889000000001,60.964864,1,1,1789162678.1913695,-0.853585792629586,0.5196765685954021,-0.029238115246508805,-0.02174146477727173,179.61351177105928,-4.1582545681771705,-62.6534051225502,0.0014793410739903938,0.0034053119035661367,0.000799011731563004,0.7134337992668152,0.0796299993133545,-9.686028364753723
2026-09-11T17:37:58.231,4.176849151999988,0.0,0.0,0.0,0.0,0.0,0.0,0.0,0.0,0.0,0.0,0.000885009765625,7.25,0.318603515625,0.0,0.0,0.0,1,1789162678.0529156,38.99142725666667,-76.936663015,-12.624000000000002,0,1,15.555136,6.671889000000001,60.964864,1,1,1789162678.2233696,-0.8535740268642227,0.5196661434489667,-0.029721655735747903,-0.0217968620677107,179.63692083854366,-4.208919294815478,-62.653774726187585,0.0007461282552275759,0.00398284135305106,-0.002343279053727587,0.7457957448005677,0.04609125576019287,-9.701130606002808
2026-09-11T17:37:58.266,4.210258656000008,0.0,0.0,0.0,0.0,0.0,0.0,0.0,0.0,0.0,0.0,0.000885009765625,7.25,0.318603515625,0.0,0.0,0.0,1,1789162678.0529156,38.99142725666667,-76.936663015,-12.624000000000002,0,1,15.555136,6.671889000000001,60.964864,1,1,1789162678.2633696,-0.8536309844469155,0.5195864325563083,-0.02937364553335167,-0.021937876918236197,179.601910451831,-4.183199322845735,-62.64137404328085,-0.0006190682856823887,0.0005417501998190399,0.00017348572764823634,0.7248095134544373,0.09492837356567382,-9.6746526505661
2026-09-11T17:37:58.299,4.2436682560000065,0.0,0.0,0.0,0.0,0.0,0.0,0.0,0.0,0.0,0.0,0.0006999969482421875,5.734375,0.2519989013671875,0.0,0.0,0.0,1,1789162678.0529156,38.99142725666667,-76.936663015,-12.624000000000002,0,1,15.555136,6.671889000000001,60.964864,1,1,1789162678.2903695,-0.8536385810478948,0.5195607489754683,-0.0294908305266843,-0.02209280392873354,179.59359375501404,-4.203902697914523,-62.63802812299454,0.0009140289292694304,0.002841221489321569,-0.0003455751918948773,0.7346161636161804,0.05334817687988282,-9.691814288349152
2026-09-11T17:37:58.333,4.277077152000004,0.0,0.0,0.0,0.0,0.0,0.0,0.0,0.0,0.0,0.0,0.0006999969482421875,5.734375,0.2519989013671875,0.0,0.0,0.0,1,1789162678.0529156,38.99142725666667,-76.936663015,-12.624000000000002,0,1,15.555136,6.671889000000001,60.964864,1,1,1789162678.3233695,-0.8536210632373686,0.51960352111468,-0.029545395503778233,-0.021687112469294716,179.63684145583062,-4.185083045344514,-62.64490915204031,0.00045448373721932345,0.0033602824088646826,0.003820874798465986,0.7024503510856628,0.03353874355316162,-9.703680335044861
2026-09-11T17:37:58.366,4.310486784000005,0.0,0.0,0.0,0.0,0.0,0.0,0.0,0.0,0.0,0.0,0.0006999969482421875,5.734375,0.2519989013671875,0.0,0.0,0.0,1,1789162678.0529156,38.99142725666667,-76.936663015,-12.624000000000002,0,1,15.555136,6.671889000000001,60.964864,1,1,1789162678.3633695,-0.853586565265339,0.5196458838928951,-0.029732039393717623,-0.02177468220625647,179.6396157993485,-4.208605469689141,-62.651142745306664,-0.0003113667385557884,0.00463873608595053,0.0008634143809615948,0.7306935035514832,0.07972806581497192,-9.678084978122712
2026-09-11T17:37:58.400,4.343906591999996,0.0,0.0,0.0,0.0,0.0,0.0,0.0,0.0,0.0,0.0,0.0006999969482421875,5.734375,0.2519989013671875,0.0,0.0,0.0,1,1789162678.0529156,38.99142725666667,-76.936663015,-12.624000000000002,0,1,15.555136,6.671889000000001,60.964864,1,1,1789162678.3903697,-0.8535730232075518,0.5196695362614864,-0.029751698851084512,-0.021714132484770568,179.6468437824489,-4.206931050992131,-62.65453765532716,0.00033772121026090274,0.00627306239751802,0.0023507839695111627,0.7071575431632995,0.04363959321975708,-9.70064027349472
2026-09-11T17:37:58.433,4.377329119999985,0.0,0.0,0.0,0.0,0.0,0.0,0.0,0.0,0.0,0.0,0.0006999969482421875,5.734375,0.2519989013671875,0.0,0.0,0.0,1,1789162678.0529156,38.99142725666667,-76.936663015,-12.624000000000002,0,1,15.555136,6.671889000000001,60.964864,1,1,1789162678.4233696,-0.8535569249340673,0.5196765198093912,-0.030009823295264505,-0.021824324999532754,179.6514994851415,-4.238789318096621,-62.656255606731754,0.0009370672753957555,0.005551194218893165,0.0005886995566976874,0.7523662004089355,0.073157610206604,-9.690147157821656
2026-09-11T17:37:58.466,4.4107403840000075,0.0,0.0,0.0,0.0,0.0,0.0,0.0,0.0,0.0,0.0,0.0006999969482421875,5.734375,0.2519989013671875,0.0,0.0,0.0,1,1789162678.0529156,38.99142725666667,-76.936663015,-12.624000000000002,0,1,15.555136,6.671889000000001,60.964864,1,1,1789162678.4633696,-0.8536072078650263,0.5195956254960261,-0.029825367792622327,-0.022035609415260955,179.6193599389128,-4.233282293685185,-62.6441628040132,-0.0004141666314982544,-0.005452408583230286,-0.0028853783193970254,0.7317722350692749,0.0616838295173645,-9.68494963323593
2026-09-11T17:37:58.499,4.4441508479999925,0.0,0.0,0.0,0.0,0.0,0.0,0.0,0.0,0.0,0.0,0.0006999969482421875,5.734375,0.2519989013671875,0.0,0.0,0.0,1,1789162678.0529156,38.99142725666667,-76.936663015,-12.624000000000002,0,1,15.555136,6.671889000000001,60.964864,1,1,1789162678.4913695,-0.8536333811821141,0.5195487636973385,-0.02994516479599049,-0.02196405649008152,179.63329996339226,-4.240732254316005,-62.638503443122616,0.0014419910279977151,-0.004063650097418397,-0.0020605357149045054,0.7548178629493713,0.049131317310333246,-9.702797736530304
2026-09-11T17:37:58.533,4.477558783999996,0.0,0.0,0.0,0.0,0.0,0.0,0.0,0.0,0.0,0.0,0.0006999969482421875,5.734375,0.2519989013671875,0.0,0.0,0.0,1,1789162678.0529156,38.99142725666667,-76.936663015,-12.624000000000002,0,1,15.555136,6.671889000000001,60.964864,1,1,1789162678.5233696,-0.8536720606288909,0.5194980518491398,-0.029682187047261104,-0.022017147832153423,179.61213280281152,-4.2181108399174345,-62.63052301945249,0.00016353735091186868,-0.0038159878765604022,-0.0025797711673728185,0.7083343411827088,0.09384964204788208,-9.682399904193879
2026-09-11T17:37:58.567,4.510978623999989,0.0,0.0,0.0,0.0,0.0,0.0,0.0,0.0,0.0,0.0,0.0005817413330078125,4.765625,0.2094268798828125,-0.015258789993822575,-5.493164397776127,-164.3683631572505,1,1789162678.0529156,38.99142725666667,-76.936663015,-12.624000000000002,0,1,15.555136,6.671889000000001,60.964864,1,1,1789162678.5633695,-0.853701143396208,0.5194543757519565,-0.02955758372373157,-0.022087519565736836,179.5975739606349,-4.21007716754493,-62.62400305995535,0.0006620033852814492,-0.012313472405745193,-0.0004644321139556911,0.7644283801078797,0.06227222852706909,-9.703484202041626
2026-09-11T17:37:58.600,4.544387839999985,0.0,0.0,0.0,0.0,0.0,0.0,0.0,0.0,0.0,0.0,-0.0003566741943359375,-2.921875,-0.1284027099609375,-0.0305175818502903,-10.986329466104507,-164.4206517246357,1,1789162678.0529156,38.99142725666667,-76.936663015,-12.624000000000002,0,1,15.555136,6.671889000000001,60.964864,1,1,1789162678.5913696,-0.8537242977766117,0.5194089485336881,-0.02961854571181131,-0.02217902880824314,179.5920165247033,-4.221481978735256,-62.61792789333282,0.0015447909209401812,-0.008761378312086336,-0.0026939157004532473,0.7360871611404419,0.07815900178909302,-9.694364017391205
2026-09-11T17:37:58.634,4.577799808000009,0.0,0.0,0.0,0.0,0.0,0.0,0.0,0.0,0.0,0.0,-0.001018524169921875,-8.34375,-0.366668701171875,-0.015258789993822575,-5.493164397776127,164.40710910307345,1,1789162678.0529156,38.99142725666667,-76.936663015,-12.624000000000002,0,1,15.555136,6.671889000000001,60.964864,1,1,1789162678.6233697,-0.853771547596535,0.5193573290807089,-0.02918017729251809,-0.022150090246921633,179.56842341436828,-4.176781128846669,-62.60935402603852,0.00034627332359567496,-0.018035883424259002,-0.0024240877980949245,0.7387349566841125,0.10002783164978028,-9.698188610954285
2026-09-11T17:37:58.667,4.611207936,0.0,0.0,0.0,0.0,0.0,0.0,0.0,0.0,0.0,0.0,-0.0014514923095703125,-11.890625,-0.5225372314453125,-0.015258789993822575,-5.493164397776127,0.0,1,1789162678.0529156,38.99142725666667,-76.936663015,-12.624000000000002,0,1,15.555136,6.671889000000001,60.964864,1,1,1789162678.6623695,-0.8538111022697691,0.5192977716497258,-0.02900460073964512,-0.0222521714995434,179.54763881098464,-4.165628915326352,-62.600448349529934,0.0012472122834751478,-0.02798164216674869,-0.0041812852890028155,0.7557985279655457,0.11454167388916014,-9.715742514743805
2026-09-11T17:37:58.700,4.64461824,0.0,0.0,0.0,0.0,0.0,0.0,0.0,0.0,0.0,0.0,-0.0017414093017578125,-14.265625,-0.6269073486328125,0.0,0.0,164.41527732809885,1,1789162678.0529156,38.99142725666667,-76.936663015,-12.624000000000002,0,1,15.555136,6.671889000000001,60.964864,1,1,1789162678.6913695,-0.8538562456720922,0.5192712369770949,-0.028263117568431608,-0.02209276715015109,179.51888379906703,-4.083463060544608,-62.59445856234401,-0.0013334315485236676,-0.03989456150916119,-0.0030471703410569,0.688622974357605,0.12130826250076295,-9.663963401889802
2026-09-11T17:37:58.734,4.678030111999988,0.0,0.0,0.0,0.0,0.0,0.0,0.0,0.0,0.0,0.0,-0.0017414093017578125,-14.265625,-0.6269073486328125,0.0,0.0,0.0,1,1789162678.0529156,38.99142725666667,-76.936663015,-12.624000000000002,0,1,15.555136,6.671889000000001,60.964864,1,1,1789162678.7233696,-0.8538697763094406,0.5193155901099905,-0.027427869910355285,-0.021573940904687335,179.52012298931427,-3.9707400381304234,-62.59851440201248,-0.0014837043971203795,-0.046216144059884647,-0.00035360370645405115,0.6671464105033874,0.0806106643295288,-9.697796344947815
2026-09-11T17:37:58.768,4.711438111999996,0.0,0.0,0.0,0.0,0.0,0.0,0.0,0.0,0.0,0.0,-0.0012664794921875,-10.375,-0.4559326171875,0.015258789993822575,5.493164397776127,164.4266163127012,1,1789162678.0529156,38.99142725666667,-76.936663015,-12.624000000000002,0,1,15.555136,6.671889000000001,60.964864,1,1,1789162678.7633696,-0.8538212750338147,0.5194692856769976,-0.027101770237353957,-0.020159007611055473,179.64009338524284,-3.8545644972329747,-62.62098452769055,0.0015948818704724184,-0.05476633753247967,0.0015367624063810073,0.6855829128074646,-0.015592573757171631,-9.719370975303649
2026-09-11T17:37:58.800,4.744847679999992,0.0,0.0,0.0,0.0,0.0,0.0,0.0,0.0,0.0,0.0,-0.000946044921875,-7.75,-0.340576171875,0.0,0.0,-164.41889933377038,1,1789162678.0529156,38.99142725666667,-76.936663015,-12.624000000000002,0,1,15.555136,6.671889000000001,60.964864,1,1,1789162678.7913697,-0.8538141363526071,0.5195157564047514,-0.02694293353975216,-0.019464782144255902,179.69887516417813,-3.7976535498087522,-62.62808953659356,-0.0018051940453377349,-0.055711782388284996,-0.0006356489135763349,0.6730304006004333,0.006080123100280762,-9.666415064430238
2026-09-11T17:37:58.834,4.778258719999997,0.0,0.0,0.0,0.0,0.0,0.0,0.0,0.0,0.0,0.0,-0.0013904571533203125,-11.390625,-0.5005645751953125,-0.0457763709127903,-16.479493528604507,-493.23497648089966,1,1789162678.0529156,38.99142725666667,-76.936663015,-12.624000000000002,0,1,15.555136,6.671889000000001,60.964864,1,1,1789162678.8233695,-0.8538241775536485,0.5195225069384987,-0.026850473046494062,-0.01896551360635884,179.74232554935776,-3.7588459293220855,-62.62968017750215,-0.0012709487613022706,-0.05357008886316275,-0.007020237850296792,0.6992141565322876,0.04099179767608642,-9.675633315582274
2026-09-11T17:37:58.867,4.811668863999984,0.0,0.0,0.0,0.0,0.0,0.0,0.0,0.0,0.0,0.0,-0.0030364990234375,-24.875,-1.0931396484375,-0.0762939527630806,-27.465822994709015,-328.83214948456333,1,1789162678.0529156,38.99142725666667,-76.936663015,-12.624000000000002,0,1,15.555136,6.671889000000001,60.964864,1,1,1789162678.8633695,-0.8539456511405238,0.5193887563598325,-0.025584261691632363,-0.018910056024971915,179.6716090062734,-3.6314583837307333,-62.60738586619594,0.0015505505074717625,-0.03729506812124083,-0.008598888158725664,0.5879086771965027,0.13376270820617675,-9.654352884731292
2026-09-11T17:37:58.900,4.845078688000001,0.0,0.0,0.0,0.0,0.0,0.0,0.0,0.0,0.0,0.0,-0.0039386749267578125,-32.265625,-1.4179229736328125,0.0,0.0,822.0882275433343,1,1789162678.0529156,38.99142725666667,-76.936663015,-12.624000000000002,0,1,15.555136,6.671889000000001,60.964864,1,1,1789162678.8913696,-0.8540030448982776,0.5192954712283607,-0.02525673640436296,-0.019316058924775115,179.61187136236097,-3.6235164287006776,-62.59296197520201,-0.0026487116728265946,-0.030734724528844543,-0.012593248684839884,0.6423355855941772,0.15239534351348877,-9.700149940986634
2026-09-11T17:37:58.934,4.878490239999991,0.0,0.0,0.0,0.0,0.0,0.0,0.0,0.0,0.0,0.0,-0.0045452117919921875,-37.234375,-1.6362762451171875,-0.0305175818502903,-10.986329466104507,-328.81829213165145,1,1789162678.0529156,38.99142725666667,-76.936663015,-12.624000000000002,0,1,15.555136,6.671889000000001,60.964864,1,1,1789162678.9233696,-0.8540952001257252,0.5192295942923612,-0.023920771505540894,-0.018703321196179547,179.59199101536416,-3.4561067009293174,-62.58098753049355,-0.0014864969239235704,-0.023374147474408857,-0.009474868910301616,0.46159902311325074,0.10934414930343628,-9.709662391643525
2026-09-11T17:37:58.967,4.911898847999993,0.0,0.0,0.0,0.0,0.0,0.0,0.0,0.0,0.0,0.0,-0.0049152374267578125,-40.265625,-1.7694854736328125,0.0,0.0,328.8472679287879,1,1789162678.0529156,38.99142725666667,-76.936663015,-12.624000000000002,0,1,15.555136,6.671889000000001,60.964864,1,1,1789162678.9633696,-0.854093659810603,0.5192539179036378,-0.023595174430389658,-0.018510990158590833,179.5915287417954,-3.412765853169149,-62.583602719611925,0.0005040510879759624,-0.03945404040595781,-0.003220132469929538,0.5797691575622559,0.12081792999267578,-10.112323447284698
2026-09-11T17:37:59.001,4.945320767999988,0.0,0.0,0.0,0.0,0.0,0.0,0.0,0.0,0.0,0.0,-0.00508880615234375,-41.6875,-1.83197021484375,-0.015258789993822575,-5.493164397776127,-164.35813375703577,1,1789162678.0529156,38.99142725666667,-76.936663015,-12.624000000000002,0,1,15.555136,6.671889000000001,60.964864,1,1,1789162678.9913695,-0.8540561191248731,0.5193361640486556,-0.02337609614006879,-0.018211321364437087,179.60816674295353,-3.373495543846783,-62.59452527006986,0.0006665412413366345,-0.04661303193178815,-0.001807986572140926,0.7959077271270751,0.09129991300582886,-9.816162612400054
2026-09-11T17:37:59.034,4.978731519999997,0.0,0.0,0.0,0.0,0.0,0.0,0.0,0.0,0.0,0.0,-0.010234832763671875,-83.84375,-3.684539794921875,-0.12207034230232239,-43.94532322883606,-1150.8917497891016,1,1789162678.0529156,38.99142725666667,-76.936663015,-12.624000000000002,0,1,15.555136,6.671889000000001,60.964864,1,1,1789162679.0223696,-0.854057203202735,0.5193059662368669,-0.02460776692746517,-0.017380014245100894,179.76298926730257,-3.4446326689920497,-62.5959146233675,-0.005439667679690727,-0.07094100184241191,-0.01711941103403678,0.856316692123413,-0.28331412317276,-9.571388624362946
2026-09-11T17:37:59.068,5.012152991999983,0.0,0.0,0.0,0.0,0.0,0.0,0.0,0.0,0.0,0.0,-0.021581649780273438,-176.796875,-7.7693939208984375,-0.2593994438648224,-93.38379979133606,-1479.242941858461,1,1789162679.0481575,38.99142698,-76.93666327,-12.636000000000003,0,1,15.555136,6.671889000000001,60.980481000000005,1,1,1789162679.0633695,-0.8544112135373385,0.5188049986624922,-0.025008027274368617,-0.014051694428375004,-179.88885084954364,-3.285677017693835,-62.53607344389031,0.007432135553767453,-0.1744290781089393,-0.03602464295871416,0.543680684967041,-0.4476735798835755,-9.915405912036896
2026-09-11T17:37:59.101,5.045560416000001,0.0,0.0,0.0,0.0,0.0,0.0,0.0,0.0,0.0,0.0,-0.034786224365234375,-284.96875,-12.523040771484375,-0.5798340439796448,-208.74025583267212,-3453.0185877628533,1,1789162679.0481575,38.99142698,-76.93666327,-12.636000000000003,0,1,15.555136,6.671889000000001,60.980481000000005,1,1,1789162679.0913696,-0.8547113601467685,0.5185298624380409,-0.021529191605711193,-0.011478959223378864,-179.84484984351317,-2.791801859462292,-62.491852461330375,0.009855001621385981,-0.23959879971378156,-0.023327721716305812,0.44983104291915893,0.07864933429718017,-9.642486838035584
2026-09-11T17:37:59.135,5.078976479999994,0.0,0.0,0.0,0.0,0.0,0.0,0.0,0.0,0.0,0.0,-0.050174713134765625,-411.03125,-18.062896728515625,-0.4119873642921448,-148.31545114517212,1808.2561934137875,1,1789162679.0481575,38.99142698,-76.93666327,-12.636000000000003,0,1,15.555136,6.671889000000001,60.980481000000005,1,1,1789162679.1313696,-0.855166417985467,0.517916790381691,-0.017988331177062965,-0.011358509237451245,179.95447088574022,-2.4376141043979143,-62.39997238267188,0.005082224248882289,-0.23362034889400018,-0.04558206594263511,0.08825985145568847,0.3563736668777466,-9.562562639217377
2026-09-11T17:37:59.168,5.112387743999989,0.0,0.0,0.0,0.0,0.0,0.0,0.0,0.0,0.0,0.0,-0.07566452026367188,-619.84375,-27.239227294921875,-0.8239746689796448,-296.6308808326721,-4439.084665803871,1,1789162679.0481575,38.99142698,-76.93666327,-12.636000000000003,0,1,15.555136,6.671889000000001,60.980481000000005,1,1,1789162679.1633697,-0.8555009991054034,0.5175526260190345,-0.012772881428091902,-0.00970429443503449,179.80608132206876,-1.8280106294801652,-62.342284321891725,0.006969448769063757,-0.20725156548901943,-0.03831015161420073,-0.07894353380203246,0.20888164844512938,-9.99964503692627
2026-09-11T17:37:59.201,5.145796160000003,0.0,0.0,0.0,0.0,0.0,0.0,0.0,0.0,0.0,0.0,-0.08065605163574219,-660.734375,-29.036178588867188,0.0,0.0,8878.926819893019,1,1789162679.0481575,38.99142698,-76.93666327,-12.636000000000003,0,1,15.555136,6.671889000000001,60.980481000000005,1,1,1789162679.1913695,-0.8556300521267475,0.5174038396005681,-0.010943281901869509,-0.008409830282761247,179.8241951081004,-1.5717836232026885,-62.32072173576294,0.004539077785661654,-0.20354274082853152,-0.03160075690368413,0.5426019534492492,0.07472667423248291,-9.684557367229463
2026-09-11T17:37:59.235,5.179204127999981,0.0,0.0,0.0,0.0,0.0,0.0,0.0,0.0,0.0,0.0,-0.09182357788085938,-752.21875,-33.056488037109375,-0.18310552835464478,-65.91799020767212,-1973.1218075794543,1,1789162679.0481575,38.99142698,-76.93666327,-12.636000000000003,0,1,15.555136,6.671889000000001,60.980481000000005,1,1,1789162679.2313695,-0.8557588479083693,0.5172805815501353,-0.008440556476965668,-0.0051333404381243624,179.99693229669717,-1.132061582964053,-62.30337863129259,0.008564854238311773,-0.202903426723526,-0.026588520357806813,0.18769928409576417,0.0007845320129394532,-9.624638734741211
2026-09-11T17:37:59.268,5.212612256,0.0,0.0,0.0,0.0,0.0,0.0,0.0,0.0,0.0,0.0,-0.10142707824707031,-830.890625,-36.51374816894531,-0.3509522080421448,-126.34279489517212,-1808.685739214882,1,1789162679.0481575,38.99142698,-76.93666327,-12.636000000000003,0,1,15.555136,6.671889000000001,60.980481000000005,1,1,1789162679.2633696,-0.8558255896944498,0.517221420492512,-0.0063074680486692025,-0.0021858761791313003,-179.84051728268042,-0.7481522547603864,-62.29469181984572,0.011869460644037835,-0.1670309764755857,-0.025843264767205238,0.15376827453613282,-0.059232166976928714,-9.739082342128754
2026-09-11T17:37:59.301,5.246022175999997,0.0,0.0,0.0,0.0,0.0,0.0,0.0,0.0,0.0,0.0,-0.10952949523925781,-897.265625,-39.43061828613281,0.0,0.0,3781.595253600845,1,1789162679.0481575,38.99142698,-76.93666327,-12.636000000000003,0,1,15.555136,6.671889000000001,60.980481000000005,1,1,1789162679.2913697,-0.8558167494772224,0.517263431312536,-0.003993807977107029,-0.0005323897675171779,-179.8154767129311,-0.42323098665339787,-62.29897619494986,0.009142558220721898,-0.10181029125658524,-0.017265146026578308,-0.05472110790252686,0.10365629220962524,-9.501173009204864
2026-09-11T17:37:59.336,5.279431263999982,0.0,0.0,0.0,0.0,0.0,0.0,0.0,0.0,0.0,0.0,-0.11569786071777344,-947.796875,-41.65122985839844,-0.2441406548023224,-87.89063572883606,-2630.7403461260556,1,1789162679.0481575,38.99142698,-76.93666327,-12.636000000000003,0,1,15.555136,6.671889000000001,60.980481000000005,1,1,1789162679.3303695,-0.855652527797198,0.5175491314874237,-0.0012263850158672745,-0.0003796717947996459,-179.96449399444526,-0.1427649865252026,-62.336091766478724,0.0027548276913478497,-0.010048384102506953,-0.004114788244501831,0.1118938783454895,0.201526660823822,-9.449001630344391
2026-09-11T17:37:59.369,5.312840575999985,0.0,0.0,0.0,0.0,0.0,0.0,0.0,0.0,0.0,0.0,-0.1266651153564453,-1037.640625,-45.59944152832031,-0.4730224907398224,-170.28809666633606,-2466.302237456778,1,1789162679.0481575,38.99142698,-76.93666327,-12.636000000000003,0,1,15.555136,6.671889000000001,60.980481000000005,1,1,1789162679.3633695,-0.8556645428357692,0.5175247441844417,-0.0025002249608717278,-0.00027958116387260694,-179.87913886390123,-0.26173307524583106,-62.33321981059998,-0.011349527059868726,0.04667778364703715,-0.0247157820704169,0.11316874286651611,0.1317033116722107,-10.234710441303253
2026-09-11T17:37:59.402,5.346250527999985,0.0,0.0,0.0,0.0,0.0,0.0,0.0,0.0,0.0,0.0,-0.14917373657226562,-1222.03125,-53.702545166015625,-0.4425049424171448,-159.30177927017212,328.83367794614304,1,1789162679.0481575,38.99142698,-76.93666327,-12.636000000000003,0,1,15.555136,6.671889000000001,60.980481000000005,1,1,1789162679.3913696,-0.8555701327090116,0.5176829002648629,-0.001977641448207188,-0.0005017209847207522,-179.93187092462884,-0.2236538790730887,-62.35418324335936,-0.0046762606648684075,0.08386010349859914,-0.010018015373522253,-0.10296982669830324,0.3058694185447693,-9.676810113601684
2026-09-11T17:37:59.435,5.379662144000008,0.0,0.0,0.0,0.0,0.0,0.0,0.0,0.0,0.0,0.0,-0.14976119995117188,-1226.84375,-53.914031982421875,-0.1983642727136612,-71.41113817691803,2630.5414587906266,1,1789162679.0481575,38.99142698,-76.93666327,-12.636000000000003,0,1,15.555136,6.671889000000001,60.980481000000005,1,1,1789162679.4313695,-0.8555090710520823,0.5177561099370136,-0.005549556615090152,-0.0014291227624630102,-179.8108331958303,-0.6288490537234592,-62.36588844547612,-0.0049869292717233974,0.08135904668049126,-0.016945750773463344,0.029616083488464357,-0.05138684684753418,-9.82812672559738
2026-09-11T17:37:59.469,5.413070815999987,0.0,0.0,0.0,0.0,0.0,0.0,0.0,0.0,0.0,0.0,-0.15641021728515625,-1281.3125,-56.30767822265625,-0.2288818657398224,-82.39747166633606,-328.84675839329907,1,1789162679.0481575,38.99142698,-76.93666327,-12.636000000000003,0,1,15.555136,6.671889000000001,60.980481000000005,1,1,1789162679.4633696,-0.8554461690244894,0.5178606373010676,-0.005465315638130764,-0.0015305425287725322,-179.82569840081135,-0.6265866500004895,-62.379783136830895,-0.0033042573398756646,0.04806846199502623,-0.01140677385933414,0.10238142768859863,0.09718390310287477,-9.83960050628662
2026-09-11T17:37:59.502,5.446481951999999,0.0,0.0,0.0,0.0,0.0,0.0,0.0,0.0,0.0,0.0,-0.1606273651123047,-1315.859375,-57.82585144042969,-0.07629397511482239,-27.46583104133606,1644.1117304416082,1,1789162679.0481575,38.99142698,-76.93666327,-12.636000000000003,0,1,15.555136,6.671889000000001,60.980481000000005,1,1,1789162679.4913695,-0.8553133024364092,0.5180583021102579,-0.00712101568631781,-0.002010329713101027,-179.77427238368827,-0.817313904569649,-62.407702342630934,0.0011028735543352167,0.01980058583095047,-0.005826956240708269,0.26585828588485716,0.009414384155273438,-9.606300298938752
2026-09-11T17:37:59.536,5.479893599999997,0.0,0.0,0.0,0.0,0.0,0.0,0.0,0.0,0.0,0.0,-0.1615314483642578,-1323.265625,-58.15132141113281,0.0,0.0,822.0435891500448,1,1789162679.0481575,38.99142698,-76.93666327,-12.636000000000003,0,1,15.555136,6.671889000000001,60.980481000000005,1,1,1789162679.5313697,-0.8551943567554636,0.5182605083463419,-0.006411809475432593,-0.0027470641511914973,-179.8884098902806,-0.7915134443850366,-62.433744312891704,-0.00014556045961632708,-0.009582206659299267,-0.007932521450314228,-0.0753150732421875,0.18397275703430174,-9.687597428779602
2026-09-11T17:37:59.569,5.513311168000001,0.0,0.0,0.0,0.0,0.0,0.0,0.0,0.0,0.0,0.0,-0.1615314483642578,-1323.265625,-58.15132141113281,0.0,0.0,0.0,1,1789162679.0481575,38.99142698,-76.93666327,-12.636000000000003,0,1,15.555136,6.671889000000001,60.980481000000005,1,1,1789162679.5633695,-0.8550350544391224,0.518524959400859,-0.005949607800077609,-0.0033947497183038,-179.979097669695,-0.7846771299457398,-62.468494722428396,-0.002288999313990563,-0.006196442443355469,-0.00516774538223001,0.17769650093078615,0.18505148855209352,-9.764873832054137
2026-09-11T17:37:59.602,5.546720927999985,0.0,0.0,0.0,0.0,0.0,0.0,0.0,0.0,0.0,0.0,-0.1615314483642578,-1323.265625,-58.15132141113281,0.0,0.0,0.0,1,1789162679.0481575,38.99142698,-76.93666327,-12.636000000000003,0,1,15.555136,6.671889000000001,60.980481000000005,1,1,1789162679.5913696,-0.8549165108571135,0.5187048366032978,-0.006926049085018918,-0.0038835283335070187,-179.96877185156694,-0.9093908020288878,-62.49326879978068,-0.0004745550236172582,-0.012384856372151762,-0.012916309129384036,0.28223539165496825,0.07364794271469116,-9.663767268886566
2026-09-11T17:37:59.636,5.5801317119999965,0.0,0.0,0.0,0.0,0.0,0.0,0.0,0.0,0.0,0.0,-0.1615314483642578,-1323.265625,-58.15132141113281,0.0,0.0,0.0,1,1789162679.0481575,38.99142698,-76.93666327,-12.636000000000003,0,1,15.555136,6.671889000000001,60.980481000000005,1,1,1789162679.6313696,-0.8548100971460743,0.5188893627978662,-0.006626019290636611,-0.003102073613510881,-179.90986564437455,-0.8335249929112525,-62.51808050919072,-0.0005070181477043527,-0.03065339218570161,-0.012618555958993803,0.009806650161743164,0.05991863248825073,-9.69269688686371
2026-09-11T17:37:59.669,5.613547871999998,-0.020588316023349762,-1.8529484421014786,-7.411793768405914,-0.014102996475994589,-0.014102996475994589,-0.4946262538433075,-0.3388189838826657,-0.7579164814841296,-10.139375196990008,0.0,-0.1615314483642578,-1323.265625,-58.15132141113281,0.0,0.0,0.0,1,1789162679.0481575,38.99142698,-76.93666327,-12.636000000000003,0,1,15.555136,6.671889000000001,60.980481000000005,1,1,1789162679.6633697,-0.8547220314349684,0.5190341332827303,-0.006769771282830114,-0.00282624554917729,-179.87415503736196,-0.8311835690275786,-62.53775600784615,0.002364746603527117,-0.038180822716627955,-0.011129615574117442,0.2002517963027954,0.05040618183135986,-9.758107243442534
2026-09-11T17:37:59.702,5.646964064000002,-0.03087516874074936,-2.7787651866674423,-11.11506074666977,-0.021149490587413312,-0.021149490587413312,-0.2578987777233124,-0.176660662740469,-0.39517864786253754,4.8526870189809825,0.0,-0.162811279296875,-1333.75,-58.612060546875,-0.0915527418255806,-32.958987057209015,-986.3178622269361,1,1789162679.0481575,38.99142698,-76.93666327,-12.636000000000003,0,1,15.555136,6.671889000000001,60.980481000000005,1,1,1789162679.6913695,-0.8546967955045139,0.5190773570316941,-0.006676011866004839,-0.0027415391427048057,-179.87139424849784,-0.8169551277260173,-62.54349482727981,0.0030686378908564302,-0.035076231043180445,-0.017370214847548367,0.0703136816596985,0.09316317653656006,-9.678183044624328
2026-09-11T17:37:59.737,5.680381823999994,-0.031028732657432556,-2.79258593916893,-11.17034375667572,-0.021254681870341303,-0.021254681870341303,-0.04747435078024864,-0.032519930284470325,-0.07274501226841062,4.313297254395082,0.0,-0.170654296875,-1398.0,-61.435546875,-0.3814697563648224,-137.32911229133606,-3123.193332950876,1,1789162679.0481575,38.99142698,-76.93666327,-12.636000000000003,0,1,15.555136,6.671889000000001,60.980481000000005,1,1,1789162679.7313695,-0.8545790332347991,0.5192772997641182,-0.006253590632576118,-0.0025796335713643495,-179.88048778369088,-0.7659221493530771,-62.569965390305015,0.0010389945037122244,-0.018406067758607,-0.014380640371807278,0.20613578639984131,0.09110378000259399,-9.68730322927475
2026-09-11T17:37:59.769,5.7137958719999915,-0.03084428608417511,-2.77598574757576,-11.10394299030304,-0.02112833596765995,-0.02112833596765995,0.0,0.0,0.0,0.9732412632098,0.0,-0.18387413024902344,-1506.296875,-66.19468688964844,-0.18310552835464478,-65.91799020767212,2137.158661041894,1,1789162679.0481575,38.99142698,-76.93666327,-12.636000000000003,0,1,15.555136,6.671889000000001,60.980481000000005,1,1,1789162679.7633696,-0.8545525671049827,0.5193092095610697,-0.006987722237305273,-0.0030044395942442686,-179.8783658534053,-0.8630914732542143,-62.57478267297098,0.0014262830647297662,-0.003361678672266278,-0.02334657127222735,0.1701453803062439,0.07580540575027465,-9.72466656639099
2026-09-11T17:37:59.803,5.747209311999995,-0.03084428608417511,-2.77598574757576,-11.10394299030304,-0.02112833596765995,-0.02112833596765995,0.0,0.0,0.0,0.0,0.0,-0.1916217803955078,-1569.765625,-68.98384094238281,-0.3967285752296448,-142.82228708267212,-2301.5977066411306,1,1789162679.0481575,38.99142698,-76.93666327,-12.636000000000003,0,1,15.555136,6.671889000000001,60.980481000000005,1,1,1789162679.7913697,-0.8545876732806109,0.5192436765543316,-0.007308783302464921,-0.0035347873783483064,-179.91126542430723,-0.9261019379309079,-62.566076739213344,0.0013362240753268587,0.003471459882216721,-0.02728019434037217,0.15916193212509155,0.12915358263015747,-9.67622171459198
2026-09-11T17:37:59.837,5.780622144000006,-0.03143934905529022,-2.82954141497612,-11.31816565990448,-0.021535954102873803,-0.021535954102873803,-0.02630305476486683,-0.01801759251393378,-0.040304206589866144,-0.5392417055198478,0.0,-0.2072296142578125,-1697.625,-74.6026611328125,-0.7019043564796448,-252.68556833267212,-3288.0565541396095,1,1789162679.0481575,38.99142698,-76.93666327,-12.636000000000003,0,1,15.555136,6.671889000000001,60.980481000000005,1,1,1789162679.8313696,-0.8549056495555891,0.5186865527823425,-0.007465930989465787,-0.006697028831273912,179.78763730465644,-1.129524853085877,-62.4897819450508,-0.012999212268853767,0.05971958194963957,-0.05366520930739645,1.49904454372406,-0.3593156619262695,-10.711902038173674
2026-09-11T17:37:59.870,5.814035039999993,-0.03231334686279297,-2.908201217651367,-11.632804870605469,-0.022134642601013187,-0.022134642601013187,-0.02630305476486683,-0.01801759251393378,-0.040304206589866144,0.0,0.0,-0.2217121124267578,-1816.265625,-79.81636047363281,0.015258789993822575,5.493164397776127,7726.918754080648,1,1789162679.0481575,38.99142698,-76.93666327,-12.636000000000003,0,1,15.555136,6.671889000000001,60.980481000000005,1,1,1789162679.8633695,-0.8553468682789892,0.5179650151006696,-0.008620391270991979,-0.004434739160765682,-179.92300057615606,-1.1082226933838415,-62.395700336384806,-0.0018025760514597435,0.051654240943248574,-0.06426075413040362,-0.7608979860496522,-0.6193880242156982,-11.035031161003111
2026-09-11T17:37:59.903,5.847446112,-0.0331939160823822,-2.987452447414398,-11.949809789657593,-0.02273783251643181,-0.02273783251643181,-0.02630305476486683,-0.01801759251393378,-0.040304206589866144,0.0,0.0,-0.22112464904785156,-1811.453125,-79.60487365722656,-0.015258795581758022,-5.493166409432888,-328.8230562373676,1,1789162679.0481575,38.99142698,-76.93666327,-12.636000000000003,0,1,15.555136,6.671889000000001,60.980481000000005,1,1,1789162679.8913696,-0.8553467703474613,0.5180004814465481,-0.0067890319263207355,-0.003363439135031843,-179.92667422277955,-0.8651120090874903,-62.39899156090534,0.01094216721245325,0.009825331024102078,0.01811320151012235,-0.44571224985122676,0.13288010969161987,-9.031924798965454
2026-09-11T17:37:59.937,5.880859264000009,-0.03407119959592819,-3.0664079636335373,-12.26563185453415,-0.023338771723210812,-0.023338771723210812,-0.02630305476486683,-0.01801759251393378,-0.040304206589866144,0.0,0.0,-0.2211017608642578,-1811.265625,-79.59663391113281,0.0,0.0,164.40132344986463,1,1789162679.0481575,38.99142698,-76.93666327,-12.636000000000003,0,1,15.555136,6.671889000000001,60.980481000000005,1,1,1789162679.9313695,-0.8552162936814702,0.5181570015331067,-0.009942617349824006,-0.004422346004585435,-179.84299862302248,-1.2370613289823662,-62.423221258864785,0.004908214922458454,0.007858868555880067,-0.007683288433129438,0.4276680135536194,0.15288567602157593,-9.982581465644838
2026-09-11T17:37:59.970,5.914278112000005,-0.03494848310947418,-3.1453634798526764,-12.581453919410706,-0.023939710929989817,-0.023939710929989817,-0.02630305476486683,-0.01801759251393378,-0.040304206589866144,0.0,0.0,-0.2211017608642578,-1811.265625,-79.59663391113281,0.0,0.0,0.0,1,1789162679.0481575,38.99142698,-76.93666327,-12.636000000000003,0,1,15.555136,6.671889000000001,60.980481000000005,1,1,1789162679.9623697,-0.8552173986009496,0.5181872831832001,-0.0076163509002615485,-0.005208826777945777,179.94177953009645,-1.0557669805703422,-62.42389218980439,-0.003574434308084387,0.007989593716854442,-0.01521438415548497,-0.15229727701187135,0.5442690839767456,-9.804394632205964
2026-09-11T17:38:00.005,5.947695487999994,-0.035838909447193146,-3.225501850247383,-12.902007400989532,-0.02454965297132731,-0.02454965297132731,-0.02630305476486683,-0.01801759251393378,-0.040304206589866144,0.0,0.0,-0.22069931030273438,-1807.96875,-79.45175170898438,0.015258789993822575,5.493164397776127,164.38048270989367,1,1789162679.0481575,38.99142698,-76.93666327,-12.636000000000003,0,1,15.555136,6.671889000000001,60.980481000000005,1,1,1789162680.0033696,-0.85505116763923,0.5184256031544278,-0.009370786494729208,-0.005880737473073099,179.98048305355462,-1.2676266354270487,-62.457442447638414,-0.0011449359893082802,0.004320213497461564,-0.017173690773773804,0.2731152070045471,-0.06364515954971313,-9.194519058647156
2026-09-11T17:38:00.038,5.981113472000004,-0.036706335842609406,-3.3035702258348465,-13.214280903339386,-0.025143840052187446,-0.025143840052187446,-0.02630305476486683,-0.01801759251393378,-0.040304206589866144,0.0,0.0,-0.22003555297851562,-1802.53125,-79.21279907226562,0.0457763709127903,16.479493528604507,328.75499404227867,1,1789162679.0481575,38.99142698,-76.93666327,-12.636000000000003,0,1,15.555136,6.671889000000001,60.980481000000005,1,1,1789162680.0313697,-0.8549961690877477,0.5185273961603352,-0.008688355132996838,-0.005950021978218408,179.93328196434123,-1.204876923713817,-62.470199521238186,0.0021956241990088664,0.002980149697780318,-0.010611252786275125,0.006962721614837647,0.28802131525039676,-10.049462819747923
2026-09-11T17:38:00.070,6.01453734399999,-0.03759019076824188,-3.3831171691417694,-13.532468676567078,-0.02574928067624569,-0.02574928067624569,-0.02630305476486683,-0.01801759251393378,-0.040304206589866144,0.0,0.0,-0.219573974609375,-1798.75,-79.046630859375,0.0,0.0,-493.0456150804856,1,1789162680.0483477,38.991426445,-76.93666416833334,-12.627000000000002,0,1,15.555136,6.671889000000001,60.99609999999999,1,1,1789162680.0633695,-0.8549528590116845,0.5185812350140432,-0.008580390596444812,-0.007449057408078149,179.7800472784208,-1.2833919297696008,-62.47628680172359,0.0004937536453891958,-0.0018331193133696443,-0.01984369546347473,0.44698711437225347,0.25830716526031494,-9.487345632476806
2026-09-11T17:38:00.103,6.047961471999997,-0.07211700081825256,-6.490530073642731,-25.962120294570923,-0.04940014556050301,-0.04940014556050301,-0.7237496972084045,-0.49576854258775716,-1.1090026453734714,-14.293595036307936,0.0,-0.2197589874267578,-1800.265625,-79.11323547363281,0.0,0.0,0.0,1,1789162680.0483477,38.991426445,-76.93666416833334,-12.627000000000002,0,1,15.555136,6.671889000000001,60.99609999999999,1,1,1789162680.0913696,-0.8550086998541343,0.5184457089834538,-0.009271089130724917,-0.00939238610348764,179.6304314309338,-1.4665085598311385,-62.45742201327194,-0.000361981286863624,0.0024757495439539567,-0.0337030059877113,0.38020382677078246,0.4816045894432068,-9.867843658752442
2026-09-11T17:38:00.137,6.081382687999991,-0.07269749045372009,-6.542774140834808,-26.171096563339233,-0.04979778096079827,-0.04979778096079827,-0.12463462352752686,-0.0853747171163559,-0.19097780314145446,12.279440265473283,0.0,-0.22038841247558594,-1805.421875,-79.33982849121094,0.0,0.0,0.0,1,1789162680.0483477,38.991426445,-76.93666416833334,-12.627000000000002,0,1,15.555136,6.671889000000001,60.99609999999999,1,1,1789162680.1313696,-0.855353158845512,0.5178360710485334,-0.007410993193217381,-0.012722199256136798,179.1924867467613,-1.481493612223388,-62.37150106571528,0.003836582761733935,0.026302111827554545,-0.05448516498998338,0.18289402551651002,1.0199896833229065,-10.236769837837219
2026-09-11T17:38:00.170,6.1148093120000055,-0.07375742495059967,-6.63816824555397,-26.55267298221588,-0.050523836091160776,-0.050523836091160776,-0.07253766059875488,-0.0496882975101471,-0.11114955599084432,1.0676046616670916,0.0,-0.2203693389892578,-1805.265625,-79.33296203613281,0.0,0.0,0.0,1,1789162680.0483477,38.991426445,-76.93666416833334,-12.627000000000002,0,1,15.555136,6.671889000000001,60.99609999999999,1,1,1789162680.1633697,-0.8556254739718466,0.5173008317190493,-0.008658579756850589,-0.015163337028071605,179.02603917774087,-1.7480798870006315,-62.29844342775231,-0.0009173450548482197,0.029284704986287657,-0.06191974400470363,0.3771637652206421,0.6433162506103516,-9.1447012758255
2026-09-11T17:38:00.204,6.148239103999998,-0.0761784166097641,-6.856057494878769,-27.424229979515076,-0.05218221537768841,-0.05218221537768841,-0.07253766059875488,-0.0496882975101471,-0.11114955599084432,0.0,0.0,-0.2203693389892578,-1805.265625,-79.33296203613281,0.0,0.0,0.0,1,1789162680.0483477,38.991426445,-76.93666416833334,-12.627000000000002,0,1,15.555136,6.671889000000001,60.99609999999999,1,1,1789162680.1913695,-0.8560028321529813,0.5166108902827421,-0.0075894435934590705,-0.017740905650198542,178.70832833353205,-1.7949957000710062,-62.20302029495732,-0.011442553109000024,0.04077769811067032,-0.07633878162005478,0.09679163709640504,1.3155621191978453,-10.177439604358671
2026-09-11T17:38:00.237,6.181660448000002,-0.11437981575727463,-10.294183418154716,-41.176733672618866,-0.07835017379373313,-0.07835017379373313,-0.6804313063621521,-0.46609544485807425,-1.0426258161642665,-12.459317834371802,0.0,-0.2203693389892578,-1805.265625,-79.33296203613281,0.0,0.0,0.0,1,1789162680.0483477,38.991426445,-76.93666416833334,-12.627000000000002,0,1,15.555136,6.671889000000001,60.99609999999999,1,1,1789162680.2313695,-0.8565714982909605,0.5155113382375297,-0.007273105215615753,-0.021918722696662146,178.27687594523096,-2.009119775272822,-62.05145464677388,-0.008073893119725768,0.04676208304990847,-0.08880531940119987,0.4619912891197204,1.4166686823654175,-9.583646937065124
2026-09-11T17:38:00.271,6.215081631999993,-0.1265696883201599,-11.391271948814392,-45.56508779525757,-0.08670023649930955,-0.08670023649930955,-0.4742436110973358,-0.32485687360167503,-0.7266841302829158,4.226019379099121,0.0,-0.22017669677734375,-1803.6875,-79.26361083984375,0.015258791856467724,5.493165068328381,164.36177330910445,1,1789162680.0483477,38.991426445,-76.93666416833334,-12.627000000000002,0,1,15.555136,6.671889000000001,60.99609999999999,1,1,1789162680.2633696,-0.8571711781954517,0.5143368380538742,-0.007723007840156477,-0.025603582594337298,177.93822255049025,-2.268222482581732,-61.89004753329615,-0.014722375839347768,0.06666040731897063,-0.1138204254383338,0.6900939718818665,1.1185465174484253,-9.37152909406662
2026-09-11T17:38:00.304,6.248510111999991,-0.1568416804075241,-14.11575123667717,-56.46300494670868,-0.10743655107915402,-0.10743655107915402,-0.8926618099212646,-0.6114733397960663,-1.3678269054135326,-8.574020302281482,0.0,-0.21953201293945312,-1798.40625,-79.03152465820312,0.015258789993822575,5.493164397776127,-2.0059310316328754e-05,1,1789162680.0483477,38.991426445,-76.93666416833334,-12.627000000000002,0,1,15.555136,6.671889000000001,60.99609999999999,1,1,1789162680.2913697,-0.8576379464939522,0.5134612609313083,-0.008987452348197953,-0.02709080945185734,177.8638823221316,-2.4780198161329334,-61.77106155411275,-0.013855296266956984,0.08579794256708845,-0.14343621938372478,0.46934627674102786,0.652730634765625,-10.075940775184632
2026-09-11T17:38:00.338,6.2819401920000075,-0.18305623531341553,-16.475061178207397,-65.90024471282959,-0.12539352118968963,-0.12539352118968963,-0.7635051012039185,-0.5230009943246842,-1.1699199049854232,2.6464891939037716,0.0,-0.21756744384765625,-1782.3125,-78.32427978515625,0.0762939527630806,27.465822994709015,657.2720913896129,1,1789162680.0483477,38.991426445,-76.93666416833334,-12.627000000000002,0,1,15.555136,6.671889000000001,60.99609999999999,1,1,1789162680.3313696,-0.8586048296995837,0.5118324247274296,-0.010668301883549901,-0.02667400886837992,177.99879788170384,-2.615025228457653,-61.55443956672199,0.00526932354469608,0.08111923844126724,-0.139184946391717,-0.04383572622299194,0.591144871749878,-9.735846147575378
2026-09-11T17:38:00.371,6.3153617920000045,-0.20943671464920044,-18.84930431842804,-75.39721727371216,-0.14346414953470232,-0.14346414953470232,-0.7895535826683044,-0.5408442041277886,-1.2098340285607283,-0.5338825730397713,0.0,-0.2145061492919922,-1757.234375,-77.22221374511719,0.1220703274011612,43.94531786441803,493.0791724426874,1,1789162680.0483477,38.991426445,-76.93666416833334,-12.627000000000002,0,1,15.555136,6.671889000000001,60.99609999999999,1,1,1789162680.3633695,-0.8592912263702539,0.5105435098481238,-0.012319640930287935,-0.028498057519994912,177.911512341941,-2.881548780975244,-61.380362990100586,0.022140548759099266,0.06190682856823887,-0.13053142942740392,0.43845532873153686,0.9910600653457642,-9.525689634609224
2026-09-11T17:38:00.405,6.348792543999991,-0.2422562688589096,-21.803064197301865,-87.21225678920746,-0.16594554416835308,-0.16594554416835308,-0.9213441610336304,-0.6311207503080368,-1.4117769110326506,-2.700404291841354,0.0,-0.2115192413330078,-1732.765625,-76.14692687988281,0.1220703274011612,43.94531786441803,0.0,1,1789162680.0483477,38.991426445,-76.93666416833334,-12.627000000000002,0,1,15.555136,6.671889000000001,60.99609999999999,1,1,1789162680.4033697,-0.8602725514077764,0.5087607184385616,-0.014059939543336088,-0.029933038072860282,177.86520869840015,-3.1326756920792556,-61.14131729228947,-0.0043828708176081605,0.03745179868806992,-0.15661328070335678,0.932612430381775,0.18122689498901368,-9.155880857009889
2026-09-11T17:38:00.438,6.382219231999983,-0.2713707983493805,-24.423371851444244,-97.69348740577698,-0.18588899686932564,-0.18588899686932564,-0.8692781925201416,-0.595455561876297,-1.331996156666733,1.066967461201923,0.0,-0.2057037353515625,-1685.125,-74.0533447265625,0.1678466945886612,60.42481005191803,493.00403879391644,1,1789162680.0483477,38.991426445,-76.93666416833334,-12.627000000000002,0,1,15.555136,6.671889000000001,60.99609999999999,1,1,1789162680.4313695,-0.8612738561979805,0.5071732316428591,-0.014518836897260443,-0.027782388485332446,178.0987878031949,-3.049021831361279,-60.93400186245471,-0.03860354146146098,-0.0012187634166676404,-0.1626060432230045,0.256051635723114,0.11846433395385743,-10.880184154949188
2026-09-11T17:38:00.471,6.415647551999996,-0.30402445793151855,-27.36220121383667,-109.44880485534668,-0.20825675368309024,-0.20825675368309024,-0.897468090057373,-0.6147656416893006,-1.3751915750029078,-0.5776563049832032,0.0,-0.197601318359375,-1618.75,-71.136474609375,0.2899170219898224,104.37012791633606,1314.6134135487816,1,1789162680.0483477,38.991426445,-76.93666416833334,-12.627000000000002,0,1,15.555136,6.671889000000001,60.99609999999999,1,1,1789162680.4633696,-0.862259200472443,0.5055945313529785,-0.015260634212618508,-0.025502041291126484,178.36190917347062,-2.9867278590166735,-60.72862294004285,-0.02522978153512923,-0.00519567065026192,-0.13843829453771384,0.14209836084365843,0.017553903789520264,-8.564539852256775
2026-09-11T17:38:00.505,6.449064703999994,-0.33218514919281006,-29.896663427352905,-119.58665370941162,-0.22754682719707492,-0.22754682719707492,-0.8453711271286011,-0.5790792220830918,-1.2953633278522978,1.0679072712782491,0.0,-0.18419456481933594,-1508.921875,-66.31004333496094,0.3509522080421448,126.34279489517212,657.5266192294638,1,1789162680.0483477,38.991426445,-76.93666416833334,-12.627000000000002,0,1,15.555136,6.671889000000001,60.99609999999999,1,1,1789162680.5033696,-0.8633561650026457,0.5038035392400914,-0.015283563864581027,-0.023760026866130483,178.52966184934314,-2.884977924431625,-60.493582642635225,-0.021409604868364043,-0.06517862278402743,-0.12190915385670154,0.8646523447608948,0.4702288752555847,-9.612576555042267
2026-09-11T17:38:00.539,6.4824839999999995,-0.3645240068435669,-32.80716061592102,-131.22864246368408,-0.24969894468784334,-0.24969894468784334,-0.899354100227356,-0.6160575586557389,-1.3780815109514544,-1.1064965752911498,0.0,-0.17786026000976562,-1457.03125,-64.02969360351562,0.3051758408546448,109.86330270767212,-493.11308614931346,1,1789162680.0483477,38.991426445,-76.93666416833334,-12.627000000000002,0,1,15.555136,6.671889000000001,60.99609999999999,1,1,1789162680.5313697,-0.8641446947107171,0.502588578998886,-0.014020101150812883,-0.021496595705437625,178.67727146897224,-2.6272834634037077,-60.33443261719804,0.010087828543602025,-0.04821506965219375,-0.13371613171351796,0.48101619043350224,0.14023509731292724,-10.101928398113252
2026-09-11T17:38:00.571,6.515907167999984,-0.39384251832962036,-35.44582664966583,-141.78330659866333,-0.26978212505578997,-0.26978212505578997,-0.8733211159706116,-0.598224964439869,-1.3381911337684955,0.5335399150636512,0.0,-0.15754127502441406,-1290.578125,-56.71485900878906,0.9155274033546448,329.5898652076721,6574.079467873944,1,1789162680.0483477,38.991426445,-76.93666416833334,-12.627000000000002,0,1,15.555136,6.671889000000001,60.99609999999999,1,1,1789162680.5633695,-0.864783102177587,0.5016119168696556,-0.012441249413629209,-0.019516309986433552,178.78000158713348,-2.3553589858336292,-60.20612527583256,-0.034188382052690924,-0.059543478228113345,-0.09617601936529714,0.23702673440933228,0.2011343948173523,-8.711835737686158
2026-09-11T17:38:00.604,6.549325183999997,-0.42689138650894165,-38.42022478580475,-153.680899143219,-0.29242059975862505,-0.29242059975862505,-0.9531737565994263,-0.6529240232706071,-1.4605494436081925,-1.636813473029541,0.0,-0.13704490661621094,-1122.671875,-49.33616638183594,0.13732922077178955,49.43851947784424,-8383.24291094117,1,1789162680.0483477,38.991426445,-76.93666416833334,-12.627000000000002,0,1,15.555136,6.671889000000001,60.99609999999999,1,1,1789162680.5913696,-0.8653615814745345,0.5007154816139174,-0.009477435742654826,-0.018534238365224685,178.70497898058423,-2.00367381532425,-60.08641451893948,-0.0029511772321972117,-0.06438798863287401,-0.09190903841002139,-0.7396175551986695,1.5129699869537354,-9.8839265650177
2026-09-11T17:38:00.638,6.582749696000008,-0.458251416683197,-41.24262750148773,-164.97051000595093,-0.31390222042799,-0.31390222042799,-0.9271252751350403,-0.6350808134675027,-1.4206353200328874,0.5338360602870964,0.0,-0.10291481018066406,-843.078125,-37.04933166503906,0.9002686738967896,324.09672260284424,8217.268905075223,1,1789162680.0483477,38.991426445,-76.93666416833334,-12.627000000000002,0,1,15.555136,6.671889000000001,60.99609999999999,1,1,1789162680.6313696,-0.8656208875906289,0.5003001139690157,-0.008661983065860586,-0.018034549585953116,178.70687886356762,-1.8934751900394493,-60.031600763417266,-0.020436060211601607,-0.03658297378642714,-0.0736549888292631,0.8495501035118103,-0.22270902517318727,-10.150177116909026
2026-09-11T17:38:00.672,6.616173376000006,-0.49405592679977417,-44.465033411979675,-177.8601336479187,-0.33842830985784533,-0.33842830985784533,-1.0068819522857666,-0.6897141373157502,-1.5428465849045934,-1.6345693786037299,0.0,-0.07027435302734375,-575.6875,-25.29876708984375,0.7781983613967896,280.15141010284424,-1314.7957525922327,1,1789162680.0483477,38.991426445,-76.93666416833334,-12.627000000000002,0,1,15.555136,6.671889000000001,60.99609999999999,1,1,1789162680.6633697,-0.86591390439949,0.4998658701622463,-0.0068126555227641505,-0.016757378652385274,178.72683317175353,-1.6360872901809578,-59.97489668071876,0.003468318289563132,-0.01613696519808917,-0.03199537584756005,-1.4922779551124572,0.7784518898391725,-10.300709196891786
2026-09-11T17:38:00.705,6.649588895999983,-0.5266814231872559,-47.40132808685303,-189.6053123474121,-0.3607767748832703,-0.3607767748832703,-0.9808489680290222,-0.6718815430998802,-1.5029562077216345,0.5336620293768333,0.0,-0.04390525817871094,-359.671875,-15.805892944335938,1.0375977754592896,373.53519916534424,2794.623248794696,1,1789162680.0483477,38.991426445,-76.93666416833334,-12.627000000000002,0,1,15.555136,6.671889000000001,60.99609999999999,1,1,1789162680.7033696,-0.8658469639073327,0.5000089144947194,-0.007191339394553874,-0.015760874213652958,178.84773008616637,-1.6167779588974076,-59.9948511267362,0.011318634732108427,-0.02368446701541345,0.0031004028832427267,3.073208027687073,-0.02637988893508911,-9.12753963804245
2026-09-11T17:38:00.738,6.683009535999986,-0.5627938508987427,-50.65144658088684,-202.60578632354736,-0.3855137878656388,-0.3855137878656388,-1.0592864751815796,-0.7256112354993821,-1.6231461066109998,-1.6076799366947314,0.0,-0.011074066162109375,-90.71875,-3.986663818359375,1.0833741426467896,390.01469135284424,493.0932557694476,1,1789162680.0483477,38.991426445,-76.93666416833334,-12.627000000000002,0,1,15.555136,6.671889000000001,60.99609999999999,1,1,1789162680.7313695,-0.8656634765573374,0.5003223529056775,-0.0062181823981508335,-0.01629793684041281,178.73922313326005,-1.5514241604102514,-60.03566392415708,-0.019252377912899053,0.0011958996034665147,0.01125248675345784,-1.0351899910736084,0.9502644006729126,-9.576390015945435
2026-09-11T17:38:00.771,6.716435775999997,-0.5996146202087402,-53.96531581878662,-215.86126327514648,-0.4107360148429871,-0.4107360148429871,-1.1382808685302734,-0.7797223949432374,-1.7441893229761016,-1.618822800405814,0.0,0.003820419544354081,31.296876907348633,1.3753510359674692,0.6408692002296448,230.71291208267212,-4765.770223337052,1,1789162680.0483477,38.991426445,-76.93666416833334,-12.627000000000002,0,1,15.555136,6.671889000000001,60.99609999999999,1,1,1789162680.7633696,-0.865216465173742,0.5011567515502382,-0.003348636310275313,-0.015204124530191989,178.68446421076476,-1.205241998442585,-60.147325897772376,0.00864304498880112,0.004011464752783767,0.04250784299817229,-0.6992141565322876,0.41580196685791015,-9.060854416942597
2026-09-11T17:38:00.805,6.7498558719999835,-0.6380435824394226,-57.423922419548035,-229.69568967819214,-0.4370598539710045,-0.4370598539710045,-1.1380213499069214,-0.7795446246862412,-1.7437916622365792,0.005319262308409933,0.0,0.02852821536362171,233.70314025878906,10.270157530903816,0.7324219346046448,263.6718964576721,986.2025643197919,1,1789162680.0483477,38.991426445,-76.93666416833334,-12.627000000000002,0,1,15.555136,6.671889000000001,60.99609999999999,1,1,1789162680.8033695,-0.8645648180341465,0.5022699326793159,-0.003501454342842291,-0.015502579184875128,178.66522753705678,-1.2392569272110534,-60.294554917590965,-0.0185593076669321,0.07767622742585803,0.041425913394861014,-0.8379782563209534,0.5783962265396118,-9.758107243442534
2026-09-11T17:38:00.839,6.783271679999984,-0.6796070337295532,-61.16463303565979,-244.65853214263916,-0.465530818104744,-0.465530818104744,-1.2422901391983032,-0.8509687453508378,-1.903562869879288,-2.1374350925344885,0.0,0.04364204779267311,357.5156555175781,15.71113720536232,0.5950928330421448,214.23341989517212,-1479.4936744458998,1,1789162680.0483477,38.991426445,-76.93666416833334,-12.627000000000002,0,1,15.555136,6.671889000000001,60.99609999999999,1,1,1789162680.8313696,-0.8637300193691889,0.5037099213992096,-0.002983158067603345,-0.015423018266414835,178.6452630957027,-1.1855767361361629,-60.48573131586242,-0.030731408403265756,0.08080699903808547,0.06314007821769806,-0.8936800292396546,-0.09071151399612426,-9.638956443977357
2026-09-11T17:38:00.871,6.816691007999992,-0.7189038991928101,-64.7013509273529,-258.8054037094116,-0.4924491709470749,-0.4924491709470749,-1.1901930570602417,-0.8152822440862656,-1.823734440064121,1.067840181124041,0.0,0.06898690015077591,565.1406860351562,24.835284054279327,0.7934571504592896,285.64457416534424,2136.8219693153383,1,1789162680.0483477,38.991426445,-76.93666416833334,-12.627000000000002,0,1,15.555136,6.671889000000001,60.99609999999999,1,1,1789162680.8633695,-0.8629046380067088,0.505142019200413,-0.003427635906863894,-0.014675743822061384,178.74687841545366,-1.18852091513392,-60.67618089713678,-0.01803361449623141,0.10335927096773019,0.0881529153268044,-1.308207131576538,0.25340384017944334,-10.542443123378753
2026-09-11T17:38:00.905,6.850107648000005,-0.7608898282051086,-68.48008453845978,-273.9203381538391,-0.5212095323204995,-0.5212095323204995,-1.2677727937698364,-0.868424363732338,-1.9426099761371176,-1.590289138765954,0.0,0.08152390271425247,667.8438110351562,29.34860497713089,0.7629395127296448,274.6582245826721,-328.7688284240392,1,1789162680.0483477,38.991426445,-76.93666416833334,-12.627000000000002,0,1,15.555136,6.671889000000001,60.99609999999999,1,1,1789162680.9033697,-0.8616137516815682,0.5073223277831748,-0.004553537434002939,-0.015002131272293003,178.78308856612142,-1.3218514363923564,-60.96552470453061,-0.01469078537988667,0.14576309234248364,0.12061324688709574,-1.2435813070106507,0.7557985279655457,-10.814871864871979
