timestamp,time_s,drive_pos_turns,drive_encoder_count,drive_wheel_angle_deg,drive_distance_m,drive_distance_since_start_m,drive_velocity_turns_s,drive_velocity_mps,drive_velocity_mph,drive_acceleration_mps2,drive_iq_A,steer_pos_turns,steer_encoder_count,steer_angle_deg,steer_velocity_turns_s,steer_velocity_deg_s,steer_acceleration_deg_s2,gps_received,gps_ros_stamp_s,gps_latitude_deg,gps_longitude_deg,gps_altitude_m,gps_status,gps_service,gps_cov_x_m2,gps_cov_y_m2,gps_cov_z_m2,gps_covariance_type,imu_received,imu_ros_stamp_s,imu_qx,imu_qy,imu_qz,imu_qw,imu_roll_deg,imu_pitch_deg,imu_yaw_deg,imu_gyro_x_rad_s,imu_gyro_y_rad_s,imu_gyro_z_rad_s,imu_accel_x_mps2,imu_accel_y_mps2,imu_accel_z_mps2
2026-09-11T17:37:57.306,9.088000012980046e-06,0.0,0.0,0.0,0.0,0.0,0.0,0.0,0.0,0.0,0.0,0.000152587890625,1.25,0.054931640625,0.0,0.0,0.0,1,1789162677.0781176,38.991390796666664,-76.93668626833333,-9.242,0,1,17.372224000000003,6.996025,72.09708099999999,1,1,1789162677.3017814,-0.8540291264323798,0.51877636643095,0.012901967667173561,-0.036590600817177944,175.64735273431123,-0.912609411266846,-62.518138825444986,0.002331061748963627,-0.0003202679177409595,-0.001775348915128632,0.16632078674316406,0.7425595502471923,-9.673573919048309
2026-09-11T17:37:57.340,0.03341116800001487,0.0,0.0,0.0,0.0,0.0,0.0,0.0,0.0,0.0,0.0,0.000152587890625,1.25,0.054931640625,0.0,0.0,0.0,1,1789162677.0781176,38.991390796666664,-76.93668626833333,-9.242,0,1,17.372224000000003,6.996025,72.09708099999999,1,1,1789162677.3297815,-0.8540144103422608,0.5188061125546763,0.012791327595800206,-0.036551148299366475,175.65783005192245,-0.9212390662394658,-62.52168683193184,0.0004989896331451788,-0.00011466813185602746,0.00249931148885588,0.1738719073677063,0.7419711512374878,-9.686322564258575
2026-09-11T17:37:57.374,0.06682697600001575,0.0,0.0,0.0,0.0,0.0,0.0,0.0,0.0,0.0,0.0,0.000152587890625,1.25,0.054931640625,0.0,0.0,0.0,1,1789162677.0781176,38.991390796666664,-76.93668626833333,-9.242,0,1,17.372224000000003,6.996025,72.09708099999999,1,1,1789162677.3697815,-0.8539876932939161,0.5188595426930306,0.012712372804681854,-0.03644434437042345,175.67305337093927,-0.9228784949244406,-62.52857483729848,0.001424188669627373,-0.0004738568919164605,0.003345970708998329,0.16632078674316406,0.7455015452957153,-9.672102921524049
2026-09-11T17:37:57.407,0.1002292480000051,0.0,0.0,0.0,0.0,0.0,0.0,0.0,0.0,0.0,0.0,0.000152587890625,1.25,0.054931640625,0.0,0.0,0.0,1,1789162677.0781176,38.991390796666664,-76.93668626833333,-9.242,0,1,17.372224000000003,6.996025,72.09708099999999,1,1,1789162677.3977816,-0.854023137612097,0.5187904034571968,0.012858994849755705,-0.036546462966505384,175.65425002432505,-0.9142588658857251,-62.51986359907976,-1.4486232791552936e-05,0.0017280504923995858,-0.00023230332344044527,0.16936084829330444,0.7477570748329162,-9.677300446109772
2026-09-11T17:37:57.441,0.13362915199999748,0.0,0.0,0.0,0.0,0.0,0.0,0.0,0.0,0.0,0.0,0.000152587890625,1.25,0.054931640625,0.0,0.0,0.0,1,1789162677.0781176,38.991390796666664,-76.93668626833333,-9.242,0,1,17.372224000000003,6.996025,72.09708099999999,1,1,1789162677.4297814,-0.8540222990715026,0.5187913137478742,0.012815808409038043,-0.03656829943000152,175.65467716789826,-0.9197891671553693,-62.519796332276044,-0.00044052110320336874,0.004740663314266998,-0.0020943951023931952,0.16936084829330444,0.7425595502471923,-9.670631923999785
2026-09-11T17:37:57.475,0.16702928000000838,0.0,0.0,0.0,0.0,0.0,0.0,0.0,0.0,0.0,0.0,0.000152587890625,1.25,0.054931640625,0.0,0.0,0.0,1,1789162677.0781176,38.991390796666664,-76.93668626833333,-9.242,0,1,17.372224000000003,6.996025,72.09708099999999,1,1,1789162677.4697814,-0.854045620225507,0.5187521034333213,0.01287700287825085,-0.03655839922654421,175.6519683198366,-0.9130123463513895,-62.514800287898204,0.001838355301125627,-0.0018716910898387191,-0.0031086059307271004,0.16936084829330444,0.7434421487617493,-9.681811505184173
2026-09-11T17:37:57.508,0.20043596799999364,0.0,0.0,0.0,0.0,0.0,0.0,0.0,0.0,0.0,0.0,0.000152587890625,1.25,0.054931640625,0.0,0.0,0.0,1,1789162677.0781176,38.991390796666664,-76.93668626833333,-9.242,0,1,17.372224000000003,6.996025,72.09708099999999,1,1,1789162677.4977815,-0.854040397842515,0.518763907130855,0.012842876925485415,-0.03652489594243086,175.65729454464085,-0.91441780955426,-62.51625732554088,0.0008417722982368652,0.0013114403999485392,0.00021991148575128554,0.16641885324478148,0.7397156217002868,-9.676613980598448
2026-09-11T17:37:57.541,0.23385494400000084,0.0,0.0,0.0,0.0,0.0,0.0,0.0,0.0,0.0,0.0,0.000152587890625,1.25,0.054931640625,0.0,0.0,0.0,1,1789162677.0781176,38.991390796666664,-76.93668626833333,-9.242,0,1,17.372224000000003,6.996025,72.09708099999999,1,1,1789162677.5297816,-0.8540349489107645,0.5187763313389243,0.012827684334519595,-0.036481153985702286,175.6624999001949,-0.9133641762731955,-62.517880958529,-0.0006899286533133585,0.0002443460952792061,0.0018500490071139892,0.16033873014450073,0.7448150797843933,-9.677300446109772
2026-09-11T17:37:57.576,0.267262656000014,0.0,0.0,0.0,0.0,0.0,0.0,0.0,0.0,0.0,0.0,0.000152587890625,1.25,0.054931640625,0.0,0.0,0.0,1,1789162677.0781176,38.991390796666664,-76.93668626833333,-9.242,0,1,17.372224000000003,6.996025,72.09708099999999,1,1,1789162677.5697815,-0.8540243927228492,0.518795392743056,0.012788892683754237,-0.03647082843685587,175.66583867917672,-0.9166422523179157,-62.52028027393329,0.0012644910430698918,-0.0005530948399570031,-0.002629862116905056,0.17083184581756594,0.7441286142730713,-9.678084978122712
2026-09-11T17:37:57.608,0.3006861439999966,0.0,0.0,0.0,0.0,0.0,0.0,0.0,0.0,0.0,0.0,0.000152587890625,1.25,0.054931640625,0.0,0.0,0.0,1,1789162677.0781176,38.991390796666664,-76.93668626833333,-9.242,0,1,17.372224000000003,6.996025,72.09708099999999,1,1,1789162677.5977814,-0.8540253387741201,0.5187928432228018,0.012829601063336324,-0.036470644210191104,175.66343405676255,-0.912634859334521,-62.52010654136587,-0.0004537856055185257,-0.0010377727732358284,-0.0002691297706575256,0.16563432123184202,0.7448150797843933,-9.678084978122712
2026-09-11T17:37:57.641,0.33409568000001855,0.0,0.0,0.0,0.0,0.0,0.0,0.0,0.0,0.0,0.0,0.000152587890625,1.25,0.054931640625,0.0,0.0,0.0,1,1789162677.0781176,38.991390796666664,-76.93668626833333,-9.242,0,1,17.372224000000003,6.996025,72.09708099999999,1,1,1789162677.6297815,-0.8540192154228657,0.5188078301536925,0.012846716477807031,-0.03639473774419745,175.66987510929695,-0.9065180369983152,-62.5222226248832,-0.0008292059276225059,0.0002796017461694916,0.00014364059743913332,0.15514120555877686,0.7461880108070374,-9.676613980598448
2026-09-11T17:37:57.674,0.36749734400001444,0.0,0.0,0.0,0.0,0.0,0.0,0.0,0.0,0.0,0.0,0.000152587890625,1.25,0.054931640625,0.0,0.0,0.0,1,1789162677.0781176,38.991390796666664,-76.93668626833333,-9.242,0,1,17.372224000000003,6.996025,72.09708099999999,1,1,1789162677.6697814,-0.8540144110568146,0.5188121723792305,0.012930533364201038,-0.0364158867164165,175.66282322308192,-0.8995971386321256,-62.52314047855869,0.0017835519626130053,0.0024294983187761066,-0.00022636920398366454,0.16337879169464112,0.7455015452957153,-9.67886951013565
2026-09-11T17:37:57.709,0.4008971840000015,0.0,0.0,0.0,0.0,0.0,0.0,0.0,0.0,0.0,0.0,0.000152587890625,1.25,0.054931640625,0.0,0.0,0.0,1,1789162677.0781176,38.991390796666664,-76.93668626833333,-9.242,0,1,17.372224000000003,6.996025,72.09708099999999,1,1,1789162677.7017815,-0.8540043149715463,0.5188349152975121,0.012900992193217817,-0.0363390296875693,175.67213897956032,-0.8980282935805758,-62.52610313253925,0.0026644196360945433,0.003098483021065533,0.0020788616720504457,0.15818126710891722,0.7359890946388246,-9.683380569210053
2026-09-11T17:37:57.742,0.4343064960000049,0.0,0.0,0.0,0.0,0.0,0.0,0.0,0.0,0.0,0.0,0.000152587890625,1.25,0.054931640625,0.0,0.0,0.0,1,1789162677.0781176,38.991390796666664,-76.93668626833333,-9.242,0,1,17.372224000000003,6.996025,72.09708099999999,1,1,1789162677.7417815,-0.8539832055354958,0.5188811866931685,0.012745792058645322,-0.03622904282486686,175.69219871258906,-0.9069013001834415,-62.53171864189801,-0.00036477381366681485,0.0008344419153784889,-0.001556833692778942,0.16033873014450073,0.7404020872116088,-9.67886951013565
2026-09-11T17:37:57.775,0.46772870399999533,0.0,0.0,0.0,0.0,0.0,0.0,0.0,0.0,0.0,0.0,0.000152587890625,1.25,0.054931640625,0.0,0.0,0.0,1,1789162677.0781176,38.991390796666664,-76.93668626833333,-9.242,0,1,17.372224000000003,6.996025,72.09708099999999,1,1,1789162677.7697816,-0.8539602009273263,0.5189188316363939,0.012651779092810022,-0.03626505054549524,175.694298400814,-0.9184335924676725,-62.53636094312647,0.0012487830798019429,0.00589729300956364,0.001726130630222392,0.16632078674316406,0.7492280723571777,-9.681811505184173
2026-09-11T17:37:57.809,0.5011356800000044,0.0,0.0,0.0,0.0,0.0,0.0,0.0,0.0,0.0,0.0,0.000152587890625,1.25,0.054931640625,0.0,0.0,0.0,1,1789162677.0781176,38.991390796666664,-76.93668626833333,-9.242,0,1,17.372224000000003,6.996025,72.09708099999999,1,1,1789162677.7977815,-0.853919481192934,0.5189870667029439,0.012555968216380534,-0.03628073726392025,175.69853133260762,-0.9290857699379548,-62.54510688614355,-0.00253631246899816,0.0013688617323391527,-0.00036302848441482053,0.16788985076904298,0.7448150797843933,-9.674358451061249
2026-09-11T17:37:57.841,0.5345358080000153,0.0,0.0,0.0,0.0,0.0,0.0,0.0,0.0,0.0,0.0,0.000152587890625,1.25,0.054931640625,0.0,0.0,0.0,1,1789162677.0781176,38.991390796666664,-76.93668626833333,-9.242,0,1,17.372224000000003,6.996025,72.09708099999999,1,1,1789162677.8297815,-0.8539721941550035,0.5188848901266693,0.012711269352305954,-0.03644703060300535,175.67288292656087,-0.9232746853004153,-62.53196559549636,-0.0008140215631301553,0.0019053759444022096,-0.0020008454544862995,0.1701453803062439,0.7411866192245483,-9.67886951013565
2026-09-11T17:37:57.875,0.567938560000016,0.0,0.0,0.0,0.0,0.0,0.0,0.0,0.0,0.0,0.0,0.000152587890625,1.25,0.054931640625,0.0,0.0,0.0,1,1789162677.0781176,38.991390796666664,-76.93668626833333,-9.242,0,1,17.372224000000003,6.996025,72.09708099999999,1,1,1789162677.8697815,-0.854003806831484,0.5188173560166492,0.01280098884101196,-0.036635825334211676,175.64896525492648,-0.9253910019310385,-62.52319103520061,0.0016435765566030602,0.006186494066619101,0.00015341444125030156,0.16857631628036499,0.7470706093215942,-9.679555975646974
2026-09-11T17:37:57.908,0.601343552000003,0.0,0.0,0.0,0.0,0.0,0.0,0.0,0.0,0.0,0.0,0.000152587890625,1.25,0.054931640625,0.0,0.0,0.0,1,1789162677.0781176,38.991390796666664,-76.93668626833333,-9.242,0,1,17.372224000000003,6.996025,72.09708099999999,1,1,1789162677.9017816,-0.8539961324218606,0.5188286774778819,0.012730683280563938,-0.03667886228150672,175.64893735919884,-0.9348898873732858,-62.52439649467927,-8.150687606813518e-05,0.00552187268745966,0.0015924384095196264,0.17681390241622927,0.7442266807746887,-9.682596037197113
2026-09-11T17:37:57.942,0.6347529600000144,0.0,0.0,0.0,0.0,0.0,0.0,0.0,0.0,0.0,0.0,0.000152587890625,1.25,0.054931640625,0.0,0.0,0.0,1,1789162677.0781176,38.991390796666664,-76.93668626833333,-9.242,0,1,17.372224000000003,6.996025,72.09708099999999,1,1,1789162677.9377816,-0.8540045626860288,0.5188158275704958,0.012675649635141879,-0.03668340060726737,175.6517499374885,-0.9404798273853032,-62.52244588119517,0.0012130038301360591,0.004582361951111113,-0.0019029324834494176,0.1716163778305054,0.7411866192245483,-9.678084978122712
2026-09-11T17:37:57.975,0.6681634880000047,0.0,0.0,0.0,0.0,0.0,0.0,0.0,0.0,0.0,0.0,0.000152587890625,1.25,0.054931640625,0.0,0.0,0.0,1,1789162677.0781176,38.991390796666664,-76.93668626833333,-9.242,0,1,17.372224000000003,6.996025,72.09708099999999,1,1,1789162677.9697814,-0.8539762437226265,0.5188659974263873,0.012599449367340339,-0.03665932006670838,175.65869635040661,-0.9467577759901712,-62.52886826445225,0.00018238690683340742,0.001378635576150321,0.0006161012259539983,0.17377384086608885,0.7456976782989502,-9.685538032245637
2026-09-11T17:37:58.009,0.7015712639999947,0.0,0.0,0.0,0.0,0.0,0.0,0.0,0.0,0.0,0.0,0.000152587890625,1.25,0.054931640625,0.0,0.0,0.0,1,1789162677.0781176,38.991390796666664,-76.93668626833333,-9.242,0,1,17.372224000000003,6.996025,72.09708099999999,1,1,1789162677.9977815,-0.8539995950011093,0.5188256260456856,0.012552498344781348,-0.03670281026771505,175.65717859718313,-0.9537357326076127,-62.523243974902364,-0.0017252579655963947,-0.005167221783454412,-0.004262268566295352,0.18063849597930906,0.7375581586647033,-9.682694103698731
2026-09-11T17:37:58.042,0.7349732160000144,0.0,0.0,0.0,0.0,0.0,0.0,0.0,0.0,0.0,0.0,0.000152587890625,1.25,0.054931640625,0.0,0.0,0.0,1,1789162677.0781176,38.991390796666664,-76.93668626833333,-9.242,0,1,17.372224000000003,6.996025,72.09708099999999,1,1,1789162678.0377815,-0.8540046288625159,0.5188200984023024,0.012615191132727738,-0.036642275146428635,175.65938107579802,-0.9439697216874754,-62.52279097744385,-0.0007375761418928037,-0.002854136925786327,0.0016765632794657531,0.1716163778305054,0.7433440822601319,-9.668376394462586
2026-09-11T17:37:58.076,0.7683756799999912,0.0,0.0,0.0,0.0,0.0,0.0,0.0,0.0,0.0,0.0,0.000152587890625,1.25,0.054931640625,0.0,0.0,0.0,1,1789162677.0781176,38.991390796666664,-76.93668626833333,-9.242,0,1,17.372224000000003,6.996025,72.09708099999999,1,1,1789162678.0697815,-0.8540148349218426,0.5188001614155401,0.012668145444206805,-0.036668410650477726,175.65364861125684,-0.9402422474619769,-62.520323449287964,0.00013596114873035828,-0.0005921902152016761,-0.003218910739453142,0.1655362547302246,0.7500126043701173,-9.67582944858551
2026-09-11T17:37:58.109,0.8018041600000174,0.0,0.0,0.0,0.0,0.0,0.0,0.0,0.0,0.0,0.0,0.000152587890625,1.25,0.054931640625,0.0,0.0,0.0,1,1789162678.076475,38.99139066666667,-76.93668607666666,-9.267000000000003,0,1,17.372224000000003,6.996025,72.11406400000001,1,1,1789162678.0977814,-0.8539939164954358,0.5188400646170627,0.012670002737325504,-0.03659028515309734,175.66124210915964,-0.935612979586793,-62.52571761036674,-0.002101550952326372,-0.005049935657720393,0.0001392772743091475,0.17083184581756594,0.7471686758232116,-9.69230462085724
2026-09-11T17:37:58.142,0.8352134080000155,0.0,0.0,0.0,0.0,0.0,0.0,0.0,0.0,0.0,0.0,0.000152587890625,1.25,0.054931640625,0.0,0.0,0.0,1,1789162678.076475,38.99139066666667,-76.93668607666666,-9.267000000000003,0,1,17.372224000000003,6.996025,72.11406400000001,1,1,1789162678.1377816,-0.8539788246240825,0.518867462550933,0.012705692233585527,-0.03654160347456241,175.66392324584453,-0.9293619040138991,-62.52956002536432,-0.00016144295580947546,0.0013749703847211329,-0.0023378685330464046,0.15955419813156127,0.7462860773086548,-9.678771443634032
2026-09-11T17:37:58.175,0.8686178560000144,0.0,0.0,0.0,0.0,0.0,0.0,0.0,0.0,0.0,0.0,0.000152587890625,1.25,0.054931640625,0.0,0.0,0.0,1,1789162678.076475,38.99139066666667,-76.93668607666666,-9.267000000000003,0,1,17.372224000000003,6.996025,72.11406400000001,1,1,1789162678.1697814,-0.8539601117603177,0.5189015719516171,0.01271428254808897,-0.036491549264639565,175.66835700071366,-0.9257145701182371,-62.5341911765406,-0.0014042919161546376,0.0014624113802460489,0.0008176867545593435,0.1558276710700989,0.7410885527229308,-9.685636098747253
2026-09-11T17:37:58.208,0.9020254719999912,0.0,0.0,0.0,0.0,0.0,0.0,0.0,0.0,0.0,0.0,0.000152587890625,1.25,0.054931640625,0.0,0.0,0.0,1,1789162678.076475,38.99139066666667,-76.93668607666666,-9.267000000000003,0,1,17.372224000000003,6.996025,72.11406400000001,1,1,1789162678.1977816,-0.853975494428085,0.518877246149543,0.0127442827287992,-0.0364669933268842,175.66895462935025,-0.9211940103450691,-62.53106691353677,-0.00016999506914424772,-0.0035058428684810097,-0.0025357888702225613,0.16641885324478148,0.7359890946388246,-9.673671985549927
2026-09-11T17:37:58.242,0.9354265919999989,0.0,0.0,0.0,0.0,0.0,0.0,0.0,0.0,0.0,0.0,0.000152587890625,1.25,0.054931640625,0.0,0.0,0.0,1,1789162678.076475,38.99139066666667,-76.93668607666666,-9.267000000000003,0,1,17.372224000000003,6.996025,72.11406400000001,1,1,1789162678.2417815,-0.8539568589969575,0.5189122769309402,0.01267396694888326,-0.036429416467685855,175.67685734724532,-0.9260146454247045,-62.53549143870161,0.0014201744123477859,0.004113042915249837,0.0017013469548440724,0.16857631628036499,0.7449131462860107,-9.687793561782836
2026-09-11T17:37:58.277,0.9688458239999989,0.0,0.0,0.0,0.0,0.0,0.0,0.0,0.0,0.0,0.0,0.000152587890625,1.25,0.054931640625,0.0,0.0,0.0,1,1789162678.076475,38.99139066666667,-76.93668607666666,-9.267000000000003,0,1,17.372224000000003,6.996025,72.11406400000001,1,1,1789162678.2697816,-0.8539516774231185,0.5189167638959443,0.012649278752301808,-0.036495486310629,175.67185249323174,-0.9323863620026657,-62.53595844865496,-0.0006948155752189426,0.0009049532171590598,-0.001555262896452147,0.17230284334182738,0.7441286142730713,-9.676613980598448
2026-09-11T17:37:58.309,1.002267680000017,0.0,0.0,0.0,0.0,0.0,0.0,0.0,0.0,0.0,0.0,0.000152587890625,1.25,0.054931640625,0.0,0.0,0.0,1,1789162678.076475,38.99139066666667,-76.93668607666666,-9.267000000000003,0,1,17.372224000000003,6.996025,72.11406400000001,1,1,1789162678.3017814,-0.8539517361108275,0.5189154920615016,0.012635941729518643,-0.03651681076547531,175.6705534001167,-0.934954425376521,-62.53572264785938,-0.0016320573835398975,-0.00023492131731843674,6.981317007977318e-06,0.16710531875610352,0.7433440822601319,-9.681811505184173
2026-09-11T17:37:58.342,1.035673887999991,0.0,0.0,0.0,0.0,0.0,0.0,0.0,0.0,0.0,0.0,0.000152587890625,1.25,0.054931640625,0.0,0.0,0.0,1,1789162678.076475,38.99139066666667,-76.93668607666666,-9.267000000000003,0,1,17.372224000000003,6.996025,72.11406400000001,1,1,1789162678.3377814,-0.8539330873083925,0.5189467514860432,0.012572420395150252,-0.03653061411265904,175.67301132901983,-0.9421498282265257,-62.5396449475574,-0.001629788455512305,0.0001788962483294188,-0.0009065240134858548,0.16710531875610352,0.7448150797843933,-9.677300446109772
2026-09-11T17:37:58.375,1.0690821439999922,0.0,0.0,0.0,0.0,0.0,0.0,0.0,0.0,0.0,0.0,0.000152587890625,1.25,0.054931640625,0.0,0.0,0.0,1,1789162678.076475,38.99139066666667,-76.93668607666666,-9.267000000000003,0,1,17.372224000000003,6.996025,72.11406400000001,1,1,1789162678.3697815,-0.8539314626356951,0.5189506452375455,0.012548869617007984,-0.036521374559744905,175.67532183608154,-0.9439237791854815,-62.54007533173162,-0.0013744467859455344,-0.0005581562947877866,-0.0005232497097479,0.1738719073677063,0.7411866192245483,-9.67739851261139
2026-09-11T17:37:58.408,1.1024841919999915,0.0,0.0,0.0,0.0,0.0,0.0,0.0,0.0,0.0,0.0,0.000152587890625,1.25,0.054931640625,0.0,0.0,0.0,1,1789162678.076475,38.99139066666667,-76.93668607666666,-9.267000000000003,0,1,17.372224000000003,6.996025,72.11406400000001,1,1,1789162678.3977816,-0.8539270041448714,0.5189563067452981,0.012529872314747725,-0.03655168369885208,175.67348617618478,-0.9476157510691184,-62.540741075497955,0.0018320721158184476,0.0008141960960553546,0.0013271483632164881,0.16710531875610352,0.7396175551986695,-9.669847391986847
2026-09-11T17:37:58.443,1.1358915840000066,0.0,0.0,0.0,0.0,0.0,0.0,0.0,0.0,0.0,0.0,0.000152587890625,1.25,0.054931640625,0.0,0.0,0.0,1,1789162678.076475,38.99139066666667,-76.93668607666666,-9.267000000000003,0,1,17.372224000000003,6.996025,72.11406400000001,1,1,1789162678.4377816,-0.8539346062785489,0.518936754532276,0.012620029821979298,-0.03662059315058428,175.66134774717472,-0.9427977937320648,-62.53845419878754,-0.001214574626462854,0.0012189379495928397,-0.0003679154063204047,0.1760293704032898,0.7493261388587952,-9.67504491657257
2026-09-11T17:37:58.476,1.1693044479999912,0.0,0.0,0.0,0.0,0.0,0.0,0.0,0.0,0.0,0.0,0.000152587890625,1.25,0.054931640625,0.0,0.0,0.0,1,1789162678.076475,38.99139066666667,-76.93668607666666,-9.267000000000003,0,1,17.372224000000003,6.996025,72.11406400000001,1,1,1789162678.4697814,-0.8539460079058957,0.5189116800563118,0.012677960366667459,-0.036689960529560625,175.6510746804633,-0.9411318490477174,-62.535296461229194,-0.001990548011899533,-0.001726130630222392,-0.001128704427264733,0.17083184581756594,0.7411866192245483,-9.67739851261139
2026-09-11T17:37:58.509,1.202717760000013,0.0,0.0,0.0,0.0,0.0,0.0,0.0,0.0,0.0,0.0,0.000152587890625,1.25,0.054931640625,0.0,0.0,0.0,1,1789162678.076475,38.99139066666667,-76.93668607666666,-9.267000000000003,0,1,17.372224000000003,6.996025,72.11406400000001,1,1,1789162678.4977815,-0.8539192162437772,0.5189696488845995,0.012489073591756588,-0.03655815513710299,175.67529251309227,-0.9520605149913565,-62.5423595384229,0.0004180063558526419,-0.0009625490824748727,0.0020282471237426103,0.1716163778305054,0.7359890946388246,-9.678183044624328
2026-09-11T17:37:58.542,1.2361260160000143,0.0,0.0,0.0,0.0,0.0,0.0,0.0,0.0,0.0,0.0,0.000152587890625,1.25,0.054931640625,0.0,0.0,0.0,1,1789162678.076475,38.99139066666667,-76.93668607666666,-9.267000000000003,0,1,17.372224000000003,6.996025,72.11406400000001,1,1,1789162678.5377815,-0.8539152965653939,0.5189740770593411,0.01243628959480804,-0.03660481297800393,175.67386182721208,-0.9600255207361327,-62.54271417421423,-0.0015453145197157792,-0.002636843433913033,-0.0021270327594054895,0.1716163778305054,0.7419711512374878,-9.67965404214859
2026-09-11T17:37:58.575,1.2695307840000112,0.0,0.0,0.0,0.0,0.0,0.0,0.0,0.0,0.0,0.0,0.000152587890625,1.25,0.054931640625,0.0,0.0,0.0,1,1789162678.076475,38.99139066666667,-76.93668607666666,-9.267000000000003,0,1,17.372224000000003,6.996025,72.11406400000001,1,1,1789162678.5697815,-0.8539183290303617,0.5189658222603305,0.012499737686980296,-0.036629485792328505,175.66766086497037,-0.9552446638597922,-62.541853430140506,-0.0013021901549129691,-0.004235565028739839,-0.0015584044891057368,0.17828489994049074,0.7493261388587952,-9.683282502708435
2026-09-11T17:37:58.609,1.3029340479999973,0.0,0.0,0.0,0.0,0.0,0.0,0.0,0.0,0.0,0.0,0.000152587890625,1.25,0.054931640625,0.0,0.0,0.0,1,1789162678.076475,38.99139066666667,-76.93668607666666,-9.267000000000003,0,1,17.372224000000003,6.996025,72.11406400000001,1,1,1789162678.5977814,-0.8539098066800432,0.5189779499725462,0.01247742576189171,-0.03666392428942938,175.6656248039793,-0.9595396911410426,-62.543369964039435,0.00011344640137963142,-0.003458369912826764,0.001600815989929199,0.1745583728790283,0.7449131462860107,-9.67582944858551
2026-09-11T17:37:58.643,1.3363427520000073,0.0,0.0,0.0,0.0,0.0,0.0,0.0,0.0,0.0,0.0,0.000152587890625,1.25,0.054931640625,0.0,0.0,0.0,1,1789162678.076475,38.99139066666667,-76.93668607666666,-9.267000000000003,0,1,17.372224000000003,6.996025,72.11406400000001,1,1,1789162678.6377816,-0.8539350694306669,0.5189250321237033,0.012742713928337743,-0.03673324752314123,175.64299514722782,-0.9374410387133186,-62.53733037473282,-0.00177587251390423,-0.0052420964083649685,-0.00038938295611993493,0.1632807251930237,0.7528565329170227,-9.676515914096832
2026-09-11T17:37:58.677,1.3697665280000137,0.0,0.0,0.0,0.0,0.0,0.0,0.0,0.0,0.0,0.0,0.000152587890625,1.25,0.054931640625,0.0,0.0,0.0,1,1789162678.076475,38.99139066666667,-76.93668607666666,-9.267000000000003,0,1,17.372224000000003,6.996025,72.11406400000001,1,1,1789162678.6697814,-0.8539359332188659,0.5189196506549119,0.012750453943630695,-0.03678646552796542,175.63731135572434,-0.9398246000461891,-62.536614174995336,1.5184364492350667e-05,-0.004577125963355129,-0.001894205837189446,0.18210949350357056,0.7435402152633667,-9.681811505184173
2026-09-11T17:37:58.710,1.4031864640000151,0.0,0.0,0.0,0.0,0.0,0.0,0.0,0.0,0.0,0.0,0.000152587890625,1.25,0.054931640625,0.0,0.0,0.0,1,1789162678.076475,38.99139066666667,-76.93668607666666,-9.267000000000003,0,1,17.372224000000003,6.996025,72.11406400000001,1,1,1789162678.7017815,-0.8539244351522426,0.5189500128746084,0.012691724852913932,-0.03664509936710923,175.6546965867891,-0.937309179398553,-62.540512711779876,0.0011648327427810155,-0.003435506099625638,-0.0003052580861738082,0.1648497892189026,0.7367736266517639,-9.690147157821656
2026-09-11T17:37:58.742,1.4365923200000168,0.0,0.0,0.0,0.0,0.0,0.0,0.0,0.0,0.0,0.0,0.000152587890625,1.25,0.054931640625,0.0,0.0,0.0,1,1789162678.076475,38.99139066666667,-76.93668607666666,-9.267000000000003,0,1,17.372224000000003,6.996025,72.11406400000001,1,1,1789162678.7377815,-0.853931811634901,0.5189377991916562,0.012688476586458216,-0.036647294715590126,175.6546611275429,-0.937695617301561,-62.53886149933744,-0.00094492125702973,-0.002880142331641043,-0.00022741640153486114,0.1775984344291687,0.7426576167488099,-9.67582944858551
2026-09-11T17:37:58.776,1.4699990400000047,0.0,0.0,0.0,0.0,0.0,0.0,0.0,0.0,0.0,0.0,0.000152587890625,1.25,0.054931640625,0.0,0.0,0.0,1,1789162678.076475,38.99139066666667,-76.93668607666666,-9.267000000000003,0,1,17.372224000000003,6.996025,72.11406400000001,1,1,1789162678.7697816,-0.8539109777566022,0.5189816622393453,0.012635011504798531,-0.036529889273352524,175.66939878354574,-0.9361593075582784,-62.54457971979377,0.000899368163552678,-0.0032871531132061204,-0.0009592329568960836,0.1596522646331787,0.7425595502471923,-9.681125039672851
2026-09-11T17:37:58.811,1.5034191999999962,0.0,0.0,0.0,0.0,0.0,0.0,0.0,0.0,0.0,0.0,0.000152587890625,1.25,0.054931640625,0.0,0.0,0.0,1,1789162678.076475,38.99139066666667,-76.93668607666666,-9.267000000000003,0,1,17.372224000000003,6.996025,72.11406400000001,1,1,1789162678.8017814,-0.8538883535246323,0.5190236948921136,0.012563793059307443,-0.03648609268602712,175.67797375692024,-0.9407324037871644,-62.549943873255145,0.0013894566175126858,-0.0020771163427984515,0.0009604546873724796,0.17838296644210816,0.7405001537132263,-9.680340507659912
2026-09-11T17:37:58.845,1.5368290879999904,0.0,0.0,0.0,0.0,0.0,0.0,0.0,0.0,0.0,0.0,0.000152587890625,1.25,0.054931640625,0.0,0.0,0.0,1,1789162678.076475,38.99139066666667,-76.93668607666666,-9.267000000000003,0,1,17.372224000000003,6.996025,72.11406400000001,1,1,1789162678.8417816,-0.8538932916169792,0.519013776783429,0.012535766084633986,-0.03652123504473521,175.67618437092148,-0.9455169630521989,-62.548482477101224,-0.0020299924529946045,-1.361356816555577e-05,-0.0009082693427378491,0.16710531875610352,0.7397156217002868,-9.682596037197113
2026-09-11T17:37:58.877,1.5702356799999961,0.0,0.0,0.0,0.0,0.0,0.0,0.0,0.0,0.0,0.0,0.000152587890625,1.25,0.054931640625,0.0,0.0,0.0,1,1789162678.076475,38.99139066666667,-76.93668607666666,-9.267000000000003,0,1,17.372224000000003,6.996025,72.11406400000001,1,1,1789162678.8697815,-0.8538833949412401,0.5190318265741551,0.01253811813932114,-0.03649529339849936,175.67860761523318,-0.943833423483106,-62.550924291523984,0.0012070697106792783,-0.0008066911802717791,0.0002558652683423687,0.16779178426742553,0.7455996117973328,-9.684067034721375
2026-09-11T17:37:58.911,1.6036436159999994,0.0,0.0,0.0,0.0,0.0,0.0,0.0,0.0,0.0,0.0,0.000152587890625,1.25,0.054931640625,0.0,0.0,0.0,1,1789162678.076475,38.99139066666667,-76.93668607666666,-9.267000000000003,0,1,17.372224000000003,6.996025,72.11406400000001,1,1,1789162678.9017816,-0.8538934906910662,0.5190073604863338,0.012577751373199882,-0.03659325739570919,175.66661964755045,-0.9456650743658508,-62.54775721318276,0.0014130185624146093,-0.000703018622703316,0.0015700981950940989,0.17906943195343017,0.7449131462860107,-9.683380569210053
2026-09-11T17:37:58.945,1.6370599040000116,0.0,0.0,0.0,0.0,0.0,0.0,0.0,0.0,0.0,0.0,0.000152587890625,1.25,0.054931640625,0.0,0.0,0.0,1,1789162678.076475,38.99139066666667,-76.93668607666666,-9.267000000000003,0,1,17.372224000000003,6.996025,72.11406400000001,1,1,1789162678.9417815,-0.8539024063836086,0.518984517319402,0.012708636382009777,-0.03666390208829075,175.65188529701322,-0.9369494888498076,-62.545196740097694,-0.0013259266327400921,-0.0018901915799098587,4.939281783143953e-05,0.1760293704032898,0.755210128955841,-9.672004855022431
2026-09-11T17:37:58.978,1.6704634559999931,0.0,0.0,0.0,0.0,0.0,0.0,0.0,0.0,0.0,0.0,0.000152587890625,1.25,0.054931640625,0.0,0.0,0.0,1,1789162678.076475,38.99139066666667,-76.93668607666666,-9.267000000000003,0,1,17.372224000000003,6.996025,72.11406400000001,1,1,1789162678.9697814,-0.8538831613919401,0.5190108793553952,0.012861800472783645,-0.03668552699149486,175.6406854154907,-0.9233858402507187,-62.54935098001841,0.0007197737835224615,0.0014751522837856074,0.0020608847807549045,0.13464530672073363,0.7653109786224365,-9.688381960792542
2026-09-11T17:37:59.011,1.703878144000015,0.0,0.0,0.0,0.0,0.0,0.0,0.0,0.0,0.0,0.0,0.000152587890625,1.25,0.054931640625,0.0,0.0,0.0,1,1789162678.076475,38.99139066666667,-76.93668607666666,-9.267000000000003,0,1,17.372224000000003,6.996025,72.11406400000001,1,1,1789162679.0017815,-0.8538746780438173,0.5190220392146939,0.012971333506242529,-0.03668653039002043,175.6340848640367,-0.9127861146060681,-62.55130071018882,0.0019315558831821246,0.006707474848339408,0.003705508534909161,0.15955419813156127,0.7477570748329162,-9.6937756183815
2026-09-11T17:37:59.044,1.7373337600000127,0.0,0.0,0.0,0.0,0.0,0.0,0.0,0.0,0.0,0.0,0.000152587890625,1.25,0.054931640625,0.0,0.0,0.0,1,1789162678.076475,38.99139066666667,-76.93668607666666,-9.267000000000003,0,1,17.372224000000003,6.996025,72.11406400000001,1,1,1789162679.0377815,-0.8538570445754198,0.5190628222793457,0.012586534771215518,-0.0366539642983241,175.66020721687974,-0.9487020359130983,-62.555195016738836,0.00016074482410867775,0.01200070940378781,0.004306774462221208,0.18760121759414675,0.7097072722053528,-9.681419239177705
2026-09-11T17:37:59.077,1.7707327999999904,0.0,0.0,0.0,0.0,0.0,0.0,0.0,0.0,0.0,0.0,0.000152587890625,1.25,0.054931640625,0.0,0.0,0.0,1,1789162678.076475,38.99139066666667,-76.93668607666666,-9.267000000000003,0,1,17.372224000000003,6.996025,72.11406400000001,1,1,1789162679.0697815,-0.8538624322640237,0.5190719829280109,0.011916212589999408,-0.03662276866729482,175.7031413225091,-1.012474489368058,-62.55373512020307,0.0012952088379049919,0.017925404082607763,0.0009709266628844455,0.19446587270736695,0.69568376247406,-9.681517305679321
2026-09-11T17:37:59.110,1.8041361920000156,0.0,0.0,0.0,0.0,0.0,0.0,0.0,0.0,0.0,0.0,0.000152587890625,1.25,0.054931640625,0.0,0.0,0.0,1,1789162679.0797272,38.99139054333333,-76.93668591666666,-9.275000000000002,0,1,17.363888999999997,6.996025,72.11406400000001,1,1,1789162679.1017816,-0.8539167874663856,0.5189793908132821,0.011855804262239108,-0.03668721711247602,175.70030500962457,-1.0217569987469017,-62.54105042371482,0.001207767842380076,0.016754113621594367,0.00016720254234105678,0.18220756000518798,0.7250056464576721,-9.667787995452882
2026-09-11T17:37:59.145,1.837555392000013,0.0,0.0,0.0,0.0,0.0,0.0,0.0,0.0,0.0,0.0,0.000152587890625,1.25,0.054931640625,0.0,0.0,0.0,1,1789162679.0797272,38.99139054333333,-76.93668591666666,-9.275000000000002,0,1,17.363888999999997,6.996025,72.11406400000001,1,1,1789162679.1377816,-0.8539215263316123,0.5189583201436504,0.011625169367041586,-0.03694785864373732,175.6884375821958,-1.059736270264359,-62.53716754596705,0.0004312708581677988,0.004249527662755793,0.0021649064041737664,0.21280430850982668,0.7473648088264465,-9.680340507659912
2026-09-11T17:37:59.178,1.8709671360000186,0.0,0.0,0.0,0.0,0.0,0.0,0.0,0.0,0.0,0.0,0.000152587890625,1.25,0.054931640625,0.0,0.0,0.0,1,1789162679.0797272,38.99139054333333,-76.93668591666666,-9.275000000000002,0,1,17.363888999999997,6.996025,72.11406400000001,1,1,1789162679.1697814,-0.853958485165918,0.5188664542823339,0.011782806162776598,-0.0373319395764494,175.64129320782598,-1.0667100846131674,-62.5252613639829,0.0020800834025268417,0.0002541199390903744,-0.0005850343652684993,0.20211505983352662,0.775902160797119,-9.660629140834809
2026-09-11T17:37:59.210,1.904368672000004,0.0,0.0,0.0,0.0,0.0,0.0,0.0,0.0,0.0,0.0,0.000152587890625,1.25,0.054931640625,0.0,0.0,0.0,1,1789162679.0797272,38.99139054333333,-76.93668591666666,-9.275000000000002,0,1,17.363888999999997,6.996025,72.11406400000001,1,1,1789162679.2017815,-0.8539588613661163,0.5188317602780247,0.01192031997983297,-0.037759417271335166,175.59115893779327,-1.0785217581881819,-62.520916560347146,0.0009018116245054701,-0.003298672286269283,-0.00036843900509600297,0.25301157417297365,0.7792364218521118,-9.66435566789627
2026-09-11T17:37:59.244,1.9377759040000058,0.0,0.0,0.0,0.0,0.0,0.0,0.0,0.0,0.0,0.0,0.000152587890625,1.25,0.054931640625,0.0,0.0,0.0,1,1789162679.0797272,38.99139054333333,-76.93668591666666,-9.275000000000002,0,1,17.363888999999997,6.996025,72.11406400000001,1,1,1789162679.2377815,-0.8539519537391869,0.5188350700963702,0.012060780697936946,-0.03782549817354545,175.57633446638704,-1.0687276976250808,-62.52189085939909,0.001660855316197804,-0.0054054592263516376,-0.0011866493584309446,0.17367577436447143,0.7669781091499329,-9.682399904193879
2026-09-11T17:37:59.278,1.971199616000007,0.0,0.0,0.0,0.0,0.0,0.0,0.0,0.0,0.0,0.0,0.000152587890625,1.25,0.054931640625,0.0,0.0,0.0,1,1789162679.0797272,38.99139054333333,-76.93668591666666,-9.275000000000002,0,1,17.363888999999997,6.996025,72.11406400000001,1,1,1789162679.2697816,-0.8539543107560373,0.518833628934018,0.012208163297426968,-0.0377446867418746,175.5754964355681,-1.0494880820565378,-62.522344722950116,0.002354274628015151,-0.008222420639070485,0.0006119124357492119,0.1744603063774109,0.7596231215286255,-9.683968968219757
2026-09-11T17:37:59.313,2.004611135999994,0.0,0.0,0.0,0.0,0.0,0.0,0.0,0.0,0.0,0.0,0.000152587890625,1.25,0.054931640625,0.0,0.0,0.0,1,1789162679.0797272,38.99139054333333,-76.93668591666666,-9.275000000000002,0,1,17.363888999999997,6.996025,72.11406400000001,1,1,1789162679.3097816,-0.8539632794633321,0.5188276204808098,0.01255318403957818,-0.037510466871535524,175.57794707643419,-1.001754073247515,-62.5230873541775,-0.00024172810140121463,-0.013109691610505007,-0.0008281587300713094,0.14386355787277222,0.7490319393539429,-9.672004855022431
2026-09-11T17:37:59.346,2.0380300799999986,0.0,0.0,0.0,0.0,0.0,0.0,0.0,0.0,0.0,0.0,0.000152587890625,1.25,0.054931640625,0.0,0.0,0.0,1,1789162679.0797272,38.99139054333333,-76.93668591666666,-9.275000000000002,0,1,17.363888999999997,6.996025,72.11406400000001,1,1,1789162679.3377814,-0.8539532214615638,0.518860396714176,0.012606770295221004,-0.03726732643682357,175.5986402287313,-0.9822063629302057,-62.52783105706152,0.001687907919603716,-0.004332605335150724,0.001322959573011702,0.18210949350357056,0.7362832941436767,-9.704366800556182
2026-09-11T17:37:59.379,2.0714526080000155,0.0,0.0,0.0,0.0,0.0,0.0,0.0,0.0,0.0,0.0,0.000152587890625,1.25,0.054931640625,0.0,0.0,0.0,1,1789162679.0797272,38.99139054333333,-76.93668591666666,-9.275000000000002,0,1,17.363888999999997,6.996025,72.11406400000001,1,1,1789162679.3697815,-0.8539303775290766,0.5189162938317945,0.012372963780549247,-0.03709043132949995,175.62994938199134,-0.9948398834456731,-62.534456370172805,0.0013096950706965448,0.0011410962649538925,0.0018580775216731633,0.1701453803062439,0.7280457080078125,-9.693971751384735
2026-09-11T17:37:59.411,2.104873728000001,0.0,0.0,0.0,0.0,0.0,0.0,0.0,0.0,0.0,0.0,0.000152587890625,1.25,0.054931640625,0.0,0.0,0.0,1,1789162679.0797272,38.99139054333333,-76.93668591666666,-9.275000000000002,0,1,17.363888999999997,6.996025,72.11406400000001,1,1,1789162679.4017816,-0.8539269665088411,0.5189522714653276,0.012148852644803119,-0.036738007422832945,175.67786940201958,-0.9959699251233447,-62.53855935688736,0.0005618214862169748,0.009390744040355491,-0.0009168214560726214,0.19299487518310546,0.6912707699012756,-9.672593254032135
2026-09-11T17:37:59.446,2.138295424000006,0.0,0.0,0.0,0.0,0.0,0.0,0.0,0.0,0.0,0.0,0.000152587890625,1.25,0.054931640625,0.0,0.0,0.0,1,1789162679.0797272,38.99139054333333,-76.93668591666666,-9.275000000000002,0,1,17.363888999999997,6.996025,72.11406400000001,1,1,1789162679.4377816,-0.8539446292152875,0.5189636592433844,0.011736783291569691,-0.03629791367349059,175.7455309999649,-1.0101465613148317,-62.53868571644379,0.0006251769380643688,0.012767781610039318,0.0018868754543310696,0.13091877965927123,0.6804834547233581,-9.679359842643738
2026-09-11T17:37:59.479,2.171718496000011,0.0,0.0,0.0,0.0,0.0,0.0,0.0,0.0,0.0,0.0,0.000152587890625,1.25,0.054931640625,0.0,0.0,0.0,1,1789162679.0797272,38.99139054333333,-76.93668591666666,-9.275000000000002,0,1,17.363888999999997,6.996025,72.11406400000001,1,1,1789162679.4697814,-0.8539333475485755,0.5189722487074689,0.011797074675974172,-0.03642076392782378,175.7299119873569,-1.0116038471962105,-62.54000714372936,0.0008597491895324067,0.014999359591639269,0.0023764403095154793,0.20064406230926513,0.7641341806030274,-9.667395729446412
2026-09-11T17:37:59.512,2.2051396159999967,0.0,0.0,0.0,0.0,0.0,0.0,0.0,0.0,0.0,0.0,0.000152587890625,1.25,0.054931640625,0.0,0.0,0.0,1,1789162679.0797272,38.99139054333333,-76.93668591666666,-9.275000000000002,0,1,17.363888999999997,6.996025,72.11406400000001,1,1,1789162679.5097816,-0.853963193015613,0.5188830650105574,0.011623364630274823,-0.03704223554943739,175.67919794559194,-1.0651512923971516,-62.52702113414594,-0.0006852162643329738,0.00978187232572742,0.00020734511513692636,0.18367855752944948,0.7302031710433959,-9.668474460964202
2026-09-11T17:37:59.545,2.2386171839999918,0.0,0.0,0.0,0.0,0.0,0.0,0.0,0.0,0.0,0.0,0.000152587890625,1.25,0.054931640625,0.0,0.0,0.0,1,1789162679.0797272,38.99139054333333,-76.93668591666666,-9.275000000000002,0,1,17.363888999999997,6.996025,72.11406400000001,1,1,1789162679.5377815,-0.8539993784566874,0.5188337653359721,0.011545659651069193,-0.03692266629199951,175.6954796377521,-1.0653893022896905,-62.52017736661169,0.0006063273821428301,0.012150284120683724,-0.00028832839242946324,0.1794616979598999,0.7014696860694885,-9.67543718257904
2026-09-11T17:37:59.579,2.272047839999999,0.0,0.0,0.0,0.0,0.0,0.0,0.0,0.0,0.0,0.0,0.000152587890625,1.25,0.054931640625,0.0,0.0,0.0,1,1789162679.0797272,38.99139054333333,-76.93668591666666,-9.275000000000002,0,1,17.363888999999997,6.996025,72.11406400000001,1,1,1789162679.5697637,-0.8539939114402089,0.5188281680319332,0.011750355605678428,-0.03706292517895594,175.66955282184097,-1.0536780611360725,-62.52015572999206,0.0007096508738608944,0.005313131308921138,0.001587900553464441,0.18465922254562378,0.7950251286125184,-9.673181653041839
2026-09-11T17:37:59.613,2.305468480000002,0.0,0.0,0.0,0.0,0.0,0.0,0.0,0.0,0.0,0.0,0.000152587890625,1.25,0.054931640625,0.0,0.0,0.0,1,1789162679.0797272,38.99139054333333,-76.93668591666666,-9.275000000000002,0,1,17.363888999999997,6.996025,72.11406400000001,1,1,1789162679.6097636,-0.8539526956389287,0.5188319867643949,0.011902878594400802,-0.03790098418622843,175.57831395817075,-1.0886563992334277,-62.5207935435451,0.0007611380867947272,-0.004461061568097506,0.0017828538309122078,0.22957368028640748,0.8048317787742615,-9.664061468391418
2026-09-11T17:37:59.646,2.3388861120000115,0.0,0.0,0.0,0.0,0.0,0.0,0.0,0.0,0.0,0.0,0.000152587890625,1.25,0.054931640625,0.0,0.0,0.0,1,1789162679.0797272,38.99139054333333,-76.93668591666666,-9.275000000000002,0,1,17.363888999999997,6.996025,72.11406400000001,1,1,1789162679.6377637,-0.8539573786277895,0.5188216464984298,0.011763825358610395,-0.03798035050844617,175.5787827862541,-1.1069342265092628,-62.5188000698478,0.000324107642095347,-0.0061042890588501675,-0.0016530013345638296,0.23594800289154055,0.7432460157585143,-9.693873684883117
2026-09-11T17:37:59.679,2.372302944000012,0.0,0.0,0.0,0.0,0.0,0.0,0.0,0.0,0.0,0.0,0.000152587890625,1.25,0.054931640625,0.0,0.0,0.0,1,1789162679.0797272,38.99139054333333,-76.93668591666666,-9.275000000000002,0,1,17.363888999999997,6.996025,72.11406400000001,1,1,1789162679.6697638,-0.8539626143039039,0.5188262371824518,0.011689964280343449,-0.0378223970348817,175.59866771151408,-1.1047837396595992,-62.519213262115834,-2.7401669256310975e-05,-0.011346909065990734,-0.003365343863695466,0.19623106973648072,0.7575637249946594,-9.674946850070953
2026-09-11T17:37:59.714,2.405720991999999,0.0,0.0,0.0,0.0,0.0,0.0,0.0,0.0,0.0,0.0,0.000152587890625,1.25,0.054931640625,0.0,0.0,0.0,1,1789162679.0797272,38.99139054333333,-76.93668591666666,-9.275000000000002,0,1,17.363888999999997,6.996025,72.11406400000001,1,1,1789162679.7097638,-0.8539730172428605,0.5188006644595204,0.012216562839999461,-0.03777184096468808,175.57229405837745,-1.0501117986553183,-62.517946448433946,0.002217964413434394,-0.021127210595391358,-0.0010084512418023237,0.20437058937072755,0.7723717667388915,-9.671906788520813
2026-09-11T17:37:59.746,2.4391376640000146,0.0,0.0,0.0,0.0,0.0,0.0,0.0,0.0,0.0,0.0,0.000152587890625,1.25,0.054931640625,0.0,0.0,0.0,1,1789162679.0797272,38.99139054333333,-76.93668591666666,-9.275000000000002,0,1,17.363888999999997,6.996025,72.11406400000001,1,1,1789162679.7377636,-0.8539661105796498,0.5188375310264388,0.012342410791134743,-0.03737864732327192,175.6034135054676,-1.0145830363565052,-62.52362056863302,-0.00037611845380477804,-0.017595536853980836,-0.0008892452538911109,0.16053486314773557,0.7139241317749023,-9.69112782283783
2026-09-11T17:37:59.779,2.472554975999998,0.0,0.0,0.0,0.0,0.0,0.0,0.0,0.0,0.0,0.0,0.000152587890625,1.25,0.054931640625,0.0,0.0,0.0,1,1789162679.0797272,38.99139054333333,-76.93668591666666,-9.275000000000002,0,1,17.363888999999997,6.996025,72.11406400000001,1,1,1789162679.7697637,-0.8539932832635369,0.5188296635845862,0.012617487846095763,-0.0367702505556213,175.6467070961525,-0.951411132576916,-62.52401658681933,-0.0018025760514597435,-0.010814060045356866,-0.0023694589925075016,0.15072821298599243,0.7183371243476867,-9.700051874485016
2026-09-11T17:37:59.813,2.5059762559999967,0.0,0.0,0.0,0.0,0.0,0.0,0.0,0.0,0.0,0.0,0.000152587890625,1.25,0.054931640625,0.0,0.0,0.0,1,1789162679.0797272,38.99139054333333,-76.93668591666666,-9.275000000000002,0,1,17.363888999999997,6.996025,72.11406400000001,1,1,1789162679.8097637,-0.8540206328862998,0.5187946055416998,0.012900437598958418,-0.03653073466372633,175.6533330404762,-0.9092887510973148,-62.520605877820195,0.0009070476122614531,0.0011023499555596185,0.000742113997947989,0.12670192008972167,0.7371658926582336,-9.669847391986847
2026-09-11T17:37:59.847,2.5393956160000073,0.0,0.0,0.0,0.0,0.0,0.0,0.0,0.0,0.0,0.0,0.000152587890625,1.25,0.054931640625,0.0,0.0,0.0,1,1789162679.0797272,38.99139054333333,-76.93668591666666,-9.275000000000002,0,1,17.363888999999997,6.996025,72.11406400000001,1,1,1789162679.8377638,-0.8540182067397873,0.5188124028763067,0.012816061305885964,-0.03636401725984484,175.67471446443858,-0.9077123783137019,-62.52272408452797,-0.002097013096271187,0.0037803831598197174,0.0009164723902222225,0.17475450588226318,0.7125512007522583,-9.692598820362091
2026-09-11T17:37:59.880,2.5728132160000143,0.0,0.0,0.0,0.0,0.0,0.0,0.0,0.0,0.0,0.0,0.000152587890625,1.25,0.054931640625,0.0,0.0,0.0,1,1789162679.0797272,38.99139054333333,-76.93668591666666,-9.275000000000002,0,1,17.363888999999997,6.996025,72.11406400000001,1,1,1789162679.8697636,-0.8540200373991376,0.5188123393474067,0.012701690168508264,-0.03636205891461524,175.68170557982668,-0.9187871636542684,-62.52224675051145,-0.0012009610582972982,0.005863259089149751,0.0017964673990777634,0.16416332370758058,0.7410885527229308,-9.675142983074188
2026-09-11T17:37:59.913,2.606236031999998,0.0,0.0,0.0,0.0,0.0,0.0,0.0,0.0,0.0,0.0,0.000152587890625,1.25,0.054931640625,0.0,0.0,0.0,1,1789162679.0797272,38.99139054333333,-76.93668591666666,-9.275000000000002,0,1,17.363888999999997,6.996025,72.11406400000001,1,1,1789162679.9097636,-0.8540414697783918,0.5187521250760252,0.01276703116271136,-0.03669337192413014,175.6452705430063,-0.9318068827321386,-62.51428143638957,0.0011740829878165854,0.009586220916578856,0.0021706659907053476,0.17367577436447143,0.7625651165771484,-9.677888845119476
2026-09-11T17:37:59.946,2.6396508480000023,0.0,0.0,0.0,0.0,0.0,0.0,0.0,0.0,0.0,0.0,0.000152587890625,1.25,0.054931640625,0.0,0.0,0.0,1,1789162679.0797272,38.99139054333333,-76.93668591666666,-9.275000000000002,0,1,17.363888999999997,6.996025,72.11406400000001,1,1,1789162679.9377637,-0.8540115837391362,0.5188058114133547,0.012600344400170337,-0.03668754835226703,175.6558087915172,-0.9480446990593355,-62.52079257830421,-0.0011606439525762293,0.00857235915409535,0.0016364207066698834,0.17318544185638426,0.7338316316032409,-9.68122310617447
2026-09-11T17:37:59.980,2.6730707199999983,0.0,0.0,0.0,0.0,0.0,0.0,0.0,0.0,0.0,0.0,0.000152587890625,1.25,0.054931640625,0.0,0.0,0.0,1,1789162679.0797272,38.99139054333333,-76.93668591666666,-9.275000000000002,0,1,17.363888999999997,6.996025,72.11406400000001,1,1,1789162679.9697638,-0.8539926423149831,0.5188360058720651,0.012483111317014111,-0.03674149989375573,175.65752153075826,-0.9628811689202466,-62.524331368665734,-0.0014700908289548237,0.005675287128709961,0.0014662511046004362,0.1760293704032898,0.7470706093215942,-9.672102921524049
2026-09-11T17:38:00.014,2.706492192000013,0.0,0.0,0.0,0.0,0.0,0.0,0.0,0.0,0.0,0.0,0.000152587890625,1.25,0.054931640625,0.0,0.0,0.0,1,1789162679.0797272,38.99139054333333,-76.93668591666666,-9.275000000000002,0,1,17.363888999999997,6.996025,72.11406400000001,1,1,1789162680.0097637,-0.8539618235847354,0.5188718067954865,0.012268496006265056,-0.037023451734879816,175.64267554793085,-1.0008475171179354,-62.52810585574809,0.0012808971380386385,0.007654315967546331,0.0029976029903002613,0.22849494876861573,0.7483454738426208,-9.690833623332978
2026-09-11T17:38:00.047,2.7399090240000135,0.0,0.0,0.0,0.0,0.0,0.0,0.0,0.0,0.0,0.0,0.000152587890625,1.25,0.054931640625,0.0,0.0,0.0,1,1789162679.0797272,38.99139054333333,-76.93668591666666,-9.275000000000002,0,1,17.363888999999997,6.996025,72.11406400000001,1,1,1789162680.0377636,-0.8539707817133148,0.5188594448370689,0.012213971512308896,-0.03700809888680092,175.64740776891975,-1.0052059609242319,-62.526236616870456,-0.0007866198938738443,0.002764950601009417,0.0012938125745033965,0.1827959590148926,0.7348122966194153,-9.706622330093383
2026-09-11T17:38:00.080,2.7733342079999943,0.0,0.0,0.0,0.0,0.0,0.0,0.0,0.0,0.0,0.0,0.000152587890625,1.25,0.054931640625,0.0,0.0,0.0,1,1789162679.0797272,38.99139054333333,-76.93668591666666,-9.275000000000002,0,1,17.363888999999997,6.996025,72.11406400000001,1,1,1789162680.0697637,-0.8539547895341469,0.5188852322027144,0.012124975959510327,-0.03704481328886844,175.64912890733666,-1.0162312019912367,-62.529312518528556,-0.002086541120759221,0.0007906341511534313,-0.0014882422531755648,0.22261095867156983,0.7444228137779236,-9.660138808326721
2026-09-11T17:38:00.113,2.806759104000008,0.0,0.0,0.0,0.0,0.0,0.0,0.0,0.0,0.0,0.0,0.000152587890625,1.25,0.054931640625,0.0,0.0,0.0,1,1789162680.0882878,38.991390501666665,-76.93668578333333,-9.267000000000003,0,1,17.363888999999997,6.996025,72.11406400000001,1,1,1789162680.1097636,-0.8539542807777817,0.5188843438035343,0.011884097263153835,-0.03714690201237565,175.65343755656826,-1.0458745233265,-62.52816898529753,0.000632507320922745,0.010147693336945431,-0.002548006174986522,0.17985396396636963,0.7390291561889648,-9.672887453536987
2026-09-11T17:38:00.148,2.8401784000000134,0.0,0.0,0.0,0.0,0.0,0.0,0.0,0.0,0.0,0.0,0.000152587890625,1.25,0.054931640625,0.0,0.0,0.0,1,1789162680.0882878,38.991390501666665,-76.93668578333333,-9.267000000000003,0,1,17.363888999999997,6.996025,72.11406400000001,1,1,1789162680.1377637,-0.8539228043203141,0.5189433631916144,0.011658195486342468,-0.03711760416714814,175.66981251172453,-1.0665349055711446,-62.53519610700592,-0.0015594516866569335,0.0002996730325674264,-0.00037978364523396616,0.20907778144836425,0.7377542916679383,-9.671416456012727
2026-09-11T17:38:00.180,2.87360755200001,0.0,0.0,0.0,0.0,0.0,0.0,0.0,0.0,0.0,0.0,-3.24249267578125e-05,-0.265625,-0.0116729736328125,0.0,0.0,0.0,1,1789162680.0882878,38.991390501666665,-76.93668578333333,-9.267000000000003,0,1,17.363888999999997,6.996025,72.11406400000001,1,1,1789162680.1697638,-0.853920765465465,0.5188895377212113,0.011294168904447056,-0.03801862305633833,175.60303425143405,-1.155521106779381,-62.5260035387917,-0.0028124235566636627,0.03205768410185625,-0.003226590188161917,-0.2709577439689636,0.8210127515411377,-9.95531897819519
2026-09-11T17:38:00.214,2.9070330879999915,0.0,0.0,0.0,0.0,0.0,0.0,0.0,0.0,0.0,0.0,0.000152587890625,1.25,0.054931640625,0.0,0.0,0.0,1,1789162680.0882878,38.991390501666665,-76.93668578333333,-9.267000000000003,0,1,17.363888999999997,6.996025,72.11406400000001,1,1,1789162680.2097638,-0.8539259723357039,0.518884559907613,0.01166713532369449,-0.03785664028072702,175.59674218486353,-1.109356427338303,-62.52691700488985,-0.0014765485471872027,0.001067443370519732,0.0008124507668033604,0.4909209070968628,0.7679587741661072,-9.837639176254273
2026-09-11T17:38:00.247,2.940450655999996,0.0,0.0,0.0,0.0,0.0,0.0,0.0,0.0,0.0,0.0,0.0015201568603515625,12.453125,0.5472564697265625,0.1220703274011612,43.94531786441803,1315.0363863825235,1,1789162680.0882878,38.991390501666665,-76.93668578333333,-9.267000000000003,0,1,17.363888999999997,6.996025,72.11406400000001,1,1,1789162680.2377636,-0.8539292650024572,0.5189334521228942,0.012396385288511157,-0.03686749614440361,175.65043448657744,-0.9793632957754633,-62.536970055334294,-0.002421469804216933,-0.028010091033556197,0.006523866211029605,-0.011179581184387206,0.6303714723968507,-9.740455273151397
2026-09-11T17:38:00.281,2.9738776000000087,0.0,0.0,0.0,0.0,0.0,0.0,0.0,0.0,0.0,0.0,0.0039196014404296875,32.109375,1.4110565185546875,0.045776382088661194,16.47949755191803,-821.6671052097822,1,1789162680.0882878,38.991390501666665,-76.93668578333333,-9.267000000000003,0,1,17.363888999999997,6.996025,72.11406400000001,1,1,1789162680.2697637,-0.8538245284631624,0.5191398829521128,0.011460663522074767,-0.03668936787079682,175.72378672786382,-1.0613525436077953,-62.561004279286685,0.0008079129107481752,-0.030395083456406447,0.011474667167236718,0.36941651159286504,0.6707748710632324,-9.587373464126587
2026-09-11T17:38:00.315,3.007294559999991,0.0,0.0,0.0,0.0,0.0,0.0,0.0,0.0,0.0,0.0,0.004547119140625,37.25,1.636962890625,0.0,0.0,-493.14771756397516,1,1789162680.0882878,38.991390501666665,-76.93668578333333,-9.267000000000003,0,1,17.363888999999997,6.996025,72.11406400000001,1,1,1789162680.3097637,-0.8538652569313347,0.5190277021585766,0.012029642377010744,-0.037143708778936094,175.6452712309462,-1.032172848867078,-62.54796660145595,-0.0002373647782712288,-0.013272530829716078,0.0007454301235267782,0.1407254298210144,0.7796286878585815,-9.614832084579467
2026-09-11T17:38:00.348,3.0407109120000086,0.0,0.0,0.0,0.0,0.0,0.0,0.0,0.0,0.0,0.0,0.004547119140625,37.25,1.636962890625,0.0,0.0,0.0,1,1789162680.0882878,38.991390501666665,-76.93668578333333,-9.267000000000003,0,1,17.363888999999997,6.996025,72.11406400000001,1,1,1789162680.3377638,-0.8538772143633037,0.5189727856228262,0.012124135229130138,-0.03760260521552555,175.59459381370695,-1.0499702311402497,-62.54073091258175,-0.0010821041362364843,-0.010574600871983244,-0.004994085121656574,0.2731152070045471,0.8007129857063293,-9.658177478294371
2026-09-11T17:38:00.381,3.0741321280000022,0.0,0.0,0.0,0.0,0.0,0.0,0.0,0.0,0.0,0.0,0.004547119140625,37.25,1.636962890625,0.0,0.0,0.0,1,1789162680.0882878,38.991390501666665,-76.93668578333333,-9.267000000000003,0,1,17.363888999999997,6.996025,72.11406400000001,1,1,1789162680.3697636,-0.8538656252664958,0.5190032290997227,0.012696260249930685,-0.03725516270240887,175.5946750470491,-0.9734619681328991,-62.54734832051161,0.00035395277230445004,-0.012197233477562372,-0.004034328565984893,0.06864655113220215,0.7678607076644897,-9.718292243785859
2026-09-11T17:38:00.414,3.1075524800000096,0.0,0.0,0.0,0.0,0.0,0.0,0.0,0.0,0.0,0.0,0.004547119140625,37.25,1.636962890625,0.0,0.0,0.0,1,1789162680.0882878,38.991390501666665,-76.93668578333333,-9.267000000000003,0,1,17.363888999999997,6.996025,72.11406400000001,1,1,1789162680.4097636,-0.8538517551846403,0.51901249489439,0.013066873464566992,-0.03731577587925035,175.56670302113451,-0.9408597352534425,-62.5501065823303,-0.002466673831843586,-0.0016580627893946131,-0.0042785001283389,0.191523877658844,0.7840416804313659,-9.682988303203583
2026-09-11T17:38:00.448,3.140970527999997,0.0,0.0,0.0,0.0,0.0,0.0,0.0,0.0,0.0,0.0,0.004547119140625,37.25,1.636962890625,0.0,0.0,0.0,1,1789162680.0882878,38.991390501666665,-76.93668578333333,-9.267000000000003,0,1,17.363888999999997,6.996025,72.11406400000001,1,1,1789162680.4377637,-0.8538436101349418,0.5190548216569038,0.01289131218111084,-0.03697290381750481,175.61080482493693,-0.9378362167554423,-62.5552181253403,9.232791743050004e-05,0.004575729699953534,-0.0007845254987714511,0.12101406299591065,0.6871519768333434,-9.689852958316804
2026-09-11T17:38:00.482,3.1743982719999906,0.0,0.0,0.0,0.0,0.0,0.0,0.0,0.0,0.0,0.0,0.004547119140625,37.25,1.636962890625,0.0,0.0,0.0,1,1789162680.0882878,38.991390501666665,-76.93668578333333,-9.267000000000003,0,1,17.363888999999997,6.996025,72.11406400000001,1,1,1789162680.4777637,-0.853826217730857,0.5191649179826916,0.012361699886615079,-0.035996753011317044,175.73811802584314,-0.9320724566317565,-62.56830036675061,-0.0008782496796035466,0.008907985969253858,0.004529478474775683,0.15484700605392454,0.6660676789855956,-9.708779793128967
2026-09-11T17:38:00.515,3.207817312000003,0.0,0.0,0.0,0.0,0.0,0.0,0.0,0.0,0.0,0.0,0.004669189453125,38.25,1.680908203125,0.0,0.0,0.0,1,1789162680.0882878,38.991390501666665,-76.93668578333333,-9.267000000000003,0,1,17.363888999999997,6.996025,72.11406400000001,1,1,1789162680.5097637,-0.853857519441564,0.519119144753877,0.012136432193395094,-0.03599106912440248,175.75202430467917,-0.9535453837604668,-62.561267315128326,-0.002035402973675787,0.008936609368986565,-0.002887298181574219,0.18524762155532837,0.7177487253379822,-9.685047699737549
2026-09-11T17:38:00.548,3.241238336000009,0.0,0.0,0.0,0.0,0.0,0.0,0.0,0.0,0.0,0.0,0.0047702789306640625,39.078125,1.7173004150390625,0.015258789993822575,5.493164397776127,164.36254011173085,1,1789162680.0882878,38.991390501666665,-76.93668578333333,-9.267000000000003,0,1,17.363888999999997,6.996025,72.11406400000001,1,1,1789162680.5377636,-0.8538698028768366,0.519092768463213,0.012048753426744998,-0.036109347891245945,175.74561484370378,-0.9690363912215149,-62.55732219361334,0.0005911430176504794,0.011090869264723167,-0.00010576695267085638,0.1912296781539917,0.7244172474479675,-9.680536640663147
2026-09-11T17:38:00.581,3.2746664320000036,0.0,0.0,0.0,0.0,0.0,0.0,0.0,0.0,0.0,0.0,0.00484466552734375,39.6875,1.74407958984375,0.015258789993822575,5.493164397776127,0.0,1,1789162680.0882878,38.991390501666665,-76.93668578333333,-9.267000000000003,0,1,17.363888999999997,6.996025,72.11406400000001,1,1,1789162680.5697637,-0.8539003676949942,0.5190203965175553,0.012016124542324626,-0.03643628411482929,175.71542167971637,-0.9913353688000052,-62.547319848839635,0.0013777629115243237,0.009487958879691574,0.0036789795302788475,0.17681390241622927,0.7427556832504273,-9.680340507659912
2026-09-11T17:38:00.616,3.308085408000011,0.0,0.0,0.0,0.0,0.0,0.0,0.0,0.0,0.0,0.0,0.0050601959228515625,41.453125,1.8216705322265625,0.0,0.0,-164.37261266697527,1,1789162680.0882878,38.991390501666665,-76.93668578333333,-9.267000000000003,0,1,17.363888999999997,6.996025,72.11406400000001,1,1,1789162680.6097636,-0.8539096635660371,0.5189527869812618,0.012382568787832594,-0.03705351998303543,175.63303963732577,-0.9918890264654117,-62.53940579786988,-0.0024253095285713205,0.004975933697435834,-0.002612234291459913,0.2002517963027954,0.8216011505508423,-9.662394337863923
2026-09-11T17:38:00.649,3.341498720000004,0.0,0.0,0.0,0.0,0.0,0.0,0.0,0.0,0.0,0.0,0.005279541015625,43.25,1.900634765625,0.0,0.0,0.0,1,1789162680.0882878,38.991390501666665,-76.93668578333333,-9.267000000000003,0,1,17.363888999999997,6.996025,72.11406400000001,1,1,1789162680.6417637,-0.8538756200781881,0.5189429290622073,0.012547936960877384,-0.0379105670025208,175.53916475497766,-1.0266856736302585,-62.538298180109344,-0.0008717919613711676,-0.0022769565421518023,-0.0007447319918259804,0.18809155010223388,0.840626051864624,-9.657785212287903
2026-09-11T17:38:00.683,3.374925152000003,0.0,0.0,0.0,0.0,0.0,0.0,0.0,0.0,0.0,0.0,0.0056171417236328125,46.015625,2.0221710205078125,0.015258789993822575,5.493164397776127,164.33594820339536,1,1789162680.0882878,38.991390501666665,-76.93668578333333,-9.267000000000003,0,1,17.363888999999997,6.996025,72.11406400000001,1,1,1789162680.6777637,-0.8538503642672368,0.5189489619153234,0.012808615488286539,-0.03830756762036252,175.48474684912168,-1.0248505647267223,-62.53997776273252,-0.0013447761886616308,-0.016423897327117038,0.000638965039155124,0.23045627880096436,0.7902198700332641,-9.67543718257904
2026-09-11T17:38:00.716,3.4083419520000007,0.0,0.0,0.0,0.0,0.0,0.0,0.0,0.0,0.0,0.0,0.005645751953125,46.25,2.032470703125,0.0,0.0,-164.38331610975635,1,1789162680.0882878,38.991390501666665,-76.93668578333333,-9.267000000000003,0,1,17.363888999999997,6.996025,72.11406400000001,1,1,1789162680.7097638,-0.8538073338327711,0.5190377623044476,0.012610601523984032,-0.03812886996188297,175.51414878956408,-1.034050065308796,-62.55114655404292,-0.0013334315485236676,-0.019559730394175252,-0.0010452776890194039,0.18201142700195314,0.7523662004089355,-9.680242441158295
2026-09-11T17:38:00.749,3.4417576000000167,0.0,0.0,0.0,0.0,0.0,0.0,0.0,0.0,0.0,0.0,0.005645751953125,46.25,2.032470703125,0.0,0.0,0.0,1,1789162680.0882878,38.991390501666665,-76.93668578333333,-9.267000000000003,0,1,17.363888999999997,6.996025,72.11406400000001,1,1,1789162680.7377636,-0.853818943318954,0.5190411442168166,0.012815315653491663,-0.03775275254208499,175.53885432593407,-0.9916415051074007,-62.552661607231784,0.0018477800790863968,-0.019338946243797967,-0.001048942880448592,0.17230284334182738,0.7455996117973328,-9.672789387035369
2026-09-11T17:38:00.783,3.4751857600000164,0.0,0.0,0.0,0.0,0.0,0.0,0.0,0.0,0.0,0.0,0.005645751953125,46.25,2.032470703125,0.0,0.0,0.0,1,1789162680.0882878,38.991390501666665,-76.93668578333333,-9.267000000000003,0,1,17.363888999999997,6.996025,72.11406400000001,1,1,1789162680.7697637,-0.8538003326931328,0.519109715633448,0.012713284070026318,-0.037262144814967486,175.59309910373017,-0.9727612180470637,-62.56168650468394,0.0027241098965127496,-0.009512742555069894,-0.0011793189755725686,0.18524762155532837,0.7199061883735657,-9.679065643138886
2026-09-11T17:38:00.816,3.508601311999996,0.0,0.0,0.0,0.0,0.0,0.0,0.0,0.0,0.0,0.0,0.005645751953125,46.25,2.032470703125,0.0,0.0,0.0,1,1789162680.0882878,38.991390501666665,-76.93668578333333,-9.267000000000003,0,1,17.363888999999997,6.996025,72.11406400000001,1,1,1789162680.8097637,-0.853833919117084,0.5191000942644229,0.012888181598373483,-0.03655988887996953,175.65152874494598,-0.913777522412668,-62.56147902143139,-0.000932878485190969,-0.014446439284607464,-0.0028804913974914415,0.1397447648048401,0.6952914964675904,-9.677790778617858
2026-09-11T17:38:00.849,3.542020096000016,0.0,0.0,0.0,0.0,0.0,0.0,0.0,0.0,0.0,0.0,0.005645751953125,46.25,2.032470703125,0.0,0.0,0.0,1,1789162680.0882878,38.991390501666665,-76.93668578333333,-9.267000000000003,0,1,17.363888999999997,6.996025,72.11406400000001,1,1,1789162680.8417637,-0.8538568603776929,0.5191030927733596,0.012863849675951847,-0.03598558642840476,175.70927674073818,-0.881970763861922,-62.5620589131296,0.0006599089901790561,-0.010133032571228677,-0.0017744762505026348,0.14582488790512085,0.6821505852508545,-9.683870901718139
2026-09-11T17:38:00.884,3.575449120000002,0.0,0.0,0.0,0.0,0.0,0.0,0.0,0.0,0.0,0.0,0.005645751953125,46.25,2.032470703125,0.0,0.0,0.0,1,1789162680.0882878,38.991390501666665,-76.93668578333333,-9.267000000000003,0,1,17.363888999999997,6.996025,72.11406400000001,1,1,1789162680.8777637,-0.8538923299179122,0.5190688075249351,0.012968534978928751,-0.03559886321922934,175.7409239545829,-0.8485273016936354,-62.55807402995966,-0.0016690583636821774,-0.010892076262921012,-0.0018455111510588041,0.16131939516067503,0.7109821367263793,-9.69034329082489
2026-09-11T17:38:00.917,3.6089476159999947,0.0,0.0,0.0,0.0,0.0,0.0,0.0,0.0,0.0,0.0,0.005645751953125,46.25,2.032470703125,0.0,0.0,0.0,1,1789162680.0882878,38.991390501666665,-76.93668578333333,-9.267000000000003,0,1,17.363888999999997,6.996025,72.11406400000001,1,1,1789162680.9097636,-0.853895003230934,0.5190356597456959,0.013150449395243381,-0.035949590405128636,175.69568975934533,-0.8514484947107379,-62.55422139629707,0.000827635131295711,-0.007685906427007429,-0.0021352358068898627,0.1757351708984375,0.789043072013855,-9.666415064430238
2026-09-11T17:38:00.950,3.642366016000011,0.0,0.0,0.0,0.0,0.0,0.0,0.0,0.0,0.0,0.0,0.005645751953125,46.25,2.032470703125,0.0,0.0,0.0,1,1789162680.0882878,38.991390501666665,-76.93668578333333,-9.267000000000003,0,1,17.363888999999997,6.996025,72.11406400000001,1,1,1789162680.9377637,-0.8538873255040991,0.5190105427012902,0.01344335493362731,-0.03638362429029719,175.63569456433103,-0.8485097978158231,-62.551882942353544,0.001378635576150321,-0.0032283355174139113,0.0024548055929300245,0.15317987552642823,0.8043414462661743,-9.673770052051545
2026-09-11T17:38:00.984,3.6757909119999965,0.0,0.0,0.0,0.0,0.0,0.0,0.0,0.0,0.0,0.0,0.005645751953125,46.25,2.032470703125,0.0,0.0,0.0,1,1789162680.0882878,38.991390501666665,-76.93668578333333,-9.267000000000003,0,1,17.363888999999997,6.996025,72.11406400000001,1,1,1789162680.9777637,-0.853878455192762,0.5190001301078032,0.013675595197847204,-0.03665278709307577,175.59548428397525,-0.8417631700053129,-62.55135217131366,-0.0013753194505715315,-0.009548696337660978,0.00014206980111233842,0.15788706760406493,0.7675665081596376,-9.674848783569336
2026-09-11T17:38:01.017,3.709227424000005,0.0,0.0,0.0,0.0,0.0,0.0,0.0,0.0,0.0,0.0,0.005645751953125,46.25,2.032470703125,0.0,0.0,0.0,1,1789162680.0882878,38.991390501666665,-76.93668578333333,-9.267000000000003,0,1,17.363888999999997,6.996025,72.11406400000001,1,1,1789162681.0097637,-0.8538753840818167,0.5190042044807275,0.013789984038359439,-0.0366237700227471,175.59152926065315,-0.8288653833357309,-62.55240174511397,-0.0001096066770252439,-0.008400444222773909,-0.0020774654086488506,0.15278760951995848,0.7535429984283448,-9.681713438682557
2026-09-11T17:38:01.050,3.7426505600000155,0.0,0.0,0.0,0.0,0.0,0.0,0.0,0.0,0.0,0.0,0.005645751953125,46.25,2.032470703125,0.0,0.0,0.0,1,1789162680.0882878,38.991390501666665,-76.93668578333333,-9.267000000000003,0,1,17.363888999999997,6.996025,72.11406400000001,1,1,1789162681.0377636,-0.853875990131708,0.5190208045992739,0.013676315364431936,-0.03641642854221762,175.61863249717646,-0.8277243918033573,-62.55423237758052,0.0012309807214316004,-0.0032941344302140976,-0.0008286823288469077,0.15749480159759524,0.7168661268234253,-9.689558758811952
2026-09-11T17:38:01.084,3.776066720000017,0.0,0.0,0.0,0.0,0.0,0.0,0.0,0.0,0.0,0.0,0.005645751953125,46.25,2.032470703125,0.0,0.0,0.0,1,1789162681.0753381,38.991390331666665,-76.93668553166667,-9.328000000000003,0,1,17.363888999999997,6.996025,72.11406400000001,1,1,1789162681.0777638,-0.8538860735174726,0.5190432789093554,0.013613258434986024,-0.03587934317571568,175.67505470402304,-0.8020250266871267,-62.55721270887553,0.00044470989340815513,-0.006544810162053536,-0.002841221489321569,0.13886216629028322,0.711570535736084,-9.688872293300628
2026-09-11T17:38:01.117,3.8094895039999983,0.0,0.0,0.0,0.0,0.0,0.0,0.0,0.0,0.0,0.0,0.005645751953125,46.25,2.032470703125,0.0,0.0,0.0,1,1789162681.0753381,38.991390331666665,-76.93668553166667,-9.328000000000003,0,1,17.363888999999997,6.996025,72.11406400000001,1,1,1789162681.1097636,-0.8538706987581061,0.5190833376149631,0.013507372640904418,-0.03570531189044086,175.69845045668777,-0.8022224434221663,-62.56221049747645,0.0008754571528003558,-0.005508259119294104,0.0012430234932703616,0.14396162437438964,0.7343219641113281,-9.669160926475525
2026-09-11T17:38:01.150,3.842910399999994,0.0,0.0,0.0,0.0,0.0,0.0,0.0,0.0,0.0,0.0,0.005645751953125,46.25,2.032470703125,0.0,0.0,0.0,1,1789162681.0753381,38.991390331666665,-76.93668553166667,-9.328000000000003,0,1,17.363888999999997,6.996025,72.11406400000001,1,1,1789162681.1377637,-0.8538766471217926,0.5190699154929177,0.013537352864667387,-0.03574680975469193,175.69258663852062,-0.801693126637506,-62.56051972873685,0.0013182471840313171,-0.001485449726372374,-0.002248682208269494,0.16180972766876223,0.7462860773086548,-9.684067034721375
2026-09-11T17:38:01.185,3.8763391680000154,0.0,0.0,0.0,0.0,0.0,0.0,0.0,0.0,0.0,0.0,0.005645751953125,46.25,2.032470703125,0.0,0.0,0.0,1,1789162681.0753381,38.991390331666665,-76.93668553166667,-9.328000000000003,0,1,17.363888999999997,6.996025,72.11406400000001,1,1,1789162681.1817636,-0.8538968156534034,0.519026538124351,0.013776205733673956,-0.03580359053520298,175.67277222445082,-0.7814877204484902,-62.55569231802219,-0.001691049512257306,-0.008130267254565185,-0.0012824679343654334,0.14768815143585207,0.742461483745575,-9.669847391986847
2026-09-11T17:38:01.217,3.909754912000011,0.0,0.0,0.0,0.0,0.0,0.0,0.0,0.0,0.0,0.0,0.005645751953125,46.25,2.032470703125,0.0,0.0,0.0,1,1789162681.0753381,38.991390331666665,-76.93668553166667,-9.328000000000003,0,1,17.363888999999997,6.996025,72.11406400000001,1,1,1789162681.2097638,-0.8539111947983546,0.5190016463161707,0.013970587019938188,-0.035746121712282454,175.66682080658833,-0.7589225948173102,-62.55320968303968,0.0015608479500585288,-0.008357858189025246,0.001333955147299266,0.13709696926116943,0.7454034787940979,-9.69456015039444
2026-09-11T17:38:01.250,3.943171776000014,0.0,0.0,0.0,0.0,0.0,0.0,0.0,0.0,0.0,0.0,0.005645751953125,46.25,2.032470703125,0.0,0.0,0.0,1,1789162681.0753381,38.991390331666665,-76.93668553166667,-9.328000000000003,0,1,17.363888999999997,6.996025,72.11406400000001,1,1,1789162681.2377636,-0.8539049315502909,0.5190145657682076,0.014004411961437101,-0.035694885349952965,175.66984270992515,-0.7526279475523366,-62.55510679878773,-0.0006853907972581732,-0.003283487921776932,-3.665191429188092e-05,0.14023509731292724,0.7357929616355896,-9.675927515087128
2026-09-11T17:38:01.285,3.976597792000007,0.0,0.0,0.0,0.0,0.0,0.0,0.0,0.0,0.0,0.0,0.005645751953125,46.25,2.032470703125,0.0,0.0,0.0,1,1789162681.0753381,38.991390331666665,-76.93668553166667,-9.328000000000003,0,1,17.363888999999997,6.996025,72.11406400000001,1,1,1789162681.2777636,-0.8539543119721231,0.5189368675097285,0.014269508767470455,-0.035537891368842923,175.66939726183548,-0.7169508847092484,-62.54589767901073,0.0003166027263117714,-0.0034829790552798837,0.002716255914878775,0.11934693246841431,0.7164738608169555,-9.676810113601684
2026-09-11T17:38:01.317,4.010018271999996,0.0,0.0,0.0,0.0,0.0,0.0,0.0,0.0,0.0,0.0,0.005645751953125,46.25,2.032470703125,0.0,0.0,0.0,1,1789162681.0753381,38.991390331666665,-76.93668553166667,-9.328000000000003,0,1,17.363888999999997,6.996025,72.11406400000001,1,1,1789162681.3097637,-0.8539476096556149,0.518966705546707,0.013957140496897499,-0.03538695701256231,175.70279832637394,-0.7386760175044502,-62.548615073045305,0.002342580922026789,0.004263315763846549,0.0001256637061435917,0.1553373385620117,0.7153951292991638,-9.691814288349152
2026-09-11T17:38:01.351,4.0434388799999965,0.0,0.0,0.0,0.0,0.0,0.0,0.0,0.0,0.0,0.0,0.005645751953125,46.25,2.032470703125,0.0,0.0,0.0,1,1789162681.0753381,38.991390331666665,-76.93668553166667,-9.328000000000003,0,1,17.363888999999997,6.996025,72.11406400000001,1,1,1789162681.3417637,-0.8539387469196531,0.5189927286250179,0.013805530060943176,-0.03527848470934395,175.72247217569645,-0.7471810608216566,-62.55150242097186,0.0008026769229921922,0.007166147375763518,0.001284736862393026,0.1428828928565979,0.7087266071891785,-9.563739437236785
2026-09-11T17:38:01.385,4.0768688,0.0,0.0,0.0,0.0,0.0,0.0,0.0,0.0,0.0,0.0,0.005645751953125,46.25,2.032470703125,0.0,0.0,0.0,1,1789162681.0753381,38.991390331666665,-76.93668553166667,-9.328000000000003,0,1,17.363888999999997,6.996025,72.11406400000001,1,1,1789162681.3777637,-0.8539865630194794,0.5189199526517561,0.014196031674843743,-0.03503577609762378,175.72297583792871,-0.6941602750315228,-62.543506207077414,-0.002700373418685627,0.01561738067977046,0.0036398841550341746,-0.11218807785034181,0.664106348953247,-9.557267048130036
2026-09-11T17:38:01.417,4.110285088000012,0.0,0.0,0.0,0.0,0.0,0.0,0.0,0.0,0.0,0.0,0.005889892578125,48.25,2.120361328125,0.0,0.0,0.0,1,1789162681.0753381,38.991390331666665,-76.93668553166667,-9.328000000000003,0,1,17.363888999999997,6.996025,72.11406400000001,1,1,1789162681.4097636,-0.853997715513998,0.5189484212421361,0.012278012018666523,-0.03506691329496837,175.8340163963856,-0.8838253234083135,-62.53940686788114,6.056292504420324e-05,0.015246672746646863,0.0004117231705454623,0.2587974977684021,0.5635881847953796,-9.523826371078492
2026-09-11T17:38:01.451,4.143701952000015,0.0,0.0,0.0,0.0,0.0,0.0,0.0,0.0,0.0,0.0,0.005889892578125,48.25,2.120361328125,0.0,0.0,0.0,1,1789162681.0753381,38.991390331666665,-76.93668553166667,-9.328000000000003,0,1,17.363888999999997,6.996025,72.11406400000001,1,1,1789162681.4377637,-0.8540871038024616,0.5188501630450348,0.01231800316225427,-0.03432192046722366,175.9045749324477,-0.8350910744552485,-62.52674279932918,-0.0021282544898818855,0.010588388973074,0.000484154334503227,0.23192727632522583,0.6343921989631652,-9.861959668655397
2026-09-11T17:38:01.486,4.177125472,0.0,0.0,0.0,0.0,0.0,0.0,0.0,0.0,0.0,0.0,0.005889892578125,48.25,2.120361328125,0.0,0.0,0.0,1,1789162681.0753381,38.991390331666665,-76.93668553166667,-9.328000000000003,0,1,17.363888999999997,6.996025,72.11406400000001,1,1,1789162681.4777637,-0.8541566376775486,0.5186727627637676,0.011991580731531221,-0.035372382870605054,175.8208024132294,-0.9286910333062579,-62.50119025817129,0.003324677692123998,0.0043011894086148255,-0.00250227854858427,0.11846433395385743,0.8924051647186279,-9.810180555801391
2026-09-11T17:38:01.518,4.210556671999996,0.0,0.0,0.0,0.0,0.0,0.0,0.0,0.0,0.0,0.0,0.005889892578125,48.25,2.120361328125,0.0,0.0,0.0,1,1789162681.0753381,38.991390331666665,-76.93668553166667,-9.328000000000003,0,1,17.363888999999997,6.996025,72.11406400000001,1,1,1789162681.5097637,-0.8541598451227275,0.5185322343605386,0.013925407073145978,-0.03662463579112987,175.58294065714787,-0.8132298191604721,-62.48974693025484,0.004363148597060624,-0.0022354177059543375,0.00022968532956245378,0.040207265663146974,1.1671875022506715,-9.65641228126526
2026-09-11T17:38:01.552,4.243978880000014,0.0,0.0,0.0,0.0,0.0,0.0,0.0,0.0,0.0,0.0,0.005889892578125,48.25,2.120361328125,0.0,0.0,0.0,1,1789162681.0753381,38.991390331666665,-76.93668553166667,-9.328000000000003,0,1,17.363888999999997,6.996025,72.11406400000001,1,1,1789162681.5497637,-0.8539956382314121,0.5185678248102153,0.015089785782233361,-0.03938475997604788,175.24308950008208,-0.8637159472142867,-62.498496714396026,0.001799958057581752,-0.008945336015246538,-0.0025485297737621202,0.07619767175674438,1.1521833275032043,-9.707504928607941
2026-09-11T17:38:01.585,4.2773975039999925,0.0,0.0,0.0,0.0,0.0,0.0,0.0,0.0,0.0,0.0,0.005889892578125,48.25,2.120361328125,0.0,0.0,0.0,1,1789162681.0753381,38.991390331666665,-76.93668553166667,-9.328000000000003,0,1,17.363888999999997,6.996025,72.11406400000001,1,1,1789162681.5777638,-0.8538608621702325,0.518710136151715,0.01589920456718399,-0.04010782967834386,175.12420214047611,-0.8283687563450247,-62.521079558042565,0.0014840534629707784,-0.005296027082251594,0.0034770449358231034,0.10042009765625001,0.9291801028251648,-9.69073555683136
2026-09-11T17:38:01.618,4.310815423999998,0.0,0.0,0.0,0.0,0.0,0.0,0.0,0.0,0.0,0.0,0.005889892578125,48.25,2.120361328125,0.0,0.0,0.0,1,1789162681.0753381,38.991390331666665,-76.93668553166667,-9.328000000000003,0,1,17.363888999999997,6.996025,72.11406400000001,1,1,1789162681.6097636,-0.8537651120091413,0.5189721753339595,0.015189994418736114,-0.03901639161577143,175.27365444586113,-0.8342255824967971,-62.55330751680977,3.996803987067015e-05,-0.00448444898007423,0.003491182102764258,0.2928265738296509,0.6482195756912232,-9.752419386348723
2026-09-11T17:38:01.653,4.344235263999991,0.0,0.0,0.0,0.0,0.0,0.0,0.0,0.0,0.0,0.0,0.005889892578125,48.25,2.120361328125,0.0,0.0,0.0,1,1789162681.0753381,38.991390331666665,-76.93668553166667,-9.328000000000003,0,1,17.363888999999997,6.996025,72.11406400000001,1,1,1789162681.6497636,-0.8537680212443672,0.5191167412639665,0.014420132585705518,-0.03728316800070057,175.4895097412534,-0.8070799843709551,-62.56994456019122,0.0013418091289332406,-0.005529901202018834,0.002029643387144206,0.1877973505973816,0.5924197362709045,-9.657687145786285
2026-09-11T17:38:01.686,4.377654432000014,0.0,0.0,0.0,0.0,0.0,0.0,0.0,0.0,0.0,0.0,0.005889892578125,48.25,2.120361328125,0.0,0.0,0.0,1,1789162681.0753381,38.991390331666665,-76.93668553166667,-9.328000000000003,0,1,17.363888999999997,6.996025,72.11406400000001,1,1,1789162681.6777637,-0.853808298367749,0.5191620032185784,0.01360576939833804,-0.03601509532849939,175.66230522913546,-0.8114442503073473,-62.57303350176423,6.736970912698112e-05,-0.0014292501244581566,-0.0008663814406899851,0.15857353311538697,0.5053366828346252,-9.646409498100281
2026-09-11T17:38:01.719,4.411072992000015,0.0,0.0,0.0,0.0,0.0,0.0,0.0,0.0,0.0,0.0,0.005889892578125,48.25,2.120361328125,0.0,0.0,0.0,1,1789162681.0753381,38.991390331666665,-76.93668553166667,-9.328000000000003,0,1,17.363888999999997,6.996025,72.11406400000001,1,1,1789162681.7097638,-0.853884876886319,0.5191500862332575,0.013076742477347693,-0.03453699169033761,175.83864819464515,-0.7751037094091796,-62.56987441707718,-0.0001689478715930511,-0.004643797540781312,0.001650906939461436,0.14043123031616211,0.5069057468605042,-9.691422022342682
2026-09-11T17:38:01.752,4.444488256,0.0,0.0,0.0,0.0,0.0,0.0,0.0,0.0,0.0,0.0,0.006011962890625,49.25,2.164306640625,0.0,0.0,0.0,1,1789162681.0753381,38.991390331666665,-76.93668553166667,-9.328000000000003,0,1,17.363888999999997,6.996025,72.11406400000001,1,1,1789162681.7497637,-0.8539742361503285,0.5191065747985273,0.01205739193656468,-0.03333147599630144,176.0174068015799,-0.8028417016081811,-62.56053457038839,0.0005750859885321316,-0.028739638660889827,-0.002159495883492584,0.1971136682510376,0.5389734928894043,-9.688087761287688
2026-09-11T17:38:01.787,4.4779071680000015,0.0,0.0,0.0,0.0,0.0,0.0,0.0,0.0,0.0,0.0,0.006011962890625,49.25,2.164306640625,0.0,0.0,0.0,1,1789162681.0753381,38.991390331666665,-76.93668553166667,-9.328000000000003,0,1,17.363888999999997,6.996025,72.11406400000001,1,1,1789162681.7777636,-0.8541081466141228,0.5188993980515532,0.012459242155110184,-0.03297659585288049,176.02810449654945,-0.7414275648430394,-62.53446427897235,0.00017156586547104259,-0.037697715579675925,-0.0028717647512314696,0.15896579912185668,0.6300772728919983,-9.70603393108368
2026-09-11T17:38:01.819,4.511345760000012,0.0,0.0,0.0,0.0,0.0,0.0,0.0,0.0,0.0,0.0,0.006011962890625,49.25,2.164306640625,0.0,0.0,0.0,1,1789162681.0753381,38.991390331666665,-76.93668553166667,-9.328000000000003,0,1,17.363888999999997,6.996025,72.11406400000001,1,1,1789162681.8097637,-0.8541875250906206,0.5187247541019879,0.013810617108179818,-0.033129568613004555,175.93261415535775,-0.6174622670637705,-62.516407146042134,-0.0007557275661135447,-0.04582588843913872,-0.0051476740958320754,0.10581375524520874,0.8267006086349488,-9.651116690177918
2026-09-11T17:38:01.853,4.544764608000008,0.0,0.0,0.0,0.0,0.0,0.0,0.0,0.0,0.0,0.0,0.006011962890625,49.25,2.164306640625,0.0,0.0,0.0,1,1789162681.0753381,38.991390331666665,-76.93668553166667,-9.328000000000003,0,1,17.363888999999997,6.996025,72.11406400000001,1,1,1789162681.8497636,-0.8541667982037537,0.5186108137734105,0.015548148395351522,-0.03464332208528541,175.68082003096006,-0.536948304507843,-62.50815048722873,0.002971073985669947,-0.03556370150326246,-0.005934643055556319,0.119052732963562,0.9542851272392272,-9.672495187530517
2026-09-11T17:38:01.886,4.578185984000015,0.0,0.0,0.0,0.0,0.0,0.0,0.0,0.0,0.0,0.0,0.0058269500732421875,47.734375,2.0977020263671875,0.0,0.0,0.0,1,1789162681.0753381,38.991390331666665,-76.93668553166667,-9.328000000000003,0,1,17.363888999999997,6.996025,72.11406400000001,1,1,1789162681.8777637,-0.8541231721397377,0.5185975698991162,0.01679928359422148,-0.03532635530881419,175.5394477740727,-0.4551056920996315,-62.51197276352857,0.00028780479365386497,-0.02519190789036095,-0.004474151537487464,-0.02736055395126343,0.9117242655372619,-9.632385988368988
2026-09-11T17:38:01.919,4.611610272000007,0.0,0.0,0.0,0.0,0.0,0.0,0.0,0.0,0.0,0.0,0.0058269500732421875,47.734375,2.0977020263671875,0.0,0.0,0.0,1,1789162681.0753381,38.991390331666665,-76.93668553166667,-9.328000000000003,0,1,17.363888999999997,6.996025,72.11406400000001,1,1,1789162681.9097636,-0.8540565389998808,0.5186581975322307,0.017803070346684886,-0.0355549294809247,175.4573641734412,-0.3708239671492569,-62.52489831264724,-0.0005911430176504794,-0.01414938424591803,-0.0014325662500369457,0.016475172271728518,0.8533746970748901,-9.66210013835907
2026-09-11T17:38:01.953,4.645027999999996,0.0,0.0,0.0,0.0,0.0,0.0,0.0,0.0,0.0,0.0,0.0058269500732421875,47.734375,2.0977020263671875,0.0,0.0,0.0,1,1789162681.0753381,38.991390331666665,-76.93668553166667,-9.328000000000003,0,1,17.363888999999997,6.996025,72.11406400000001,1,1,1789162681.9497638,-0.8539206820900793,0.5189240180957059,0.017721290525103173,-0.03497553436826727,175.51913838459532,-0.34573266248153045,-62.56022315605051,0.0006192428186075881,0.016302073345327836,0.0034452799434368064,0.033931009559631346,0.7275553754997254,-9.668474460964202
2026-09-11T17:38:01.987,4.678446879999996,0.0,0.0,0.0,0.0,0.0,0.0,0.0,0.0,0.0,0.0,0.0058269500732421875,47.734375,2.0977020263671875,0.0,0.0,0.0,1,1789162681.0753381,38.991390331666665,-76.93668553166667,-9.328000000000003,0,1,17.363888999999997,6.996025,72.11406400000001,1,1,1789162681.9777637,-0.8538803799375784,0.5190727433250415,0.016860544742579624,-0.03416878583818394,175.64950609614957,-0.38264664033314305,-62.5761899236853,-0.0023153537856956774,0.03730676182722919,0.0014400711658205214,0.06619488859176635,0.6049722484779358,-9.699463475475312
2026-09-11T17:38:02.019,4.711867519999998,0.0,0.0,0.0,0.0,0.0,0.0,0.0,0.0,0.0,0.0,0.0058269500732421875,47.734375,2.0977020263671875,0.0,0.0,0.0,1,1789162681.0753381,38.991390331666665,-76.93668553166667,-9.328000000000003,0,1,17.363888999999997,6.996025,72.11406400000001,1,1,1789162682.0097637,-0.8539182515592919,0.5191257238895102,0.015288486008269306,-0.03314158483972934,175.84377573062258,-0.4755067972570097,-62.57640542221517,-0.003411595088873316,0.04801767291379319,0.0013259266327400921,0.07923773330688477,0.4739554023170471,-9.687891628284454
2026-09-11T17:38:02.053,4.745281951999999,0.0,0.0,0.0,0.0,0.0,0.0,0.0,0.0,0.0,0.0,0.0058269500732421875,47.734375,2.0977020263671875,0.0,0.0,0.0,1,1789162681.0753381,38.991390331666665,-76.93668553166667,-9.328000000000003,0,1,17.363888999999997,6.996025,72.11406400000001,1,1,1789162682.0497637,-0.8540101401772818,0.5190785186835963,0.013229869421321176,-0.03239046882522465,176.03986016087484,-0.6319570648038318,-62.561712872054954,-0.0006414085001079161,0.06024335525816307,0.0020779890074244488,0.0995374991416931,0.5683934433746337,-9.685636098747253
2026-09-11T17:38:02.086,4.778776512000007,0.0,0.0,0.0,0.0,0.0,0.0,0.0,0.0,0.0,0.0,0.0058269500732421875,47.734375,2.0977020263671875,0.0,0.0,0.0,1,1789162681.0753381,38.991390331666665,-76.93668553166667,-9.328000000000003,0,1,17.363888999999997,6.996025,72.11406400000001,1,1,1789162682.0777638,-0.8541121629358744,0.5188899295093897,0.012450200497682138,-0.03302494036800213,176.02389496771428,-0.7451458915004756,-62.53314094489027,-0.0006899286533133585,0.06263829605774969,-0.002222851335339978,0.16171166116714478,0.6703826050567627,-9.675731382083892
2026-09-11T17:38:02.121,4.812212864000003,0.0,0.0,0.0,0.0,0.0,0.0,0.0,0.0,0.0,0.0,0.0058269500732421875,47.734375,2.0977020263671875,0.0,0.0,0.0,1,1789162682.088811,38.991390306666666,-76.93668571666667,-9.288000000000004,0,1,23.068808999999998,12.645136,123.121216,1,1,1789162682.1097636,-0.8541993300643332,0.5186929591585864,0.01220975209542514,-0.03394172344949033,175.94813259429878,-0.8223110061097293,-62.50542544933717,-0.0022841123920849787,0.05333830913849791,-0.00149278010923075,0.12572125507354737,0.7643303136062621,-9.668866726970673
2026-09-11T17:38:02.154,4.845653152000011,0.0,0.0,0.0,0.0,0.0,0.0,0.0,0.0,0.0,0.0,0.0058269500732421875,47.734375,2.0977020263671875,0.0,0.0,0.0,1,1789162682.088811,38.991390306666666,-76.93668571666667,-9.288000000000004,0,1,23.068808999999998,12.645136,123.121216,1,1,1789162682.1497636,-0.8542211489819497,0.518526169928143,0.011820773436774,-0.03601540013611518,175.76773212977403,-0.9829427392033432,-62.48054638625481,0.0016612043820482029,0.042220038204518424,0.0005796238445873169,0.22006122962951663,0.8790681204986572,-9.646213365097045
2026-09-11T17:38:02.187,4.8790907199999936,0.0,0.0,0.0,0.0,0.0,0.0,0.0,0.0,0.0,0.0,0.0058269500732421875,47.734375,2.0977020263671875,0.0,0.0,0.0,1,1789162682.088811,38.991390306666666,-76.93668571666667,-9.288000000000004,0,1,23.068808999999998,12.645136,123.121216,1,1,1789162682.1817636,-0.8541936289870384,0.5184612043853403,0.01231597017668839,-0.03741043469225424,175.60142101334026,-1.0171263620865203,-62.47307374864309,0.0014391985011945243,0.02813645287140059,-0.0014507176742576868,0.14396162437438964,0.92515937625885,-9.688480027294158
2026-09-11T17:38:02.220,4.912509152000013,0.0,0.0,0.0,0.0,0.0,0.0,0.0,0.0,0.0,0.0,0.0058269500732421875,47.734375,2.0977020263671875,0.0,0.0,0.0,1,1789162682.088811,38.991390306666666,-76.93668571666667,-9.288000000000004,0,1,23.068808999999998,12.645136,123.121216,1,1,1789162682.2097638,-0.8541523277737677,0.5184268236196024,0.0130428967658472,-0.03856568882179329,175.44488855535255,-1.0145168346037259,-62.47087297247143,-0.001171814059788993,0.008271987989827125,0.00012217304763960306,0.15357214153289794,0.9472243391227722,-9.674064251556397
2026-09-11T17:38:02.254,4.945927264000005,0.0,0.0,0.0,0.0,0.0,0.0,0.0,0.0,0.0,0.0,0.0058269500732421875,47.734375,2.0977020263671875,0.0,0.0,0.0,1,1789162682.088811,38.991390306666666,-76.93668571666667,-9.288000000000004,0,1,23.068808999999998,12.645136,123.121216,1,1,1789162682.2497637,-0.8540236537018847,0.5185500923365312,0.013455355751940106,-0.03960245013943931,175.31884149633225,-1.036498463423463,-62.48859984386168,0.001769240262746652,-0.012692557919278364,0.0034410911532320202,0.2252587542152405,0.8756357929420471,-9.67622171459198
2026-09-11T17:38:02.288,4.979349024000015,0.0,0.0,0.0,0.0,0.0,0.0,0.0,0.0,0.0,0.0,0.0058269500732421875,47.734375,2.0977020263671875,0.0,0.0,0.0,1,1789162682.088811,38.991390306666666,-76.93668571666667,-9.288000000000004,0,1,23.068808999999998,12.645136,123.121216,1,1,1789162682.2777636,-0.8539196611017846,0.518720862697786,0.013515075049527366,-0.039588151412810926,175.31690119287134,-1.0307392605774375,-62.51174954846583,-0.001369385331114751,-0.03163793241675161,0.002269975225143825,0.20034986280441283,0.8112061013793945,-9.658079411792755
2026-09-11T17:38:02.321,5.012797183999993,0.0,0.0,0.0,0.0,0.0,0.0,0.0,0.0,0.0,0.0,0.0058269500732421875,47.734375,2.0977020263671875,0.0,0.0,0.0,1,1789162682.088811,38.991390306666666,-76.93668571666667,-9.288000000000004,0,1,23.068808999999998,12.645136,123.121216,1,1,1789162682.3097637,-0.8538457761622311,0.5188708556528157,0.01345190003858975,-0.03923610670522543,175.35535937805375,-1.0167812108766188,-62.53176421409234,-0.0014639821765728435,-0.03713013450692737,-0.00036564647829281206,0.22898528127670287,0.7807074193763733,-9.685243832740785
2026-09-11T17:38:02.354,5.046219296000004,0.0,0.0,0.0,0.0,0.0,0.0,0.0,0.0,0.0,0.0,0.0058269500732421875,47.734375,2.0977020263671875,0.0,0.0,0.0,1,1789162682.088811,38.991390306666666,-76.93668571666667,-9.288000000000004,0,1,23.068808999999998,12.645136,123.121216,1,1,1789162682.3497636,-0.8537750026284701,0.5190190908963427,0.013424434012768712,-0.038822837909233736,175.39768910064845,-0.9956614367268497,-62.55173304558779,-0.0003331833542057175,-0.02768284179880726,-0.0015522958367237569,0.19672140224456788,0.7840416804313659,-9.671024190006255
2026-09-11T17:38:02.387,5.079636800000003,0.0,0.0,0.0,0.0,0.0,0.0,0.0,0.0,0.0,0.0,0.0058269500732421875,47.734375,2.0977020263671875,0.0,0.0,0.0,1,1789162682.088811,38.991390306666666,-76.93668571666667,-9.288000000000004,0,1,23.068808999999998,12.645136,123.121216,1,1,1789162682.3817637,-0.8537446422598873,0.5191143233644882,0.013680886978058786,-0.038121364375633696,175.45131616105058,-0.9293052152165063,-62.56597665382259,-0.001896300232291839,-0.026367387141579133,-0.00021781709064889231,0.12287732652664184,0.7379504246711731,-9.688578093795776
2026-09-11T17:38:02.420,5.113084608000008,0.0,0.0,0.0,0.0,0.0,0.0,0.0,0.0,0.0,0.0,0.0058269500732421875,47.734375,2.0977020263671875,0.0,0.0,0.0,1,1789162682.088811,38.991390306666666,-76.93668571666667,-9.288000000000004,0,1,23.068808999999998,12.645136,123.121216,1,1,1789162682.4097636,-0.8537483276750665,0.519182243019159,0.013643585933249705,-0.03711393388613503,175.55236488420763,-0.8733024831435318,-62.57540805949262,-0.0003378957431861022,-0.019019725523608207,-0.0023532274304639547,0.1273883856010437,0.6437085166168214,-9.687205162773132
2026-09-11T17:38:02.454,5.1465024320000055,0.0,0.0,0.0,0.0,0.0,0.0,0.0,0.0,0.0,0.0,0.0058269500732421875,47.734375,2.0977020263671875,0.0,0.0,0.0,1,1789162682.088811,38.991390306666666,-76.93668571666667,-9.288000000000004,0,1,23.068808999999998,12.645136,123.121216,1,1,1789162682.4497638,-0.8537670281318984,0.5192752281308154,0.013162282782878669,-0.03552257643329216,175.73707629546942,-0.8260585391143952,-62.58657261776568,-0.00011780972450961724,-0.004996877648459765,-0.0005864306286700947,0.13680276975631714,0.5878106106948853,-9.691422022342682
2026-09-11T17:38:02.487,5.179921824000019,0.0,0.0,0.0,0.0,0.0,0.0,0.0,0.0,0.0,0.0,0.0058269500732421875,47.734375,2.0977020263671875,0.0,0.0,0.0,1,1789162682.088811,38.991390306666666,-76.93668571666667,-9.288000000000004,0,1,23.068808999999998,12.645136,123.121216,1,1,1789162682.4777637,-0.8538183338689621,0.5192499886776787,0.012859220561303671,-0.03476122054841509,175.82970635180703,-0.8102265796328683,-62.58228774906224,-7.73180858633488e-05,-0.002217964413434394,-0.0009424777960769379,0.15386634103775024,0.6144846991348266,-9.69269688686371
2026-09-11T17:38:02.521,5.213334400000008,0.0,0.0,0.0,0.0,0.0,0.0,0.0,0.0,0.0,0.0,0.0058269500732421875,47.734375,2.0977020263671875,0.0,0.0,0.0,1,1789162682.088811,38.991390306666666,-76.93668571666667,-9.288000000000004,0,1,23.068808999999998,12.645136,123.121216,1,1,1789162682.5097637,-0.8538796932067708,0.5191574431684167,0.012967333262800432,-0.034595765636774516,175.8394036332397,-0.7893438525137018,-62.57039189494194,0.00010018189906447452,0.004679402257521997,0.0006613052535806514,0.12758451860427858,0.719513922367096,-9.68200763818741
2026-09-11T17:38:02.555,5.246751872000004,0.0,0.0,0.0,0.0,0.0,0.0,0.0,0.0,0.0,0.0,0.0058269500732421875,47.734375,2.0977020263671875,0.0,0.0,0.0,1,1789162682.088811,38.991390306666666,-76.93668571666667,-9.288000000000004,0,1,23.068808999999998,12.645136,123.121216,1,1,1789162682.5497637,-0.8539045140834501,0.5190675045494394,0.01332839275430712,-0.035190346621077034,175.75956121848714,-0.7889867492990051,-62.5595631964743,-0.000519584518318712,0.007530746656505133,0.00043895030687657387,0.14209836084365843,0.7821784169006347,-9.673966185054779
2026-09-11T17:38:02.588,5.2801717440000004,0.0,0.0,0.0,0.0,0.0,0.0,0.0,0.0,0.0,0.0,0.0058269500732421875,47.734375,2.0977020263671875,0.0,0.0,0.0,1,1789162682.088811,38.991390306666666,-76.93668571666667,-9.288000000000004,0,1,23.068808999999998,12.645136,123.121216,1,1,1789162682.5817637,-0.8538732630247953,0.5190701306856932,0.013466326661173809,-0.03585119478595615,175.68657960653087,-0.8148591770794005,-62.5602044630268,-0.0019881045509467406,0.0030421088862261168,-0.001917244183315771,0.17034151330947875,0.8096370373535156,-9.676810113601684
2026-09-11T17:38:02.621,5.313592639999996,0.0,0.0,0.0,0.0,0.0,0.0,0.0,0.0,0.0,0.0,0.0058269500732421875,47.734375,2.0977020263671875,0.0,0.0,0.0,1,1789162682.088811,38.991390306666666,-76.93668571666667,-9.288000000000004,0,1,23.068808999999998,12.645136,123.121216,1,1,1789162682.6097636,-0.8538560689402722,0.5190595798438074,0.013677023907346401,-0.03633049852773044,175.62705142206883,-0.8227364731987056,-62.55947011803413,0.0010939723751500457,0.00023544491609403507,0.0010581931254841621,0.15170887800216673,0.8013994512176513,-9.675339116077422
2026-09-11T17:38:02.655,5.347007648000016,0.0,0.0,0.0,0.0,0.0,0.0,0.0,0.0,0.0,0.0,0.0058269500732421875,47.734375,2.0977020263671875,0.0,0.0,0.0,1,1789162682.088811,38.991390306666666,-76.93668571666667,-9.288000000000004,0,1,23.068808999999998,12.645136,123.121216,1,1,1789162682.6497636,-0.853825161888928,0.5191081435316159,0.013658672568641261,-0.036369890131371006,175.62432846399173,-0.8271262886932513,-62.565882823868485,-0.0018929841067130498,0.00010367255756846318,-0.00025045474766118627,0.14621715391159057,0.735891028137207,-9.684165101222993
2026-09-11T17:38:02.688,5.380426784000008,0.0,0.0,0.0,0.0,0.0,0.0,0.0,0.0,0.0,0.0,0.0058269500732421875,47.734375,2.0977020263671875,0.0,0.0,0.0,1,1789162682.088811,38.991390306666666,-76.93668571666667,-9.288000000000004,0,1,23.068808999999998,12.645136,123.121216,1,1,1789162682.6777637,-0.8538214689252731,0.5191370610324249,0.0134972589442822,-0.03610311712160038,175.66010925819424,-0.82717543398758,-62.56919317892099,0.00025708699881876474,-0.002239082897383525,-8.988445647770798e-05,0.15769093460083008,0.7071575431632995,-9.676908180103302
2026-09-11T17:38:02.721,5.413845664000007,0.0,0.0,0.0,0.0,0.0,0.0,0.0,0.0,0.0,0.0,0.0058269500732421875,47.734375,2.0977020263671875,0.0,0.0,0.0,1,1789162682.088811,38.991390306666666,-76.93668571666667,-9.288000000000004,0,1,23.068808999999998,12.645136,123.121216,1,1,1789162682.7097638,-0.8538188328043513,0.5191624083555912,0.013180614972702287,-0.035917487216936064,175.69716796323735,-0.8472236733636621,-62.571348594460176,0.001159771287950232,0.00037803831598197174,0.0004691445029360758,0.15759286809921266,0.7160815948104858,-9.677594645614624
2026-09-11T17:38:02.755,5.447263359999994,0.0,0.0,0.0,0.0,0.0,0.0,0.0,0.0,0.0,0.0,0.0058269500732421875,47.734375,2.0977020263671875,0.0,0.0,0.0,1,1789162682.088811,38.991390306666666,-76.93668571666667,-9.288000000000004,0,1,23.068808999999998,12.645136,123.121216,1,1,1789162682.7497637,-0.8538389809736716,0.5191245361644808,0.013312375514022139,-0.03593732293908528,175.6873477046951,-0.8353242441839449,-62.56681267559872,-0.0019303341527057286,-0.001910786465083392,-0.0018537141985431774,0.15200307750701905,0.7543275304412842,-9.675731382083892
2026-09-11T17:38:02.788,5.480678463999993,0.0,0.0,0.0,0.0,0.0,0.0,0.0,0.0,0.0,0.0,0.0058269500732421875,47.734375,2.0977020263671875,0.0,0.0,0.0,1,1789162682.088811,38.991390306666666,-76.93668571666667,-9.288000000000004,0,1,23.068808999999998,12.645136,123.121216,1,1,1789162682.7777636,-0.8538546814057638,0.5190826673281357,0.013523883231935055,-0.036089778376968217,175.65978045737066,-0.8235001880749356,-62.56202153304433,0.0008281587300713094,-0.003616147677207052,-0.0009635962800260693,0.1512185454940796,0.7594269885253906,-9.681713438682557
2026-09-11T17:38:02.822,5.514094688,0.0,0.0,0.0,0.0,0.0,0.0,0.0,0.0,0.0,0.0,0.0058269500732421875,47.734375,2.0977020263671875,0.0,0.0,0.0,1,1789162682.088811,38.991390306666666,-76.93668571666667,-9.288000000000004,0,1,23.068808999999998,12.645136,123.121216,1,1,1789162682.8177638,-0.8538383501866482,0.5191020257575929,0.013597924723202004,-0.036169808516607685,175.64754945413523,-0.8211214630226905,-62.56489371783376,-0.0014393730341197236,-0.004493873758034999,-0.0017585937543094865,0.15278760951995848,0.7513855353927612,-9.67504491657257
2026-09-11T17:38:02.856,5.547514879999994,0.0,0.0,0.0,0.0,0.0,0.0,0.0,0.0,0.0,0.0,0.0058269500732421875,47.734375,2.0977020263671875,0.0,0.0,0.0,1,1789162682.088811,38.991390306666666,-76.93668571666667,-9.288000000000004,0,1,23.068808999999998,12.645136,123.121216,1,1,1789162682.8497636,-0.8538219704572861,0.5191372549417643,0.013590431429281137,-0.03605348068540296,175.65943171548304,-0.8151053419177643,-62.5696348420478,-0.0009861110273767962,-0.005231100834077404,-0.0015070918090971035,0.14239256034851075,0.7439324812698364,-9.680340507659912
2026-09-11T17:38:02.889,5.580933152,0.0,0.0,0.0,0.0,0.0,0.0,0.0,0.0,0.0,0.0,0.0058269500732421875,47.734375,2.0977020263671875,0.0,0.0,0.0,1,1789162682.088811,38.991390306666666,-76.93668571666667,-9.288000000000004,0,1,23.068808999999998,12.645136,123.121216,1,1,1789162682.8817637,-0.8538187962130845,0.5191540447824943,0.01350509784077228,-0.03591870475846981,175.67773545864736,-0.8155108566969221,-62.57158419902234,-9.599310885968812e-05,-0.0032607986415010056,-0.0016133823605435581,0.14396162437438964,0.7336354986000061,-9.678183044624328
2026-09-11T17:38:02.923,5.614353055999999,0.0,0.0,0.0,0.0,0.0,0.0,0.0,0.0,0.0,0.0,0.0058269500732421875,47.734375,2.0977020263671875,0.0,0.0,0.0,1,1789162682.088811,38.991390306666666,-76.93668571666667,-9.288000000000004,0,1,23.068808999999998,12.645136,123.121216,1,1,1789162682.9177637,-0.8537915663548837,0.5192158959926545,0.013454674077627418,-0.03569014311100567,175.70319721488255,-0.8071411554280936,-62.579762376900135,-0.0020999801559995774,-0.0001356120828799594,-0.001369385331114751,0.131997511177063,0.7291244395256042,-9.674456517562867
2026-09-11T17:38:02.955,5.647767552000005,0.0,0.0,0.0,0.0,0.0,0.0,0.0,0.0,0.0,0.0,0.0058269500732421875,47.734375,2.0977020263671875,0.0,0.0,0.0,1,1789162682.088811,38.991390306666666,-76.93668571666667,-9.288000000000004,0,1,23.068808999999998,12.645136,123.121216,1,1,1789162682.9497638,-0.8538133115964998,0.5191779125428578,0.013448501826825759,-0.035724807443465616,175.7001309523305,-0.8096187220692943,-62.57463043679628,-0.0009335766168917669,-0.0012349949787111877,-0.003356791750360694,0.15219921051025392,0.7292225060272216,-9.670729990501403
2026-09-11T17:38:02.989,5.681185536000015,0.0,0.0,0.0,0.0,0.0,0.0,0.0,0.0,0.0,0.0,0.0058269500732421875,47.734375,2.0977020263671875,0.0,0.0,0.0,1,1789162682.088811,38.991390306666666,-76.93668571666667,-9.288000000000004,0,1,23.068808999999998,12.645136,123.121216,1,1,1789162682.9777637,-0.8538110116290767,0.5191782382850078,0.013472719464632353,-0.03576589356406161,175.6946631896122,-0.8096985203759336,-62.574757700749345,0.0019245745661741474,0.006883054971090038,0.0014755013496360063,0.13866603328704835,0.7408924197196961,-9.676613980598448
2026-09-11T17:38:03.023,5.714602111999994,0.0,0.0,0.0,0.0,0.0,0.0,0.0,0.0,0.0,0.0,0.0058269500732421875,47.734375,2.0977020263671875,0.0,0.0,0.0,1,1789162682.088811,38.991390306666666,-76.93668571666667,-9.288000000000004,0,1,23.068808999999998,12.645136,123.121216,1,1,1789162683.0217638,-0.8538177026133079,0.519146537392095,0.013454885726917973,-0.03607172671229347,175.66571630509696,-0.8294991056848787,-62.57029871334359,-0.0017783159748570223,0.00783617927560414,-0.000801804258366195,0.15720060209274292,0.7609960525512696,-9.68769549528122
2026-09-11T17:38:03.056,5.7480215040000076,0.0,0.0,0.0,0.0,0.0,0.0,0.0,0.0,0.0,0.0,0.0058269500732421875,47.734375,2.0977020263671875,0.0,0.0,0.0,1,1789162682.088811,38.991390306666666,-76.93668571666667,-9.288000000000004,0,1,23.068808999999998,12.645136,123.121216,1,1,1789162683.0497637,-0.8538171925831813,0.5191337970416726,0.013360431895217581,-0.03630153272305979,175.6487968805082,-0.8523618587453843,-62.56808947253938,0.00015428710587629874,0.008242317392543221,0.0007098254067860938,0.16543818822860717,0.7603095870399476,-9.679457909145356
2026-09-11T17:38:03.089,5.781445343999991,0.0,0.0,0.0,0.0,0.0,0.0,0.0,0.0,0.0,0.0,0.0058269500732421875,47.734375,2.0977020263671875,0.0,0.0,0.0,1,1789162683.0809212,38.991390295,-76.93668577666666,-9.274000000000001,0,1,23.059203999999998,12.638025,123.121216,1,1,1789162683.0817637,-0.8538437647248971,0.5190714997844126,0.013423750149866546,-0.03654321392391507,175.62127673913756,-0.8602431345775488,-62.559895661414494,0.0009119345341670372,0.006355441938212152,-0.0012215559434708312,0.15504313905715944,0.7550139959526062,-9.671220323009491
2026-09-11T17:38:03.123,5.8148677119999945,0.0,0.0,0.0,0.0,0.0,0.0,0.0,0.0,0.0,0.0,0.0058269500732421875,47.734375,2.0977020263671875,0.0,0.0,0.0,1,1789162683.0809212,38.991390295,-76.93668577666666,-9.274000000000001,0,1,23.059203999999998,12.638025,123.121216,1,1,1789162683.1217637,-0.8538475422941945,0.5190685116827943,0.01320812122863064,-0.03657595154172516,175.630890529579,-0.8832726746831706,-62.55857155575663,-0.0018219492061568806,0.00500159003744015,-0.0009716247945852432,0.16347685819625854,0.7256921119689941,-9.678967576637268
2026-09-11T17:38:03.156,5.848284640000003,0.0,0.0,0.0,0.0,0.0,0.0,0.0,0.0,0.0,0.0,0.0058269500732421875,47.734375,2.0977020263671875,0.0,0.0,0.0,1,1789162683.0809212,38.991390295,-76.93668577666666,-9.274000000000001,0,1,23.059203999999998,12.638025,123.121216,1,1,1789162683.1497636,-0.8538755438867528,0.5190313469515928,0.013111174456150848,-0.036484428707297636,175.64559051771175,-0.8871174596554052,-62.55322895131121,-0.00038065630985996326,-0.000788888821901437,0.00045640359939651715,0.17034151330947875,0.7154931958007812,-9.685832231750489
2026-09-11T17:38:03.189,5.881700608000017,0.0,0.0,0.0,0.0,0.0,0.0,0.0,0.0,0.0,0.0,0.0058269500732421875,47.734375,2.0977020263671875,0.0,0.0,0.0,1,1789162683.0809212,38.991390295,-76.93668577666666,-9.274000000000001,0,1,23.059203999999998,12.638025,123.121216,1,1,1789162683.1777637,-0.8538773223086248,0.5190374564207312,0.012969587041169342,-0.036406415524351476,175.66166578466942,-0.8963553573883867,-62.55349641032678,0.0012697270308258746,0.002786243617883748,0.002143264321449037,0.17475450588226318,0.7212791193962098,-9.673770052051545
2026-09-11T17:38:03.223,5.9151237760000015,0.0,0.0,0.0,0.0,0.0,0.0,0.0,0.0,0.0,0.0,0.0058269500732421875,47.734375,2.0977020263671875,0.0,0.0,0.0,1,1789162683.0809212,38.991390295,-76.93668577666666,-9.274000000000001,0,1,23.059203999999998,12.638025,123.121216,1,1,1789162683.2177637,-0.8539167444931931,0.5189731040912806,0.012918587436311134,-0.03641731459976179,175.6635627743225,-0.9016675152913701,-62.54465579580133,-0.000568802803224952,-0.003916867907325675,-0.0014899875824275592,0.1716163778305054,0.7353026291275024,-9.678183044624328
2026-09-11T17:38:03.256,5.948645760000005,0.0,0.0,0.0,0.0,0.0,0.0,0.0,0.0,0.0,0.0,0.0058269500732421875,47.734375,2.0977020263671875,0.0,0.0,0.0,1,1789162683.0809212,38.991390295,-76.93668577666666,-9.274000000000001,0,1,23.059203999999998,12.638025,123.121216,1,1,1789162683.2497637,-0.8539112891865537,0.51897950514168,0.01288964599425639,-0.036464235475297826,175.6606906352285,-0.907325374165454,-62.54537100106639,0.0027063075381424076,-0.0028401742917703726,0.0019320794819577228,0.17828489994049074,0.7471686758232116,-9.679555975646974
2026-09-11T17:38:03.290,5.982067008000001,0.0,0.0,0.0,0.0,0.0,0.0,0.0,0.0,0.0,0.0,0.0058269500732421875,47.734375,2.0977020263671875,0.0,0.0,0.0,1,1789162683.0809212,38.991390295,-76.93668577666666,-9.274000000000001,0,1,23.059203999999998,12.638025,123.121216,1,1,1789162683.2777636,-0.8539248465234053,0.5189498556894463,0.012986909871418368,-0.03653414761388713,175.6480212660182,-0.9018207362783669,-62.54176664806523,0.0018236945354088748,-0.002933898472602468,-0.00279479573121852,0.17298930885314942,0.7603095870399476,-9.679457909145356
2026-09-11T17:38:03.324,6.015486304000007,0.0,0.0,0.0,0.0,0.0,0.0,0.0,0.0,0.0,0.0,0.0058269500732421875,47.734375,2.0977020263671875,0.0,0.0,0.0,1,1789162683.0809212,38.991390295,-76.93668577666666,-9.274000000000001,0,1,23.059203999999998,12.638025,123.121216,1,1,1789162683.3177638,-0.8539251248679697,0.518937687257162,0.013241470351922533,-0.03660903339791574,175.62552915483545,-0.8813106368385396,-62.54116367743466,0.0010581931254841621,-0.010569015818376862,-8.377580409572783e-06,0.15484700605392454,0.7698220376968384,-9.684655433731079
2026-09-11T17:38:03.357,6.048903104000004,0.0,0.0,0.0,0.0,0.0,0.0,0.0,0.0,0.0,0.0,0.0058269500732421875,47.734375,2.0977020263671875,0.0,0.0,0.0,1,1789162683.0809212,38.991390295,-76.93668577666666,-9.274000000000001,0,1,23.059203999999998,12.638025,123.121216,1,1,1789162683.3497636,-0.8539291651722827,0.5189220856983026,0.01347324617912965,-0.03665135031739527,175.60758164958483,-0.8610730767565536,-62.54003198914077,0.0014458307523521024,-0.006669252137720732,-0.0005469861875750229,0.15651413658142088,0.7564849934768677,-9.675731382083892
2026-09-11T17:38:03.391,6.0823216,0.0,0.0,0.0,0.0,0.0,0.0,0.0,0.0,0.0,0.0,0.0058269500732421875,47.734375,2.0977020263671875,0.0,0.0,0.0,1,1789162683.0809212,38.991390295,-76.93668577666666,-9.274000000000001,0,1,23.059203999999998,12.638025,123.121216,1,1,1789162683.3777637,-0.85392886823585,0.518930184487898,0.013494174520251832,-0.036535720532288596,175.61768150421523,-0.8521827268073204,-62.541259555587544,-0.0008384561726580759,-0.00481082555019717,0.0005338962181850654,0.1596522646331787,0.735204562625885,-9.681125039672851
2026-09-11T17:38:03.424,6.115738592000014,0.0,0.0,0.0,0.0,0.0,0.0,0.0,0.0,0.0,0.0,0.0058269500732421875,47.734375,2.0977020263671875,0.0,0.0,0.0,1,1789162683.0809212,38.991390295,-76.93668577666666,-9.274000000000001,0,1,23.059203999999998,12.638025,123.121216,1,1,1789162683.4177637,-0.8539443434175371,0.5189329336485222,0.01341252330292913,-0.03616314337524534,175.65906659819305,-0.8380033043343736,-62.54145300610155,0.0023113395284160903,-0.005430242901729958,-0.0037491417662090195,0.15455280654907227,0.7182390578460693,-9.68730322927475
2026-09-11T17:38:03.457,6.149159104000006,0.0,0.0,0.0,0.0,0.0,0.0,0.0,0.0,0.0,0.0,0.0058269500732421875,47.734375,2.0977020263671875,0.0,0.0,0.0,1,1789162683.0809212,38.991390295,-76.93668577666666,-9.274000000000001,0,1,23.059203999999998,12.638025,123.121216,1,1,1789162683.4497638,-0.8539598219915361,0.5189137352372525,0.013480091350243927,-0.036047814684049446,175.66633630217703,-0.8244287438780291,-62.53921662895671,0.0013311626204960752,-0.0019013616871226225,0.0021448351177758315,0.13935249879837036,0.742461483745575,-9.67886951013565
2026-09-11T17:38:03.490,6.182576288000007,0.0,0.0,0.0,0.0,0.0,0.0,0.0,0.0,0.0,0.0,0.0058269500732421875,47.734375,2.0977020263671875,0.0,0.0,0.0,1,1789162683.0809212,38.991390295,-76.93668577666666,-9.274000000000001,0,1,23.059203999999998,12.638025,123.121216,1,1,1789162683.4777637,-0.8539758896980938,0.5188798160513244,0.013616383169414157,-0.03610416067818941,175.65267499904272,-0.814275760472676,-62.53522257453595,-9.651670763528642e-05,0.0015926129424448257,-0.0033855896830186005,0.14376549137115477,0.7542294639396668,-9.677202379608154
2026-09-11T17:38:03.524,6.2159965440000065,0.0,0.0,0.0,0.0,0.0,0.0,0.0,0.0,0.0,0.0,0.0058269500732421875,47.734375,2.0977020263671875,0.0,0.0,0.0,1,1789162683.0809212,38.991390295,-76.93668577666666,-9.274000000000001,0,1,23.059203999999998,12.638025,123.121216,1,1,1789162683.5217638,-0.8539781165477596,0.5188752258432956,0.013618775119076311,-0.03611655337744862,175.65131341917817,-0.8147561246546695,-62.53461218108233,-0.0001921607506445757,-0.0014514158059584844,0.0004469788214357478,0.1484726834487915,0.736577493648529,-9.678183044624328
2026-09-11T17:38:03.557,6.249414720000004,0.0,0.0,0.0,0.0,0.0,0.0,0.0,0.0,0.0,0.0,0.0058269500732421875,47.734375,2.0977020263671875,0.0,0.0,0.0,1,1789162683.0809212,38.991390295,-76.93668577666666,-9.274000000000001,0,1,23.059203999999998,12.638025,123.121216,1,1,1789162683.5497637,-0.8539653867371705,0.5189087354852191,0.013490115310322912,-0.03598415319108939,175.67197660542908,-0.8196326091999975,-62.53861713745657,0.001235518577486786,0.005536009854400815,-5.148721293383272e-05,0.1410196293258667,0.7254959789657593,-9.678281111125946
2026-09-11T17:38:03.591,6.282831872000003,0.0,0.0,0.0,0.0,0.0,0.0,0.0,0.0,0.0,0.0,0.0058269500732421875,47.734375,2.0977020263671875,0.0,0.0,0.0,1,1789162683.0809212,38.991390295,-76.93668577666666,-9.274000000000001,0,1,23.059203999999998,12.638025,123.121216,1,1,1789162683.5777638,-0.853971756722744,0.518903863733699,0.013389179303317116,-0.035940907051619335,175.68221400323674,-0.8269093139042152,-62.5375593642176,-0.0005614724203665758,0.00560791741958298,-0.002476273142729555,0.15445474004745482,0.7373620256614686,-9.672102921524049
2026-09-11T17:38:03.624,6.316249536000015,0.0,0.0,0.0,0.0,0.0,0.0,0.0,0.0,0.0,0.0,0.0058269500732421875,47.734375,2.0977020263671875,0.0,0.0,0.0,1,1789162683.0809212,38.991390295,-76.93668577666666,-9.274000000000001,0,1,23.059203999999998,12.638025,123.121216,1,1,1789162683.6217637,-0.8539454224869971,0.5189440138780103,0.01329664140703075,-0.036021177118140846,175.67988671276945,-0.8409452425032361,-62.54251611275835,0.001020668546566284,0.00019984019935335073,-0.00045221480919173076,0.15131661199569701,0.7520720009040832,-9.67504491657257
2026-09-11T17:38:03.657,6.349666272000007,0.0,0.0,0.0,0.0,0.0,0.0,0.0,0.0,0.0,0.0,0.0058269500732421875,47.734375,2.0977020263671875,0.0,0.0,0.0,1,1789162683.0809212,38.991390295,-76.93668577666666,-9.274000000000001,0,1,23.059203999999998,12.638025,123.121216,1,1,1789162683.6497636,-0.853930929839844,0.5189639090225847,0.013248269388681668,-0.03609586614922746,175.6754608937163,-0.8502254907531867,-62.544945995746545,0.0009257226352577924,0.0022162190841824,0.0011512191746154599,0.1655362547302246,0.7500126043701173,-9.689264559307098
2026-09-11T17:38:03.691,6.383083232000018,0.0,0.0,0.0,0.0,0.0,0.0,0.0,0.0,0.0,0.0,0.0058269500732421875,47.734375,2.0977020263671875,0.0,0.0,0.0,1,1789162683.0809212,38.991390295,-76.93668577666666,-9.274000000000001,0,1,23.059203999999998,12.638025,123.121216,1,1,1789162683.6777637,-0.8539311273765801,0.5189579518823649,0.01325945255122454,-0.036172652563313375,175.66726211444353,-0.8536729721017533,-62.54415910118694,-0.0008653342431387886,-0.002238035699832329,0.0006346017160251383,0.1596522646331787,0.738146557674408,-9.678183044624328
2026-09-11T17:38:03.725,6.416507392,0.0,0.0,0.0,0.0,0.0,0.0,0.0,0.0,0.0,0.0,0.0058269500732421875,47.734375,2.0977020263671875,0.0,0.0,0.0,1,1789162683.0809212,38.991390295,-76.93668577666666,-9.274000000000001,0,1,23.059203999999998,12.638025,123.121216,1,1,1789162683.7217636,-0.8539315269562089,0.5189638868700162,0.013213684593975948,-0.03609473555040553,175.67762849948554,-0.8535418615749022,-62.54479920931401,0.00047891834674724403,-0.004797910113732411,-0.0010445795573186063,0.16259425968170166,0.7418730847358703,-9.67582944858551
2026-09-11T17:38:03.757,6.449931200000009,0.0,0.0,0.0,0.0,0.0,0.0,0.0,0.0,0.0,0.0,0.0058269500732421875,47.734375,2.0977020263671875,0.0,0.0,0.0,1,1789162683.0809212,38.991390295,-76.93668577666666,-9.274000000000001,0,1,23.059203999999998,12.638025,123.121216,1,1,1789162683.7497637,-0.8539347237489495,0.5189541440544881,0.01325596580156262,-0.036143648337521504,175.67030913139618,-0.8522679431777472,-62.54364759935441,0.0007459537223023765,-0.0005274384999526864,-0.00019896753472735358,0.1558276710700989,0.7455015452957153,-9.676613980598448
2026-09-11T17:38:03.791,6.483344415999994,0.0,0.0,0.0,0.0,0.0,0.0,0.0,0.0,0.0,0.0,0.0058269500732421875,47.734375,2.0977020263671875,0.0,0.0,0.0,1,1789162683.0809212,38.991390295,-76.93668577666666,-9.274000000000001,0,1,23.059203999999998,12.638025,123.121216,1,1,1789162683.7777636,-0.8539371542437095,0.5189465624307503,0.013374231111383209,-0.03615151290944302,175.66249738714987,-0.8411265826995359,-62.54312361790073,-0.0018980455615438335,-0.008228703824377665,-0.0028591983806171106,0.15661220308303833,0.7477570748329162,-9.680340507659912
2026-09-11T17:38:03.825,6.516763904000015,0.0,0.0,0.0,0.0,0.0,0.0,0.0,0.0,0.0,0.0,0.0058269500732421875,47.734375,2.0977020263671875,0.0,0.0,0.0,1,1789162683.0809212,38.991390295,-76.93668577666666,-9.274000000000001,0,1,23.059203999999998,12.638025,123.121216,1,1,1789162683.8177638,-0.8539289794636663,0.5189598005334226,0.013429919825486374,-0.03613392749110928,175.66092246237034,-0.8346981770646468,-62.545139766725825,0.0003118903373313867,-0.003530975609709728,0.0017964673990777634,0.1543566735458374,0.7433440822601319,-9.684067034721375
2026-09-11T17:38:03.858,6.550180447999992,0.0,0.0,0.0,0.0,0.0,0.0,0.0,0.0,0.0,0.0,0.0058269500732421875,47.734375,2.0977020263671875,0.0,0.0,0.0,1,1789162683.0809212,38.991390295,-76.93668577666666,-9.274000000000001,0,1,23.059203999999998,12.638025,123.121216,1,1,1789162683.8497636,-0.8539251660286734,0.5189651855890907,0.013412741878803649,-0.036153081814360596,175.6600715453385,-0.8375466427015826,-62.54578046732611,-0.0003324852225049198,-0.0014110987002374155,-0.0015219271077390553,0.17308737535476684,0.7419711512374878,-9.678084978122712
2026-09-11T17:38:03.891,6.583603296000007,0.0,0.0,0.0,0.0,0.0,0.0,0.0,0.0,0.0,0.0,0.0058269500732421875,47.734375,2.0977020263671875,0.0,0.0,0.0,1,1789162683.0809212,38.991390295,-76.93668577666666,-9.274000000000001,0,1,23.059203999999998,12.638025,123.121216,1,1,1789162683.8817637,-0.8539140304799646,0.5189822926590717,0.013469746127157381,-0.03614933464208736,175.65706530802092,-0.8318332333136973,-62.54831478430023,-0.0016364207066698834,-0.00035534903570604546,-0.0005855579640440976,0.14386355787277222,0.7439324812698364,-9.67886951013565
2026-09-11T17:38:03.925,6.617024960000009,0.0,0.0,0.0,0.0,0.0,0.0,0.0,0.0,0.0,0.0,0.0058269500732421875,47.734375,2.0977020263671875,0.0,0.0,0.0,1,1789162683.0809212,38.991390295,-76.93668577666666,-9.274000000000001,0,1,23.059203999999998,12.638025,123.121216,1,1,1789162683.9217637,-0.8539488054968609,0.5189294301686215,0.013541118534620733,-0.03605998064594353,175.66152943510903,-0.8192616749388136,-62.54157190656909,0.0016041321155079885,0.0032602750427254074,0.0012953833708301912,0.14621715391159057,0.7255940454673767,-9.68122310617447
2026-09-11T17:38:03.958,6.650441024000003,0.0,0.0,0.0,0.0,0.0,0.0,0.0,0.0,0.0,0.0,0.0058269500732421875,47.734375,2.0977020263671875,0.0,0.0,0.0,1,1789162683.0809212,38.991390295,-76.93668577666666,-9.274000000000001,0,1,23.059203999999998,12.638025,123.121216,1,1,1789162683.9497638,-0.853944982819356,0.5189465377514231,0.013468295700733776,-0.0359313551703571,175.6784864732372,-0.8188153652142549,-62.543614352745756,-0.00027331856086231204,0.002198591258737257,-0.0004878195259324151,0.14621715391159057,0.7270650429916382,-9.68200763818741
2026-09-11T17:38:03.992,6.683859264000006,0.0,0.0,0.0,0.0,0.0,0.0,0.0,0.0,0.0,0.0,0.0058269500732421875,47.734375,2.0977020263671875,0.0,0.0,0.0,1,1789162683.0809212,38.991390295,-76.93668577666666,-9.274000000000001,0,1,23.059203999999998,12.638025,123.121216,1,1,1789162683.9777637,-0.853933528042854,0.5189680017599488,0.013367819606910613,-0.03593110397033528,175.6845073105849,-0.8287394524681941,-62.546069137636096,-0.0019020598188234203,-0.0007021459580773188,0.000460766922526503,0.15514120555877686,0.7461880108070374,-9.676613980598448
2026-09-11T17:38:04.028,6.717279456,0.0,0.0,0.0,0.0,0.0,0.0,0.0,0.0,0.0,0.0,0.0058269500732421875,47.734375,2.0977020263671875,0.0,0.0,0.0,1,1789162683.0809212,38.991390295,-76.93668577666666,-9.274000000000001,0,1,23.059203999999998,12.638025,123.121216,1,1,1789162684.0177636,-0.8539107780781299,0.5189958265794434,0.01336330357330264,-0.03607127933316608,175.67106119919296,-0.837668295061453,-62.54971597244402,0.0007543313027119493,0.004849920925441844,-0.0017671458676442589,0.14906108245849609,0.7571714589881897,-9.66670926393509
2026-09-11T17:38:04.058,6.750700096000003,0.0,0.0,0.0,0.0,0.0,0.0,0.0,0.0,0.0,0.0,0.0058269500732421875,47.734375,2.0977020263671875,0.0,0.0,0.0,1,1789162683.0809212,38.991390295,-76.93668577666666,-9.274000000000001,0,1,23.059203999999998,12.638025,123.121216,1,1,1789162684.0497637,-0.8539245561038086,0.5189675229644146,0.013373237277230535,-0.03614857003838698,175.66286558595638,-0.841154964394561,-62.54592966028511,-0.00039863320115550487,0.0028743827451094615,-0.0012006119924468993,0.15141467849731446,0.7396175551986695,-9.684165101222993
2026-09-11T17:38:04.092,6.784116288000007,0.0,0.0,0.0,0.0,0.0,0.0,0.0,0.0,0.0,0.0,0.0058269500732421875,47.734375,2.0977020263671875,0.0,0.0,0.0,1,1789162684.0766451,38.99139026666667,-76.93668568166666,-9.277000000000001,0,1,23.059203999999998,12.638025,123.121216,1,1,1789162684.0897636,-0.8539370063531261,0.5189485150676045,0.013332687926799827,-0.03614232037980164,175.66587108280146,-0.8446537925317356,-62.54321510416979,0.001104095284811613,0.0013192943815825138,-0.0003714060648243933,0.16337879169464112,0.7337335651016235,-9.67965404214859
2026-09-11T17:38:04.126,6.81753177600001,0.0,0.0,0.0,0.0,0.0,0.0,0.0,0.0,0.0,0.0,0.0058269500732421875,47.734375,2.0977020263671875,0.0,0.0,0.0,1,1789162684.0766451,38.99139026666667,-76.93668568166666,-9.277000000000001,0,1,23.059203999999998,12.638025,123.121216,1,1,1789162684.1177638,-0.8539258280408313,0.5189720500608265,0.013252881251115267,-0.03609781986474397,175.67500316907723,-0.8499317812469139,-62.546055340391206,-0.0012953833708301912,8.656833089891874e-05,0.00020769418098732522,0.15288567602157593,0.7373620256614686,-9.684851566734315
2026-09-11T17:38:04.159,6.8509541440000135,0.0,0.0,0.0,0.0,0.0,0.0,0.0,0.0,0.0,0.0,0.0058269500732421875,47.734375,2.0977020263671875,0.0,0.0,0.0,1,1789162684.0766451,38.99139026666667,-76.93668568166666,-9.277000000000001,0,1,23.059203999999998,12.638025,123.121216,1,1,1789162684.1497636,-0.853942594488691,0.5189442613337554,0.013282712856009262,-0.036089728259862,175.6739948034201,-0.8463906417172912,-62.54245980162658,-0.0007955210730590154,-0.001477072145962801,-0.001193630675438922,0.15514120555877686,0.741775018234253,-9.676613980598448
2026-09-11T17:38:04.192,6.884372095999993,0.0,0.0,0.0,0.0,0.0,0.0,0.0,0.0,0.0,0.0,0.0058269500732421875,47.734375,2.0977020263671875,0.0,0.0,0.0,1,1789162684.0766451,38.99139026666667,-76.93668568166666,-9.277000000000001,0,1,23.059203999999998,12.638025,123.121216,1,1,1789162684.1897638,-0.8539311231027955,0.5189572819438298,0.013322540945904023,-0.03615918163641357,175.6648301796819,-0.8466949351588795,-62.54433968918138,0.0018444639535076075,0.0015336208137274173,0.0016653931722529893,0.14680555292129518,0.7506010033798217,-9.67504491657257
2026-09-11T17:38:04.225,6.917796127999992,0.0,0.0,0.0,0.0,0.0,0.0,0.0,0.0,0.0,0.0,0.0058269500732421875,47.734375,2.0977020263671875,0.0,0.0,0.0,1,1789162684.0766451,38.99139026666667,-76.93668568166666,-9.277000000000001,0,1,23.059203999999998,12.638025,123.121216,1,1,1789162684.2177637,-0.8539325115497108,0.5189515120518887,0.013322770364343709,-0.0362090823866132,175.6599187584959,-0.8496142491957537,-62.54354458591869,-0.0008180358204097423,0.001429424657383356,-0.0012850859282434249,0.16102519565582277,0.7470706093215942,-9.683282502708435
2026-09-11T17:38:04.259,6.951214240000013,0.0,0.0,0.0,0.0,0.0,0.0,0.0,0.0,0.0,0.0,0.0058269500732421875,47.734375,2.0977020263671875,0.0,0.0,0.0,1,1789162684.0766451,38.99139026666667,-76.93668568166666,-9.277000000000001,0,1,23.059203999999998,12.638025,123.121216,1,1,1789162684.2497637,-0.8539334744197187,0.5189516521367475,0.013324276779621795,-0.0361838038120317,175.66230752411403,-0.8479625180015617,-62.5435812632331,-0.0006415830330331156,-0.00023684117949563052,-0.0005860815628196958,0.15514120555877686,0.7366755601501466,-9.678183044624328
2026-09-11T17:38:04.293,6.984632320000003,0.0,0.0,0.0,0.0,0.0,0.0,0.0,0.0,0.0,0.0,0.0058269500732421875,47.734375,2.0977020263671875,0.0,0.0,0.0,1,1789162684.0766451,38.99139026666667,-76.93668568166666,-9.277000000000001,0,1,23.059203999999998,12.638025,123.121216,1,1,1789162684.2897637,-0.8539173322719764,0.5189797875818151,0.013287834857990063,-0.03617462054855656,175.66540297704384,-0.8511239413071339,-62.54720316555828,0.0007044148861049114,0.0011953760046909162,-0.0005037020221255635,0.16033873014450073,0.7492280723571777,-9.681026973171234
2026-09-11T17:38:04.326,7.0180567360000055,0.0,0.0,0.0,0.0,0.0,0.0,0.0,0.0,0.0,0.0,0.0058269500732421875,47.734375,2.0977020263671875,0.0,0.0,0.0,1,1789162684.0766451,38.99139026666667,-76.93668568166666,-9.277000000000001,0,1,23.059203999999998,12.638025,123.121216,1,1,1789162684.3177638,-0.8539083585196267,0.518995886068043,0.013304910395440505,-0.03614920267631135,175.66689520042823,-0.8480214787600988,-62.54944371755755,-0.0011873474901317423,-0.001214225560612455,-0.0008607963870836034,0.1469036194229126,0.7432460157585143,-9.681125039672851
2026-09-11T17:38:04.359,7.0514762880000035,0.0,0.0,0.0,0.0,0.0,0.0,0.0,0.0,0.0,0.0,0.0058269500732421875,47.734375,2.0977020263671875,0.0,0.0,0.0,1,1789162684.0766451,38.99139026666667,-76.93668568166666,-9.277000000000001,0,1,23.059203999999998,12.638025,123.121216,1,1,1789162684.3497636,-0.8539171299658036,0.5189791374288313,0.013337395160146507,-0.03617048458250398,175.66286028797956,-0.8460254670259899,-62.54732566169223,-0.0010672688375945325,-0.002147453111653823,-0.0004797910113732412,0.15739673509597776,0.7410885527229308,-9.684067034721375
2026-09-11T17:38:04.392,7.084892096000004,0.0,0.0,0.0,0.0,0.0,0.0,0.0,0.0,0.0,0.0,0.0058269500732421875,47.734375,2.0977020263671875,0.0,0.0,0.0,1,1789162684.0766451,38.99139026666667,-76.93668568166666,-9.277000000000001,0,1,23.059203999999998,12.638025,123.121216,1,1,1789162684.3897636,-0.853926991698375,0.5189627590703861,0.013439296871845086,-0.03613492557908601,175.66026982181123,-0.8338551815955885,-62.54557526615429,0.00034086280291449253,0.003234618702721091,0.00011588986233242349,0.14455002338409423,0.7468744763183595,-9.681026973171234
2026-09-11T17:38:04.426,7.118310944000001,0.0,0.0,0.0,0.0,0.0,0.0,0.0,0.0,0.0,0.0,0.0058269500732421875,47.734375,2.0977020263671875,0.0,0.0,0.0,1,1789162684.0766451,38.99139026666667,-76.93668568166666,-9.277000000000001,0,1,23.059203999999998,12.638025,123.121216,1,1,1789162684.4177637,-0.8539246181261146,0.5189620399984011,0.013456302632496525,-0.036194965372687654,175.65337175713321,-0.8357624914395365,-62.54552350758675,-0.002254965393576674,0.0021352358068898627,0.0007628834160467214,0.1543566735458374,0.7491300058555603,-9.678084978122712
2026-09-11T17:38:04.459,7.151733567999997,0.0,0.0,0.0,0.0,0.0,0.0,0.0,0.0,0.0,0.0,0.0058269500732421875,47.734375,2.0977020263671875,0.0,0.0,0.0,1,1789162684.0766451,38.99139026666667,-76.93668568166666,-9.277000000000001,0,1,23.059203999999998,12.638025,123.121216,1,1,1789162684.4497638,-0.8539355992264738,0.5189426752705198,0.013471910763246187,-0.036207730903575874,175.65117315227326,-0.8348969546803786,-62.542988587902755,-0.0009285151620609833,0.0030962140930379405,-0.0020500637393925394,0.14239256034851075,0.7409904862213135,-9.67739851261139
2026-09-11T17:38:04.493,7.185154879999999,0.0,0.0,0.0,0.0,0.0,0.0,0.0,0.0,0.0,0.0,0.0058269500732421875,47.734375,2.0977020263671875,0.0,0.0,0.0,1,1789162684.0766451,38.99139026666667,-76.93668568166666,-9.277000000000001,0,1,23.059203999999998,12.638025,123.121216,1,1,1789162684.4897637,-0.8539241799834099,0.518961886658625,0.013318530554151331,-0.03625840287794751,175.65534603275498,-0.8530182906024026,-62.54489440535418,-0.00023265238929084413,0.00890763690340346,0.0007197737835224615,0.1580832006072998,0.7455015452957153,-9.682596037197113
2026-09-11T17:38:04.526,7.218573152000005,0.0,0.0,0.0,0.0,0.0,0.0,0.0,0.0,0.0,0.0,0.0058269500732421875,47.734375,2.0977020263671875,0.0,0.0,0.0,1,1789162684.0766451,38.99139026666667,-76.93668568166666,-9.277000000000001,0,1,23.059203999999998,12.638025,123.121216,1,1,1789162684.5177636,-0.85393289141302,0.5189437554742945,0.013266064064787973,-0.03633190280543884,175.65124233978807,-0.8624355356949737,-62.542210567638776,-0.0007452555906015787,0.001750739772675512,-0.0008869763258635182,0.1580832006072998,0.7455015452957153,-9.67582944858551
